{
  "resourceType": "Bundle",
  "entry": [ {
    "resource": {
      "resourceType": "Composition",
      "id": "41518c26-897b-490e-aa56-40ffe47329ff",
      "identifier": {
        "use": "official",
        "value": "47c724fb-7ae1-402d-8d86-2cafd14e9c52"
      },
      "status": "preliminary",
      "type": {
        "coding": [ {
          "system": "http://loinc.org",
          "code": "34133-9",
          "display": "SUMMARIZATION OF EPISODE NOTE"
        } ]
      },
      "category": [ {
        "coding": [ {
          "system": "http://hl7.org/fhir/ValueSet/doc-classcodes",
          "code": "LP173421-7",
          "display": "Note"
        } ]
      } ],
      "subject": {
        "reference": "Patient/be3bcdd8-a761-4ce2-87ab-c45940c7a4fa",
        "display": "Adam Everyman"
      },
      "date": "2013-07-18T11:18:36-04:00",
      "author": [ {
        "reference": "Practitioner/37478e1a-f8f7-4169-82a0-3404222c2852",
        "display": "Jim Bergmann M.D.,C.N.A.,CMA,CNM,DDS,DMD"
      }, {
        "reference": "Device/cc18162c-c72a-4f24-9c4c-23ef8fe73065"
      } ],
      "title": "Summary of Care",
      "confidentiality": "N",
      "attester": [ {
        "mode": "professional",
        "time": "2013-07-18T11:18:36-04:00",
        "party": {
          "reference": "Practitioner/37478e1a-f8f7-4169-82a0-3404222c2852",
          "display": "Jim Bergmann M.D.,C.N.A.,CMA,CNM,DDS,DMD"
        }
      } ],
      "custodian": {
        "reference": "Organization/bc7115d5-1797-4f7c-a139-6f9bf3da8b8f",
        "display": "Primary Care Partners"
      },
      "event": [ {
        "period": {
          "start": "2013-07-11T11:00:00+02:00",
          "end": "2013-07-18T11:18:36-04:00"
        },
        "detail": [ {
          "reference": "Practitioner/fc48cdd3-6096-4ced-a329-e477b765e036",
          "display": "Samir Khan M.D., C.N.A., CMA, CNM, DDS, DMD, Samir Khan M.D., C.N.A., CMA, CNM, DDS, DMD"
        }, {
          "reference": "Practitioner/47888dde-62f8-4b11-a3cb-99bbd6cc92de",
          "display": "Nancy Nightingale"
        } ]
      } ],
      "section": [ {
        "title": "Encounters",
        "code": {
          "coding": [ {
            "system": "http://loinc.org",
            "code": "46240-8",
            "display": "Encounters"
          } ]
        },
        "text": {
          "status": "additional",
          "div": "<div xmlns=\"http://www.w3.org/1999/xhtml\"><table><tbody><tr><td><span><span>Appointment; Khan,Samir </span></span><span><br/></span><span><span>Encounter Diagnosis: </span><span>Costal chondritis</span></span><span/><span><span>Get Well Clinic Portland OR 97005</span></span><span><br/></span><span><span>(555) 551-1122</span></span><span><br/></span></td><td><span><span>On </span><span>11-July-2013</span></span><span><br/></span><span><span>11:00</span></span></td></tr></tbody></table></div>"
        },
        "mode": "snapshot",
        "entry": [ {
          "reference": "Encounter/b3f277fb-efb3-43ee-8940-320ecad9583b",
          "display": "Appointment; Khan,Samir"
        } ]
      }, {
        "title": "Problems",
        "code": {
          "coding": [ {
            "system": "http://loinc.org",
            "code": "11450-4",
            "display": "Problem List"
          } ]
        },
        "text": {
          "status": "additional",
          "div": "<div xmlns=\"http://www.w3.org/1999/xhtml\"><table><thead><tr><th>Name</th><th>Dates</th><th>Details</th></tr></thead><tbody><tr><td><span><span>Asthma</span></span><span> (493.90, J45.909) </span><span><span/></span><span><br/></span></td><td><span><span>Onset<span>:</span></span><span>25-Sep-2011</span></span></td><td><span><span><span>Status: </span><span>Active</span></span></span></td></tr><tr><td><span><span>Costal chondritis</span></span><span> (733.6, M94.0) </span><span><span/></span><span><br/></span></td><td><span><span>Onset<span>:</span></span><span>11-July-2013</span></span></td><td><span><span><span>Status: </span><span>Active</span></span></span></td></tr><tr><td><span><span>No impairment</span></span><span> (V68.01, Z02.71) </span><span><span/></span><span><br/></span></td><td><span><span>Onset<span>:</span></span><span>11-July-2013</span></span></td><td><span><span><span>Status: </span><span>Active</span></span></span></td></tr></tbody></table></div>"
        },
        "mode": "snapshot",
        "entry": [ {
          "reference": "Condition/36ae16e2-0735-4ce2-a2ab-bcf7dd503fe4",
          "display": "No impairment"
        }, {
          "reference": "Condition/cf569cf1-1ff0-428d-9734-13ac38af2463",
          "display": "Asthma"
        }, {
          "reference": "Condition/a73cd88f-39ba-48ee-90e8-7ea86fccbb7f",
          "display": "Costal chondritis"
        } ]
      }, {
        "title": "Immunization",
        "code": {
          "coding": [ {
            "system": "http://loinc.org",
            "code": "11369-6",
            "display": "Immunizations"
          } ]
        },
        "text": {
          "status": "additional",
          "div": "<div xmlns=\"http://www.w3.org/1999/xhtml\"><table><thead><tr><th>Name</th><th>Dates</th><th>Details</th></tr></thead><tbody><tr><td><span><span>Influenza A (H1N1) Monoval PF Intramuscular Suspension</span></span><span><br/></span><span>Lot #: </span><span>8362</span></td><td><span><span>Administered on<span>:</span></span><span>15-Aug-2010</span></span></td><td/></tr></tbody></table></div>"
        },
        "mode": "snapshot",
        "entry": [ {
          "reference": "Immunization/63f36ac4-7bbc-4b98-9beb-8b0456e17c1f",
          "display": "Influenza A (H1N1) Monoval PF Intramuscular Suspension"
        } ]
      }, {
        "title": "Results",
        "code": {
          "coding": [ {
            "system": "http://loinc.org",
            "code": "30954-2",
            "display": "Relevant diagnostic tests and/or laboratory data"
          } ]
        },
        "text": {
          "status": "additional",
          "div": "<div xmlns=\"http://www.w3.org/1999/xhtml\"><table><thead><tr><th>Date</th><th>Description</th><th>Value</th><th>Details</th></tr></thead><tbody><tr><td><span>Resulted on:</span><span><br/></span><span>11-July-2013 00:27</span></td><td colspan=\"2\"><span>CO2</span></td><td/><td/></tr><tr><td/><td><span>Carbon Dioxide</span></td><td><span>25.2  mmol/L</span></td><td><span><span/></span><span><br/></span></td></tr></tbody></table></div>"
        },
        "mode": "snapshot",
        "entry": [ {
          "reference": "DiagnosticReport/3b5b2c23-4c8d-4b62-b632-e92f1e13ae38",
          "display": "CO2"
        } ]
      }, {
        "title": "Social History",
        "code": {
          "coding": [ {
            "system": "http://loinc.org",
            "code": "29762-2",
            "display": "Social History"
          } ]
        },
        "text": {
          "status": "additional",
          "div": "<div xmlns=\"http://www.w3.org/1999/xhtml\"><table><thead><tr><th>Name</th><th>Dates</th><th>Details</th></tr></thead><tbody><tr><td><span><span>Never smoker</span></span><span><span/></span><span><br/></span></td><td/><td/></tr></tbody></table><ul><caption>Smoking Status</caption><li><span>Never smoker</span></li></ul></div>"
        },
        "mode": "snapshot",
        "entry": [ {
          "reference": "Observation/7a74e3d5-1883-49e7-8f15-0f88710975bb",
          "display": "Never smoker"
        }, {
          "reference": "Observation/e4834fda-1d40-4c79-bc2e-59ffd007935b",
          "display": "Assertion"
        } ]
      }, {
        "title": "Plan of Care",
        "code": {
          "coding": [ {
            "system": "http://loinc.org",
            "code": "18776-5",
            "display": "Plan of Care"
          } ]
        },
        "text": {
          "status": "additional",
          "div": "<div xmlns=\"http://www.w3.org/1999/xhtml\"><ul><caption>Planned Observations</caption><li><table><thead><tr><th>Name</th><th>Dates</th><th>Details</th></tr></thead><tbody><tr><td><span><span><span>Weight Loss; Start: 11Jul2013</span></span></span></td><td/><td><span><span>Goal</span></span><span><span> Comments: </span><span>&amp;lt;&amp;gt; Weight Loss</span></span><span><br/></span></td></tr><tr><td><span><span><span>Asthma Management; Start: 11Jul2013</span></span></span></td><td/><td><span><span>Goal</span></span><span><span> Comments: </span><span>&amp;lt;&amp;gt; Asthma Management</span></span><span><br/></span></td></tr></tbody></table></li></ul><ul><caption>Planned Encounters</caption><li><table><tbody><tr><td><span><span>Pulmonary Function Test Referral; To Be Done: 16 Jul 2013</span></span><span><br/></span></td><td/></tr></tbody></table></li></ul></div>"
        },
        "mode": "snapshot",
        "entry": [ {
          "reference": "CarePlan/a15b0a7e-327e-4070-aa8a-e172795d3731"
        } ]
      }, {
        "title": "Procedures",
        "code": {
          "coding": [ {
            "system": "http://loinc.org",
            "code": "47519-4",
            "display": "History of Procedures"
          } ]
        },
        "text": {
          "status": "additional",
          "div": "<div xmlns=\"http://www.w3.org/1999/xhtml\"><table><thead><tr><th>Procedure</th><th>Dates</th><th>Details</th></tr></thead><tbody><tr><td><span>Surgical history not documented</span></td><td/><td/></tr><tr><td><span>Procedures not documented</span></td><td/><td/></tr></tbody></table></div>"
        },
        "mode": "snapshot",
        "entry": [ {
          "reference": "Procedure/c0d9a022-6d87-45e6-98ae-7470792f4f27"
        }, {
          "reference": "Procedure/55cd0646-df70-4f9d-8a59-0980b38c72e1"
        } ]
      }, {
        "title": "Functional Status",
        "code": {
          "coding": [ {
            "system": "http://loinc.org",
            "code": "47420-5",
            "display": "Functional Status"
          } ]
        },
        "text": {
          "status": "additional",
          "div": "<div xmlns=\"http://www.w3.org/1999/xhtml\"><ul><caption>Functional Status Health Issues</caption><li><table><thead><tr><th>Name</th><th>Dates</th><th>Details</th></tr></thead><tbody><tr><td><span><span>No impairment</span></span><span> (V68.01, Z02.71) </span><span><span/></span><span><br/></span></td><td><span><span>Onset<span>:</span></span><span>11-July-2013</span></span></td><td><span><span><span>Status: </span><span>Active</span></span></span></td></tr></tbody></table></li></ul><ul><caption>Cognitive Status Health Issues</caption><li><table><thead><tr><th>Name</th><th>Dates</th><th>Details</th></tr></thead><tbody><tr><td><span><span>No impairment</span></span><span> (V68.01, Z02.71) </span><span><span/></span><span><br/></span></td><td><span><span>Onset<span>:</span></span><span>11-July-2013</span></span></td><td><span><span><span>Status: </span><span>Active</span></span></span></td></tr></tbody></table></li></ul></div>"
        },
        "mode": "snapshot"
      }, {
        "title": "Allergies and Adverse Reactions",
        "code": {
          "coding": [ {
            "system": "http://loinc.org",
            "code": "48765-2",
            "display": "Allergies, adverse reactions, alerts"
          } ]
        },
        "text": {
          "status": "additional",
          "div": "<div xmlns=\"http://www.w3.org/1999/xhtml\"><table><thead><tr><th>Name</th><th>Dates</th><th>Details</th></tr></thead><tbody><tr><td><span><span>Codeine</span></span></td><td><span/></td><td><span><span><span>Reaction: </span><span>Nausea</span></span></span><span><br/></span><span><span>Status: </span><span>Active</span></span></td></tr><tr><td><span><span>Penicillin G Potassium SOLR</span></span></td><td><span/></td><td><span><span><span>Reaction: </span><span>Hives</span></span></span><span><br/></span><span><span>Status: </span><span>Active</span></span></td></tr></tbody></table></div>"
        },
        "mode": "snapshot",
        "entry": [ {
          "reference": "AllergyIntolerance/4db43bdf-e399-46fd-ad4c-9a1afd4b40a6",
          "display": "Penicillin G Potassium SOLR"
        }, {
          "reference": "AllergyIntolerance/08738274-3257-47a7-bbba-6380b07f6737",
          "display": "Codeine"
        } ]
      }, {
        "title": "Medications",
        "code": {
          "coding": [ {
            "system": "http://loinc.org",
            "code": "10160-0",
            "display": "History of medication use"
          } ]
        },
        "text": {
          "status": "additional",
          "div": "<div xmlns=\"http://www.w3.org/1999/xhtml\"><table><thead><tr><th>Name</th><th>Dates</th><th>Details</th></tr></thead><tbody><tr><td><span><span>Proventil HFA 108 (90 Base) MCG/ACT Inhalation Aerosol Solution</span></span><span><br/></span><span><span><span>INHALE 2 PUFFS Every 6 hours PRN wheezing</span></span></span><span><br/></span><ul><li><table><tbody><tr><td><span> Quantity: </span><span><span>1</span></span></td></tr></tbody></table></li></ul><span><br/></span><span><span/></span></td><td/><td><span><span/><span>Active</span></span></td></tr></tbody></table></div>"
        },
        "mode": "snapshot"
      } ]
    }
  }, {
    "resource": {
      "resourceType": "Patient",
      "id": "be3bcdd8-a761-4ce2-87ab-c45940c7a4fa",
      "extension": [ {
        "url": "http://hl7.org/fhir/us/core/StructureDefinition/us-core-race",
        "extension": [ {
          "url": "text",
          "valueString": "White"
        }, {
          "url": "ombCategory",
          "valueCoding": {
            "system": "urn:oid:2.16.840.1.113883.6.238",
            "code": "2106-3",
            "display": "White"
          }
        } ]
      }, {
        "url": "http://hl7.org/fhir/us/core/StructureDefinition/us-core-ethnicity",
        "extension": [ {
          "url": "text",
          "valueString": "Not Hispanic or Latino"
        }, {
          "url": "ombCategory",
          "valueCoding": {
            "system": "urn:oid:2.16.840.1.113883.6.238",
            "code": "2186-5",
            "display": "Not Hispanic or Latino"
          }
        } ]
      } ],
      "identifier": [ {
        "use": "official",
        "system": "urn:oid:1.3.6.1.4.1.22812.3.9999341.3",
        "value": "130115235147857"
      } ],
      "name": [ {
        "family": "Everyman",
        "given": [ "Adam" ]
      } ],
      "gender": "male",
      "birthDate": "1962-10-22",
      "address": [ {
        "use": "home",
        "line": [ "99 Forest Park" ],
        "city": "Chicago",
        "state": "IL",
        "postalCode": "60301",
        "country": "US"
      } ],
      "communication": [ {
        "language": {
          "coding": [ {
            "system": "urn:ietf:bcp:47",
            "code": "eng"
          } ]
        },
        "preferred": true
      } ],
      "managingOrganization": {
        "reference": "Organization/bc7115d5-1797-4f7c-a139-6f9bf3da8b8f",
        "display": "Primary Care Partners"
      }
    }
  }, {
    "resource": {
      "resourceType": "Organization",
      "id": "bc7115d5-1797-4f7c-a139-6f9bf3da8b8f",
      "identifier": [ {
        "use": "official",
        "system": "urn:oid:1.3.6.1.4.1.22812.3.9999341.3",
        "value": "3"
      } ],
      "name": "Primary Care Partners",
      "telecom": [ {
        "system": "phone",
        "value": "+1-(555)555-1122",
        "use": "work"
      } ],
      "address": [ {
        "use": "home",
        "line": [ "Get Well Clinic, 1002 Healthcare Dr" ],
        "city": "Portland",
        "state": "OR",
        "postalCode": "97005",
        "country": "US"
      } ]
    }
  }, {
    "resource": {
      "resourceType": "Practitioner",
      "id": "37478e1a-f8f7-4169-82a0-3404222c2852",
      "identifier": [ {
        "use": "official",
        "system": "urn:oid:2.16.840.1.113883.4.6",
        "value": "7621234534"
      }, {
        "use": "official",
        "system": "urn:oid:1.3.6.1.4.1.22812.3.9999341.3",
        "value": "92152"
      } ],
      "name": [ {
        "family": "Bergmann",
        "given": [ "Jim" ],
        "suffix": [ "M.D.,C.N.A.,CMA,CNM,DDS,DMD" ]
      } ]
    }
  }, {
    "resource": {
      "resourceType": "Device",
      "id": "cc18162c-c72a-4f24-9c4c-23ef8fe73065",
      "identifier": [ {
        "use": "official",
        "system": "urn:oid:1.3.6.1.4.1.22812.3.9999341.3.3.3",
        "value": "3"
      } ],
      "manufacturer": " 11.410.918.0",
      "type": {
        "coding": [ {
          "display": " 11.410.918.0"
        } ]
      },
      "version": [ {
        "value": " 11.410.918.0; Transform 4.1.1.22"
      } ],
      "owner": {
        "reference": "Organization/bc7115d5-1797-4f7c-a139-6f9bf3da8b8f"
      }
    }
  }, {
    "resource": {
      "resourceType": "Practitioner",
      "id": "fc48cdd3-6096-4ced-a329-e477b765e036",
      "identifier": [ {
        "use": "official",
        "system": "http://hl7.org/fhir/sid/us-npi",
        "value": "9374285728"
      } ],
      "name": [ {
        "family": "Khan",
        "given": [ "Samir" ],
        "suffix": [ "M.D., C.N.A., CMA, CNM, DDS, DMD" ]
      }, {
        "family": "Khan",
        "given": [ "Samir" ],
        "suffix": [ "M.D., C.N.A., CMA, CNM, DDS, DMD" ]
      } ],
      "telecom": [ {
        "system": "phone",
        "value": "+1-(555)551-1122",
        "use": "work"
      } ],
      "address": [ {
        "use": "home",
        "line": [ "1004 Healthcare Dr" ],
        "city": "Portland",
        "state": "OR",
        "postalCode": "97005",
        "country": "US"
      }, {
        "use": "home",
        "line": [ "1002 Healthcare Drive" ],
        "city": "Portland",
        "state": "OR",
        "postalCode": "97005",
        "country": "US"
      } ]
    }
  }, {
    "resource": {
      "resourceType": "Practitioner",
      "id": "47888dde-62f8-4b11-a3cb-99bbd6cc92de",
      "identifier": [ {
        "use": "official",
        "system": "urn:oid:1.3.6.1.4.1.22812.3.9999341.3",
        "value": "92253"
      } ],
      "name": [ {
        "family": "Nightingale",
        "given": [ "Nancy" ]
      } ],
      "telecom": [ {
        "system": "phone",
        "value": "+1-(555)551-1122",
        "use": "work"
      } ],
      "address": [ {
        "use": "home",
        "line": [ "1002 Healthcare Drive" ],
        "city": "Portland",
        "state": "OR",
        "postalCode": "97005",
        "country": "US"
      } ]
    }
  }, {
    "resource": {
      "resourceType": "Encounter",
      "id": "b3f277fb-efb3-43ee-8940-320ecad9583b",
      "identifier": [ {
        "use": "official",
        "system": "urn:oid:1.3.6.1.4.1.22812.3.9999341.3.3.4",
        "value": "1257907"
      } ],
      "status": "finished",
      "type": [ {
        "coding": [ {
          "system": "urn:oid:2.16.840.1.113883.5.4"
        } ],
        "text": "Appointment; Khan,Samir"
      } ],
      "subject": {
        "reference": "Patient/be3bcdd8-a761-4ce2-87ab-c45940c7a4fa",
        "display": "Adam Everyman"
      },
      "period": {
        "start": "2013-07-11T11:00:00+02:00"
      },
      "diagnosis": [ {
        "condition": {
          "reference": "Condition/c2d16808-7e99-4b51-bd93-a12b59ff4ab9",
          "display": "Costal chondritis"
        }
      } ]
    }
  }, {
    "resource": {
      "resourceType": "Condition",
      "id": "c2d16808-7e99-4b51-bd93-a12b59ff4ab9",
      "identifier": [ {
        "use": "official",
        "system": "urn:oid:1.3.6.1.4.1.22812.3.9999341.3.4.1.2.1",
        "value": "723840"
      } ],
      "clinicalStatus": {
        "coding": [ {
          "system": "http://terminology.hl7.org/CodeSystem/condition-clinical",
          "code": "active",
          "display": "Active"
        } ]
      },
      "verificationStatus": {
        "coding": [ {
          "system": "http://terminology.hl7.org/CodeSystem/condition-ver-status",
          "code": "confirmed",
          "display": "Confirmed"
        } ]
      },
      "category": [ {
        "coding": [ {
          "system": "http://terminology.hl7.org/CodeSystem/condition-category",
          "code": "problem-list-item",
          "display": "Problem List Item"
        } ]
      } ],
      "code": {
        "text": "Costal chondritis"
      },
      "subject": {
        "reference": "Patient/be3bcdd8-a761-4ce2-87ab-c45940c7a4fa",
        "display": "Adam Everyman"
      }
    }
  }, {
    "resource": {
      "resourceType": "Condition",
      "id": "36ae16e2-0735-4ce2-a2ab-bcf7dd503fe4",
      "identifier": [ {
        "use": "official",
        "system": "urn:oid:1.3.6.1.4.1.22812.3.9999341.3.4.1.2.1",
        "value": "30011130000097"
      }, {
        "use": "official",
        "system": "urn:oid:1.3.6.1.4.1.22812.3.9999341.3.4.1.2.1",
        "value": "30011130000099"
      } ],
      "clinicalStatus": {
        "coding": [ {
          "system": "http://terminology.hl7.org/CodeSystem/condition-clinical",
          "code": "active",
          "display": "Active"
        } ]
      },
      "verificationStatus": {
        "coding": [ {
          "system": "http://terminology.hl7.org/CodeSystem/condition-ver-status",
          "code": "refuted",
          "display": "Refuted"
        } ]
      },
      "category": [ {
        "coding": [ {
          "system": "http://terminology.hl7.org/CodeSystem/condition-category",
          "code": "problem-list-item",
          "display": "Problem List Item"
        } ]
      } ],
      "code": {
        "coding": [ {
          "system": "http://snomed.info/sct",
          "code": "66557003",
          "display": "No impairment"
        }, {
          "system": "urn:oid:2.16.840.1.113883.6.103",
          "code": "V68.01",
          "display": "No impairment"
        }, {
          "system": "urn:oid:2.16.840.1.113883.6.90",
          "code": "Z02.71",
          "display": "No impairment"
        }, {
          "system": "urn:oid:2.16.840.1.113883.3.247.1.1",
          "code": "f65f2c3b-2ce7-e111-a03b-005056936627",
          "display": "No impairment"
        } ],
        "text": "No impairment"
      },
      "subject": {
        "reference": "Patient/be3bcdd8-a761-4ce2-87ab-c45940c7a4fa",
        "display": "Adam Everyman"
      },
      "onsetDateTime": "2013-07-11T00:00:00-04:00"
    }
  }, {
    "resource": {
      "resourceType": "Condition",
      "id": "cf569cf1-1ff0-428d-9734-13ac38af2463",
      "identifier": [ {
        "use": "official",
        "system": "urn:oid:1.3.6.1.4.1.22812.3.9999341.3.4.1.2.1",
        "value": "30011130000017"
      }, {
        "use": "official",
        "system": "urn:oid:1.3.6.1.4.1.22812.3.9999341.3.4.1.2.1",
        "value": "30011174200001"
      } ],
      "clinicalStatus": {
        "coding": [ {
          "system": "http://terminology.hl7.org/CodeSystem/condition-clinical",
          "code": "active",
          "display": "Active"
        } ]
      },
      "verificationStatus": {
        "coding": [ {
          "system": "http://terminology.hl7.org/CodeSystem/condition-ver-status",
          "code": "refuted",
          "display": "Refuted"
        } ]
      },
      "category": [ {
        "coding": [ {
          "system": "http://terminology.hl7.org/CodeSystem/condition-category",
          "code": "problem-list-item",
          "display": "Problem List Item"
        } ]
      } ],
      "code": {
        "coding": [ {
          "system": "http://snomed.info/sct",
          "code": "195967001",
          "display": "Asthma"
        }, {
          "system": "urn:oid:2.16.840.1.113883.6.103",
          "code": "493.90",
          "display": "Asthma"
        }, {
          "system": "urn:oid:2.16.840.1.113883.6.90",
          "code": "J45.909",
          "display": "Asthma"
        }, {
          "system": "urn:oid:2.16.840.1.113883.3.247.1.1",
          "code": "04e16cfd-4744-49aa-9578-b55dca12e975",
          "display": "Asthma"
        } ],
        "text": "Asthma"
      },
      "subject": {
        "reference": "Patient/be3bcdd8-a761-4ce2-87ab-c45940c7a4fa",
        "display": "Adam Everyman"
      },
      "onsetDateTime": "2011-09-25T00:00:00-04:00"
    }
  }, {
    "resource": {
      "resourceType": "Condition",
      "id": "a73cd88f-39ba-48ee-90e8-7ea86fccbb7f",
      "identifier": [ {
        "use": "official",
        "system": "urn:oid:1.3.6.1.4.1.22812.3.9999341.3.4.1.2.1",
        "value": "30011130000015"
      }, {
        "use": "official",
        "system": "urn:oid:1.3.6.1.4.1.22812.3.9999341.3.4.1.2.1",
        "value": "30011130000093"
      } ],
      "clinicalStatus": {
        "coding": [ {
          "system": "http://terminology.hl7.org/CodeSystem/condition-clinical",
          "code": "active",
          "display": "Active"
        } ]
      },
      "verificationStatus": {
        "coding": [ {
          "system": "http://terminology.hl7.org/CodeSystem/condition-ver-status",
          "code": "refuted",
          "display": "Refuted"
        } ]
      },
      "category": [ {
        "coding": [ {
          "system": "http://terminology.hl7.org/CodeSystem/condition-category",
          "code": "problem-list-item",
          "display": "Problem List Item"
        } ]
      } ],
      "code": {
        "coding": [ {
          "system": "http://snomed.info/sct",
          "code": "64109004",
          "display": "Costal chondritis"
        }, {
          "system": "urn:oid:2.16.840.1.113883.6.103",
          "code": "733.6",
          "display": "Costal chondritis"
        }, {
          "system": "urn:oid:2.16.840.1.113883.6.90",
          "code": "M94.0",
          "display": "Costal chondritis"
        }, {
          "system": "urn:oid:2.16.840.1.113883.3.247.1.1",
          "code": "94a6388d-dbf5-4ab7-a50d-90332ce30af1",
          "display": "Costal chondritis"
        } ],
        "text": "Costal chondritis"
      },
      "subject": {
        "reference": "Patient/be3bcdd8-a761-4ce2-87ab-c45940c7a4fa",
        "display": "Adam Everyman"
      },
      "onsetDateTime": "2013-07-11T00:00:00-04:00"
    }
  }, {
    "resource": {
      "resourceType": "Immunization",
      "id": "63f36ac4-7bbc-4b98-9beb-8b0456e17c1f",
      "identifier": [ {
        "use": "official",
        "system": "urn:oid:1.3.6.1.4.1.22812.3.9999341.3.4.4",
        "value": "30011130000079"
      }, {
        "use": "official",
        "system": "urn:oid:1.3.6.1.4.1.22812.3.9999341.3.4.4",
        "value": "30011173700001"
      } ],
      "status": "completed",
      "vaccineCode": {
        "coding": [ {
          "system": "http://www2a.cdc.gov/vaccines/iis/iisstandards/vaccines.asp?rpt=cvx",
          "code": "126",
          "display": "Influenza A (H1N1) Monoval PF Intramuscular Suspension"
        }, {
          "system": "urn:oid:2.16.840.1.113883.6.69",
          "code": "00006404701",
          "display": "Influenza A (H1N1) Monoval PF Intramuscular Suspension"
        } ],
        "text": "Influenza A (H1N1) Monoval PF Intramuscular Suspension"
      },
      "patient": {
        "reference": "Patient/be3bcdd8-a761-4ce2-87ab-c45940c7a4fa",
        "display": "Adam Everyman"
      },
      "occurrenceDateTime": "2010-08-15T00:00:00-04:00",
      "primarySource": false,
      "manufacturer": {
        "reference": "Organization/d9d0cc81-5c02-483c-90fe-7e19cc4c81d4",
        "display": "MERCK SHARP & DOHME"
      },
      "lotNumber": "8362"
    }
  }, {
    "resource": {
      "resourceType": "Organization",
      "id": "d9d0cc81-5c02-483c-90fe-7e19cc4c81d4",
      "name": "MERCK SHARP & DOHME"
    }
  }, {
    "resource": {
      "resourceType": "DiagnosticReport",
      "id": "3b5b2c23-4c8d-4b62-b632-e92f1e13ae38",
      "identifier": [ {
        "use": "official",
        "system": "urn:oid:1.3.6.1.4.1.22812.3.9999341.3.4.5",
        "value": "30011130000075"
      } ],
      "status": "partial",
      "category": [ {
        "coding": [ {
          "system": "http://terminology.hl7.org/CodeSystem/v2-0074",
          "code": "LAB",
          "display": "Laboratory"
        } ]
      } ],
      "code": {
        "coding": [ {
          "system": "http://www.ama-assn.org/go/cpt",
          "code": "UNK",
          "display": "CO2"
        } ]
      },
      "subject": {
        "reference": "Patient/be3bcdd8-a761-4ce2-87ab-c45940c7a4fa",
        "display": "Adam Everyman"
      },
      "effectivePeriod": {
        "start": "2013-07-11T00:27:00+02:00"
      },
      "issued": "2013-07-11T00:27:00.000+02:00",
      "result": [ {
        "reference": "Observation/8cbc0022-3f86-45dd-b00c-ba70183eaac9",
        "display": "Carbon Dioxide"
      } ]
    }
  }, {
    "resource": {
      "resourceType": "Observation",
      "id": "8cbc0022-3f86-45dd-b00c-ba70183eaac9",
      "identifier": [ {
        "use": "official",
        "system": "urn:oid:1.3.6.1.4.1.22812.3.9999341.3.4.5",
        "value": "30011130000073"
      }, {
        "use": "official",
        "system": "urn:oid:1.3.6.1.4.1.22812.3.9999341.3.4.5",
        "value": "30011130000077"
      } ],
      "status": "preliminary",
      "category": [ {
        "coding": [ {
          "system": "http://terminology.hl7.org/CodeSystem/observation-category",
          "code": "laboratory"
        } ]
      } ],
      "code": {
        "coding": [ {
          "system": "http://loinc.org",
          "code": "2028-9",
          "display": "Carbon Dioxide"
        } ]
      },
      "subject": {
        "reference": "Patient/be3bcdd8-a761-4ce2-87ab-c45940c7a4fa",
        "display": "Adam Everyman"
      },
      "effectivePeriod": {
        "start": "2013-07-11T00:27:00+02:00"
      },
      "valueQuantity": {
        "value": 25.2,
        "unit": "mmol/L",
        "system": "http://unitsofmeasure.org",
        "code": "mmol/L"
      },
      "interpretation": [ {
        "coding": [ {
          "system": "http://terminology.hl7.org/CodeSystem/v3-ObservationInterpretation"
        } ]
      } ]
    }
  }, {
    "resource": {
      "resourceType": "Observation",
      "id": "7a74e3d5-1883-49e7-8f15-0f88710975bb",
      "identifier": [ {
        "use": "official",
        "system": "urn:oid:1.3.6.1.4.1.22812.3.9999341.3.4.12",
        "value": "30011130000001"
      }, {
        "use": "official",
        "system": "urn:oid:1.3.6.1.4.1.22812.3.9999341.3.4.12",
        "value": "30011130000019"
      } ],
      "status": "final",
      "code": {
        "coding": [ {
          "system": "http://snomed.info/sct",
          "code": "229819007"
        }, {
          "system": "http://snomed.info/sct",
          "code": "266919005",
          "display": "Never smoker"
        }, {
          "system": "urn:oid:2.16.840.1.113883.3.247.1.1",
          "code": "9594f1dd-3591-4fe9-95f1-1e16315d5bba",
          "display": "Never smoker"
        } ],
        "text": "Never smoker"
      },
      "subject": {
        "reference": "Patient/be3bcdd8-a761-4ce2-87ab-c45940c7a4fa",
        "display": "Adam Everyman"
      }
    }
  }, {
    "resource": {
      "resourceType": "Observation",
      "id": "e4834fda-1d40-4c79-bc2e-59ffd007935b",
      "status": "final",
      "code": {
        "coding": [ {
          "system": "urn:oid:2.16.840.1.113883.5.4",
          "code": "ASSERTION",
          "display": "Assertion"
        } ]
      },
      "subject": {
        "reference": "Patient/be3bcdd8-a761-4ce2-87ab-c45940c7a4fa",
        "display": "Adam Everyman"
      },
      "valueCodeableConcept": {
        "coding": [ {
          "system": "http://snomed.info/sct",
          "code": "266919005",
          "display": "Never smoker"
        } ]
      }
    }
  }, {
    "resource": {
      "resourceType": "CarePlan",
      "id": "a15b0a7e-327e-4070-aa8a-e172795d3731",
      "text": {
        "status": "additional",
        "div": "<div xmlns=\"http://www.w3.org/1999/xhtml\"><ul><caption>Planned Observations</caption><li><table><thead><tr><th>Name</th><th>Dates</th><th>Details</th></tr></thead><tbody><tr><td><span><span><span>Weight Loss; Start: 11Jul2013</span></span></span></td><td/><td><span><span>Goal</span></span><span><span> Comments: </span><span>&amp;lt;&amp;gt; Weight Loss</span></span><span><br/></span></td></tr><tr><td><span><span><span>Asthma Management; Start: 11Jul2013</span></span></span></td><td/><td><span><span>Goal</span></span><span><span> Comments: </span><span>&amp;lt;&amp;gt; Asthma Management</span></span><span><br/></span></td></tr></tbody></table></li></ul><ul><caption>Planned Encounters</caption><li><table><tbody><tr><td><span><span>Pulmonary Function Test Referral; To Be Done: 16 Jul 2013</span></span><span><br/></span></td><td/></tr></tbody></table></li></ul></div>"
      },
      "status": "active",
      "intent": "plan",
      "category": [ {
        "coding": [ {
          "system": "http://hl7.org/fhir/us/core/CodeSystem/careplan-category",
          "code": "assess-plan"
        } ]
      } ],
      "title": "Plan of Care",
      "description": "<div><ul><caption>Planned Observations</caption><li><table><thead><tr><th>Name</th><th>Dates</th><th>Details</th></tr></thead><tbody><tr><td><span><span><span>Weight Loss; Start: 11Jul2013</span></span></span></td><td></td><td><span><span>Goal</span></span><span><span> Comments: </span><span>&amp;lt;&amp;gt; Weight Loss</span></span><span><br></br></span></td></tr><tr><td><span><span><span>Asthma Management; Start: 11Jul2013</span></span></span></td><td></td><td><span><span>Goal</span></span><span><span> Comments: </span><span>&amp;lt;&amp;gt; Asthma Management</span></span><span><br></br></span></td></tr></tbody></table></li></ul><ul><caption>Planned Encounters</caption><li><table><tbody><tr><td><span><span>Pulmonary Function Test Referral; To Be Done: 16 Jul 2013</span></span><span><br></br></span></td><td></td></tr></tbody></table></li></ul></div>",
      "subject": {
        "reference": "Patient/be3bcdd8-a761-4ce2-87ab-c45940c7a4fa",
        "display": "Adam Everyman"
      }
    }
  }, {
    "resource": {
      "resourceType": "Procedure",
      "id": "c0d9a022-6d87-45e6-98ae-7470792f4f27",
      "identifier": [ {
        "use": "official",
        "system": "urn:oid:1.3.6.1.4.1.22812.3.9999341.3.4.7",
        "value": "0"
      } ],
      "status": "in-progress",
      "subject": {
        "reference": "Patient/be3bcdd8-a761-4ce2-87ab-c45940c7a4fa",
        "display": "Adam Everyman"
      }
    }
  }, {
    "resource": {
      "resourceType": "Procedure",
      "id": "55cd0646-df70-4f9d-8a59-0980b38c72e1",
      "identifier": [ {
        "use": "official",
        "system": "urn:oid:1.3.6.1.4.1.22812.3.9999341.3.4.7",
        "value": "0"
      } ],
      "status": "in-progress",
      "subject": {
        "reference": "Patient/be3bcdd8-a761-4ce2-87ab-c45940c7a4fa",
        "display": "Adam Everyman"
      }
    }
  }, {
    "resource": {
      "resourceType": "AllergyIntolerance",
      "id": "4db43bdf-e399-46fd-ad4c-9a1afd4b40a6",
      "identifier": [ {
        "use": "official",
        "system": "urn:oid:1.3.6.1.4.1.22812.3.9999341.3.4.10",
        "value": "30011130000003"
      }, {
        "use": "official",
        "system": "urn:oid:1.3.6.1.4.1.22812.3.9999341.3.4.10",
        "value": "30011130000025"
      } ],
      "clinicalStatus": {
        "coding": [ {
          "system": "http://terminology.hl7.org/CodeSystem/allergyintolerance-clinical",
          "code": "active",
          "display": "Active"
        } ]
      },
      "verificationStatus": {
        "coding": [ {
          "system": "http://terminology.hl7.org/CodeSystem/allergyintolerance-verification",
          "code": "confirmed",
          "display": "Confirmed"
        } ]
      },
      "type": "allergy",
      "category": [ "environment" ],
      "code": {
        "text": "Penicillin G Potassium SOLR"
      },
      "patient": {
        "reference": "Patient/be3bcdd8-a761-4ce2-87ab-c45940c7a4fa",
        "display": "Adam Everyman"
      },
      "reaction": [ {
        "manifestation": [ {
          "text": "Hives"
        } ]
      } ]
    }
  }, {
    "resource": {
      "resourceType": "AllergyIntolerance",
      "id": "08738274-3257-47a7-bbba-6380b07f6737",
      "identifier": [ {
        "use": "official",
        "system": "urn:oid:1.3.6.1.4.1.22812.3.9999341.3.4.10",
        "value": "30011130000005"
      }, {
        "use": "official",
        "system": "urn:oid:1.3.6.1.4.1.22812.3.9999341.3.4.10",
        "value": "30011130000027"
      } ],
      "clinicalStatus": {
        "coding": [ {
          "system": "http://terminology.hl7.org/CodeSystem/allergyintolerance-clinical",
          "code": "active",
          "display": "Active"
        } ]
      },
      "verificationStatus": {
        "coding": [ {
          "system": "http://terminology.hl7.org/CodeSystem/allergyintolerance-verification",
          "code": "confirmed",
          "display": "Confirmed"
        } ]
      },
      "type": "allergy",
      "category": [ "environment" ],
      "code": {
        "text": "Codeine"
      },
      "patient": {
        "reference": "Patient/be3bcdd8-a761-4ce2-87ab-c45940c7a4fa",
        "display": "Adam Everyman"
      },
      "reaction": [ {
        "manifestation": [ {
          "text": "Nausea"
        } ]
      } ]
    }
  } ]
}