{
  "resourceType": "Bundle",
  "entry": [ {
    "resource": {
      "resourceType": "Composition",
      "id": "d5ecde8a-5fec-4a5e-82ba-4d90ce2ce6d7",
      "identifier": {
        "use": "official",
        "system": "urn:oid:1.3.6.1.4.1.22812.11.0.100610.1",
        "value": "0"
      },
      "status": "preliminary",
      "type": {
        "coding": [ {
          "system": "http://loinc.org",
          "code": "34133-9",
          "display": "SUMMARIZATION OF EPISODE NOTE"
        } ]
      },
      "category": [ {
        "coding": [ {
          "system": "http://hl7.org/fhir/ValueSet/doc-classcodes",
          "code": "LP173421-7",
          "display": "Note"
        } ]
      } ],
      "subject": {
        "reference": "Patient/8bf37a2f-a20a-4bc5-bcb0-33a2e04f5c0f",
        "display": "Kari CCDA Kidd"
      },
      "date": "2013-06-17T12:03:27-04:00",
      "author": [ {
        "reference": "Practitioner/7a703673-ceb5-4f4d-9c0a-9f7fc0946aa9",
        "display": "George Dixon"
      }, {
        "reference": "Device/5464a5e1-8960-4082-9450-d06bbe188931"
      } ],
      "title": "Visit Summary",
      "confidentiality": "N",
      "custodian": {
        "reference": "Organization/5b4babdc-4802-4dcd-acd8-3420dc28eecd",
        "display": "Family Practice Clinic S2V"
      },
      "event": [ {
        "period": {
          "start": "2011-03-12T10:32:00+01:00",
          "end": "2011-03-12T13:32:00+01:00"
        },
        "detail": [ {
          "reference": "Practitioner/1c794dff-b37d-4bcc-92ae-15d87c76953b",
          "display": "Karen Kidder"
        } ]
      } ],
      "section": [ {
        "title": "Assessments",
        "code": {
          "coding": [ {
            "system": "http://loinc.org",
            "code": "51848-0",
            "display": "Assessments"
          } ]
        },
        "text": {
          "status": "additional",
          "div": "<div xmlns=\"http://www.w3.org/1999/xhtml\">            <ul>              <li>                <span>Assessment excluded/not available</span>              </li>            </ul>          </div>"
        },
        "mode": "snapshot",
        "entry": [ {
          "reference": "ClinicalImpression/04ab6d9a-5273-49e6-9f11-745ddd6de297",
          "display": "Assessments"
        } ]
      }, {
        "title": "Immunization",
        "code": {
          "coding": [ {
            "system": "http://loinc.org",
            "code": "11369-6",
            "display": "Immunizations"
          } ]
        },
        "text": {
          "status": "additional",
          "div": "<div xmlns=\"http://www.w3.org/1999/xhtml\">            <table>              <thead>                <tr>                  <th>Name</th>                  <th>Dates</th>                  <th>Details</th>                </tr>              </thead>              <tbody>                <tr>                  <td>                    <span>                      <span>MMR</span>                    </span>                    <span>                      <br/>                    </span>                    <span>Lot #: </span>                    <span>ZT74378B</span>                  </td>                  <td>                    <span>                      <span>Administered on<span>:</span></span>                      <span>12-Mar-2011</span>                    </span>                  </td>                  <td>                    <span>                      <span>                      </span>                    </span>                    <span>                      <br/>                    </span>                  </td>                </tr>              </tbody>            </table>          </div>"
        },
        "mode": "snapshot",
        "entry": [ {
          "reference": "Immunization/04db282c-8d5f-4cb1-ae99-5c0e261bb04b",
          "display": "MMR"
        } ]
      }, {
        "title": "Allergies and Adverse Reactions",
        "code": {
          "coding": [ {
            "system": "http://loinc.org",
            "code": "48765-2",
            "display": "Allergies, adverse reactions, alerts"
          } ]
        },
        "text": {
          "status": "additional",
          "div": "<div xmlns=\"http://www.w3.org/1999/xhtml\">            <table>              <thead>                <tr>                  <th>Name</th>                  <th>Dates</th>                  <th>Details</th>                </tr>              </thead>              <tbody>                <tr>                  <td>                    <span>                      <span>penicillin G benzathine</span>                    </span>                  </td>                  <td>                    <span/>                  </td>                  <td>                    <span>                      <span>                        <span>Reaction: </span>                        <span>Hives</span>                      </span>                    </span>                    <span>                      <br/>                    </span>                    <span>                      <span>Status: </span>                      <span>Active</span>                    </span>                  </td>                </tr>              </tbody>            </table>          </div>"
        },
        "mode": "snapshot",
        "entry": [ {
          "reference": "AllergyIntolerance/95f2d0ee-8b9e-4ceb-a85d-9459f417c487",
          "display": "penicillin G benzathine"
        } ]
      }, {
        "title": "Plan of Care",
        "code": {
          "coding": [ {
            "system": "http://loinc.org",
            "code": "18776-5",
            "display": "Plan of Care"
          } ]
        },
        "text": {
          "status": "additional",
          "div": "<div xmlns=\"http://www.w3.org/1999/xhtml\">            <ul>              <caption>Instructions</caption>              <li>                <span>                  <span>resources and instructions provided during visit</span>                </span>              </li>            </ul>            <ul>              <caption>Planned Acts</caption>              <li>                <table>                  <thead>                    <tr>                      <th>Name</th>                      <th>Dates</th>                      <th>Details</th>                    </tr>                  </thead>                  <tbody>                    <tr>                      <td>                        <span>                          <span>                            <span>Asthma Management</span>                          </span>                        </span>                      </td>                      <td/>                      <td>                        <span>                          <span>Intent</span>                        </span>                      </td>                    </tr>                  </tbody>                </table>              </li>            </ul>            <ul>              <caption>Planned Observations</caption>              <li>                <table>                  <thead>                    <tr>                      <th>Name</th>                      <th>Dates</th>                      <th>Details</th>                    </tr>                  </thead>                  <tbody>                    <tr>                      <td>                        <span>                          <span>                            <span>Plan Of Care Entry excluded/not available</span>                          </span>                        </span>                      </td>                      <td/>                      <td>                        <span>                          <span>Goal</span>                        </span>                      </td>                    </tr>                  </tbody>                </table>              </li>            </ul>          </div>"
        },
        "mode": "snapshot",
        "entry": [ {
          "reference": "CarePlan/729fc34f-f929-4b2c-bf22-3d9c81203976"
        } ]
      }, {
        "title": "Medications",
        "code": {
          "coding": [ {
            "system": "http://loinc.org",
            "code": "10160-0",
            "display": "History of medication use"
          } ]
        },
        "text": {
          "status": "additional",
          "div": "<div xmlns=\"http://www.w3.org/1999/xhtml\">            <table>              <thead>                <tr>                  <th>Name</th>                  <th>Dates</th>                  <th>Details</th>                </tr>              </thead>              <tbody>                <tr>                  <td>                    <span>                      <span>oseltamivir 30 mg oral capsule</span>                    </span>                    <span>                      <br/>                    </span>                    <span>                      <span>                        <span>1 cap(s) orally every 12 hours until all consumed</span>                      </span>                    </span>                    <span>                      <br/>                    </span>                    <ul>                      <li>                        <table>                          <tbody>                            <tr>                              <td>                                <span> Quantity: </span>                                <span>                                  <span>0</span>                                </span>                              </td>                              <td>                                <span> Refills: </span>                                <span>                                  <span>0</span>                                </span>                              </td>                            </tr>                          </tbody>                        </table>                      </li>                    </ul>                    <span>                      <br/>                    </span>                    <span>                      <span>                        <span>                        </span>                      </span>                    </span>                  </td>                  <td/>                  <td>                    <ul>                      <li>                        <table>                          <tbody>                            <tr>                              <td>                                <span> Started </span>13-May-2013</td>                            </tr>                          </tbody>                        </table>                      </li>                    </ul>                    <span>                      <span/>                      <span>Active</span>                    </span>                    <span>                      <span>                      </span>                    </span>                    <span>                      <br/>                    </span>                  </td>                </tr>                <tr>                  <td>                    <span>                      <span>Proventil HFA CFC free 90 mcg/inh inhalation aerosol</span>                    </span>                    <span>                      <br/>                    </span>                    <span>                      <span>                        <span>2 puff(s) inhaled 4 times a day, As Needed for wheezing</span>                      </span>                    </span>                    <span>                      <br/>                    </span>                    <ul>                      <li>                        <table>                          <tbody>                            <tr>                              <td>                                <span> Quantity: </span>                                <span>                                  <span>0</span>                                </span>                              </td>                              <td>                                <span> Refills: </span>                                <span>                                  <span>0</span>                                </span>                              </td>                            </tr>                          </tbody>                        </table>                      </li>                    </ul>                    <span>                      <br/>                    </span>                    <span>                      <span>                        <span>                        </span>                      </span>                    </span>                  </td>                  <td/>                  <td>                    <ul>                      <li>                        <table>                          <tbody>                            <tr>                              <td>                                <span> Started </span>13-Apr-2011</td>                            </tr>                          </tbody>                        </table>                      </li>                    </ul>                    <span>                      <span/>                      <span>Active</span>                    </span>                    <span>                      <span>                      </span>                    </span>                    <span>                      <br/>                    </span>                  </td>                </tr>              </tbody>            </table>          </div>"
        },
        "mode": "snapshot"
      }, {
        "title": "Social History",
        "code": {
          "coding": [ {
            "system": "http://loinc.org",
            "code": "29762-2",
            "display": "Social History"
          } ]
        },
        "text": {
          "status": "additional",
          "div": "<div xmlns=\"http://www.w3.org/1999/xhtml\">            <ul>              <caption>Smoking Status</caption>              <li>                <span>Former smoker</span>              </li>              <li>                <span>Unknown if ever smoked</span>              </li>              <li>                <span>Never smoker</span>              </li>            </ul>          </div>"
        },
        "mode": "snapshot",
        "entry": [ {
          "reference": "Observation/38aa2a6c-52f9-4b10-8929-df2a057a45da",
          "display": "Assertion"
        }, {
          "reference": "Observation/0bb26086-31a9-4c60-8590-a0fd88033ba6",
          "display": "Assertion"
        }, {
          "reference": "Observation/8ab72dfc-5666-4ef7-bdce-80122410cb18",
          "display": "Assertion"
        } ]
      }, {
        "title": "Problems",
        "code": {
          "coding": [ {
            "system": "http://loinc.org",
            "code": "11450-4",
            "display": "Problem List"
          } ]
        },
        "text": {
          "status": "additional",
          "div": "<div xmlns=\"http://www.w3.org/1999/xhtml\">            <table>              <thead>                <tr>                  <th>Name</th>                  <th>Dates</th>                  <th>Details</th>                </tr>              </thead>              <tbody>                <tr>                  <td>                    <span>                      <span>Bacteriuria</span>                    </span>                    <span>                      <span/>                    </span>                    <span>                      <br/>                    </span>                  </td>                  <td/>                  <td>                    <span>                      <span>                      </span>                    </span>                    <span>                      <br/>                    </span>                    <span>                      <span>                        <span>Status: </span>                        <span>Active</span>                      </span>                    </span>                  </td>                </tr>                <tr>                  <td>                    <span>                      <span>Asthma</span>                    </span>                    <span>                      <span/>                    </span>                    <span>                      <br/>                    </span>                  </td>                  <td>                    <span>                      <span>Onset<span>:</span></span>                      <span>12-Mar-2011</span>                    </span>                  </td>                  <td>                    <span>                      <span>                      </span>                    </span>                    <span>                      <br/>                    </span>                    <span>                      <span>                        <span>Status: </span>                        <span>Active</span>                      </span>                    </span>                  </td>                </tr>                <tr>                  <td>                    <span>                      <span>Staggering gait</span>                    </span>                    <span>                      <span/>                    </span>                    <span>                      <br/>                    </span>                  </td>                  <td/>                  <td>                    <span>                      <span> Comments: </span>                      <span>Staggering gait</span>                    </span>                    <span>                      <br/>                    </span>                    <span>                      <span>                        <span>Status: </span>                        <span>Active</span>                      </span>                    </span>                  </td>                </tr>                <tr>                  <td>                    <span>                      <span>Asthma</span>                    </span>                    <span>                      <span/>                    </span>                    <span>                      <br/>                    </span>                  </td>                  <td/>                  <td>                    <span>                      <span>                      </span>                    </span>                    <span>                      <br/>                    </span>                    <span>                      <span>                        <span>Status: </span>                        <span>Active</span>                      </span>                    </span>                  </td>                </tr>                <tr>                  <td>                    <span>                      <span>Flu-like symptoms</span>                    </span>                    <span>                      <span/>                    </span>                    <span>                      <br/>                    </span>                  </td>                  <td/>                  <td>                    <span>                      <span>                      </span>                    </span>                    <span>                      <br/>                    </span>                    <span>                      <span>                        <span>Status: </span>                        <span>Active</span>                      </span>                    </span>                  </td>                </tr>                <tr>                  <td>                    <span>                      <span>Flu-like symptoms</span>                    </span>                    <span>                      <span/>                    </span>                    <span>                      <br/>                    </span>                  </td>                  <td>                    <span>                      <span>Onset<span>:</span></span>                      <span>13-May-2013</span>                    </span>                  </td>                  <td>                    <span>                      <span>                      </span>                    </span>                    <span>                      <br/>                    </span>                    <span>                      <span>                        <span>Status: </span>                        <span>Active</span>                      </span>                    </span>                  </td>                </tr>              </tbody>            </table>          </div>"
        },
        "mode": "snapshot",
        "entry": [ {
          "reference": "Condition/e98121d0-7f95-42f0-9c13-bf52ac51575c",
          "display": "Flu-like symptoms"
        }, {
          "reference": "Condition/1e281776-79ca-4237-b456-47c71aa754c7",
          "display": "Flu-like symptoms"
        }, {
          "reference": "Condition/674b2a50-c472-4db1-b245-183948de46a9",
          "display": "Asthma"
        }, {
          "reference": "Condition/3cb0a25f-3825-4fc4-a017-771c3c70a4c6",
          "display": "Asthma"
        }, {
          "reference": "Condition/8929cc2b-da8b-41c5-8582-384368d17a94",
          "display": "Bacteriuria"
        }, {
          "reference": "Condition/3a8738be-25f8-457c-960c-21a06e7aed6a",
          "display": "Staggering gait"
        } ]
      }, {
        "title": "Procedures",
        "code": {
          "coding": [ {
            "system": "http://loinc.org",
            "code": "47519-4",
            "display": "History of Procedures"
          } ]
        },
        "text": {
          "status": "additional",
          "div": "<div xmlns=\"http://www.w3.org/1999/xhtml\">            <table>              <thead>                <tr>                  <th>Procedure</th>                  <th>Dates</th>                  <th>Details</th>                </tr>              </thead>              <tbody>                <tr>                  <td>                    <span>Procedure excluded/not available</span>                  </td>                  <td/>                  <td/>                </tr>              </tbody>            </table>          </div>"
        },
        "mode": "snapshot",
        "entry": [ {
          "reference": "Procedure/e86ae90c-47c9-48cc-a6b2-d7510da75245"
        } ]
      }, {
        "title": "Results",
        "code": {
          "coding": [ {
            "system": "http://loinc.org",
            "code": "30954-2",
            "display": "Relevant diagnostic tests and/or laboratory data"
          } ]
        },
        "text": {
          "status": "additional",
          "div": "<div xmlns=\"http://www.w3.org/1999/xhtml\">            <table>              <thead>                <tr>                  <th>Date</th>                  <th>Description</th>                  <th>Value</th>                  <th>Details</th>                </tr>              </thead>              <tbody>                <tr>                  <td>                    <span>                      <span>Resulted on:</span>                    </span>                    <span>                      <br/>                    </span>                    <span>13-May-2013 3:43 PM</span>                  </td>                  <td>                    <span>Hemoglobin A, Serum</span>                  </td>                  <td>                    <span>16  g/dl</span>                  </td>                  <td>                    <span>Range: 13.5 - 18.0 g/dl</span>                    <span>                      <br/>                    </span>                    <span>                      <span>                      </span>                    </span>                    <span>                      <br/>                    </span>                  </td>                </tr>                <tr>                  <td/>                  <td/>                  <td/>                  <td/>                </tr>              </tbody>              <tbody>                <tr>                  <td>                    <span>                      <br/>                    </span>                    <span>3:34 PM</span>                  </td>                  <td>                    <span>Hematocrit, Whole Blood</span>                  </td>                  <td>                    <span>44  %</span>                  </td>                  <td>                    <span>Range: 41 - 53 %</span>                    <span>                      <br/>                    </span>                    <span>                      <span>                      </span>                    </span>                    <span>                      <br/>                    </span>                  </td>                </tr>                <tr>                  <td/>                  <td/>                  <td/>                  <td/>                </tr>              </tbody>              <tbody>                <tr>                  <td>                    <span>                      <br/>                    </span>                    <span>3:33 PM</span>                  </td>                  <td>                    <span>WBC Count</span>                  </td>                  <td>                    <span>6  ul</span>                  </td>                  <td>                    <span>Range: 4.3 - 10.8 ul</span>                    <span>                      <br/>                    </span>                    <span>                      <span>                      </span>                    </span>                    <span>                      <br/>                    </span>                  </td>                </tr>                <tr>                  <td/>                  <td/>                  <td/>                  <td/>                </tr>              </tbody>            </table>          </div>"
        },
        "mode": "snapshot",
        "entry": [ {
          "reference": "DiagnosticReport/c60c2d32-898a-4ce6-9d83-41bb1784357f",
          "display": "Hemoglobin A, Serum"
        }, {
          "reference": "DiagnosticReport/143f4e3e-a0ba-4d5a-b6b4-f03cd41e6699",
          "display": "Hematocrit, Whole Blood"
        }, {
          "reference": "DiagnosticReport/7b8a56e5-63c1-44f4-9696-16f6fd9a8789",
          "display": "WBC Count"
        } ]
      }, {
        "title": "Encounters",
        "code": {
          "coding": [ {
            "system": "http://loinc.org",
            "code": "46240-8",
            "display": "Encounters"
          } ]
        },
        "text": {
          "status": "additional",
          "div": "<div xmlns=\"http://www.w3.org/1999/xhtml\">            <table>              <tbody>                <tr>                  <td>                    <span>                      <span>Outpatient</span>                    </span>                    <span>                      <br/>                    </span>                    <span>                      <span>Encounter Diagnosis: </span>                      <span>Flu-like symptoms</span>                      <span>, </span>                      <span>Asthma</span>                      <span>, </span>                      <span>Flu-like symptoms</span>                    </span>                    <span>                      <span>                      </span>                      <span>                      </span>                      <span>                      </span>                      <span>                        <span>Active</span>                      </span>                      <span>                        <span>Active</span>                      </span>                      <span>                        <span>Active</span>                      </span>                    </span>                    <span>                      <span>Family Practice Clinic S2V</span>                    </span>                    <span>                      <br/>                    </span>                    <span>                      <br/>                    </span>                    <span>                      <span> Kidder</span>, Karen </span>                  </td>                  <td>                    <span>                      <span>13-May-2013</span>                      <span> to </span>                      <span>1-Jan-0001</span>                    </span>                  </td>                </tr>                <tr>                  <td>                    <span>                      <span>Outpatient</span>                    </span>                    <span>                      <br/>                    </span>                    <span>                      <span>Encounter Reason: </span>                      <span>Admitting Dx added manually</span>                    </span>                    <span>                      <span>Encounter Diagnosis: </span>                      <span>Asthma</span>                      <span>, </span>                      <span>Staggering gait</span>                      <span>, </span>                      <span>Prickly heat</span>                      <span>, </span>                      <span>Schizophreniform disorder in remission</span>                    </span>                    <span>                      <span>                      </span>                      <span>Staggering gait</span>                      <span>Copy From Visit ID: 1000002159 Health Issue Type: Principal Dx</span>                      <span>                      </span>                      <span>                        <span>Active</span>                      </span>                      <span>                        <span>Active</span>                      </span>                      <span>                        <span>Active</span>                      </span>                      <span>                        <span>Inactive</span>                      </span>                    </span>                    <span>                      <br/>                    </span>                    <span>                      <span> Kidder</span>, Karen </span>                  </td>                  <td>                    <span>                      <span>On </span>                      <span>12-Mar-2011</span>                    </span>                    <span>                      <br/>                    </span>                    <span>                      <span>1:32 AM</span>                      <span> to </span>                      <span>1:32 PM</span>                    </span>                  </td>                </tr>                <tr>                  <td>                    <span>                      <span>Outpatient</span>                    </span>                    <span>                      <br/>                    </span>                    <span>                      <span>Encounter Diagnosis: </span>                      <span>Asthma</span>                      <span>, </span>                      <span>App adhesion barrier sub</span>                    </span>                    <span>                      <span>                      </span>                      <span>                      </span>                      <span>                        <span>Active</span>                      </span>                      <span>                        <span>Active</span>                      </span>                    </span>                    <span>                      <br/>                    </span>                    <span>                      <span> Kidder</span>, Karen </span>                  </td>                  <td>                    <span>                      <span>On </span>                      <span>15-Apr-2010</span>                    </span>                    <span>                      <br/>                    </span>                    <span>                      <span>1:13 AM</span>                      <span> to </span>                      <span>1:14 PM</span>                    </span>                  </td>                </tr>              </tbody>            </table>          </div>"
        },
        "mode": "snapshot",
        "entry": [ {
          "reference": "Encounter/d407b379-08cc-4fdb-92ed-b517a1152358",
          "display": "Outpatient"
        }, {
          "reference": "Encounter/f2e92be5-e662-49b4-a15f-52be86554f32",
          "display": "Outpatient"
        }, {
          "reference": "Encounter/8191e996-f8b8-4f6c-92b2-a73f248f0871",
          "display": "Outpatient"
        } ]
      } ]
    }
  }, {
    "resource": {
      "resourceType": "Patient",
      "id": "8bf37a2f-a20a-4bc5-bcb0-33a2e04f5c0f",
      "extension": [ {
        "url": "http://hl7.org/fhir/us/core/StructureDefinition/us-core-race",
        "extension": [ {
          "url": "text",
          "valueString": "White"
        }, {
          "url": "ombCategory",
          "valueCoding": {
            "system": "urn:oid:2.16.840.1.113883.6.238",
            "code": "2106-3",
            "display": "White"
          }
        } ]
      }, {
        "url": "http://hl7.org/fhir/us/core/StructureDefinition/us-core-ethnicity",
        "extension": [ {
          "url": "text",
          "valueString": "Not Hispanic or Latino"
        }, {
          "url": "ombCategory",
          "valueCoding": {
            "system": "urn:oid:2.16.840.1.113883.6.238",
            "code": "2186-5",
            "display": "Not Hispanic or Latino"
          }
        } ]
      } ],
      "identifier": [ {
        "use": "official",
        "system": "urn:oid:1.3.6.1.4.1.22812.11.0.100610",
        "value": "101693"
      } ],
      "name": [ {
        "use": "usual",
        "family": "Kidd",
        "given": [ "Kari", "CCDA" ]
      } ],
      "gender": "female",
      "birthDate": "2000-10-22",
      "communication": [ {
        "language": {
          "coding": [ {
            "system": "urn:ietf:bcp:47",
            "code": "eng"
          } ]
        },
        "preferred": true
      } ],
      "managingOrganization": {
        "reference": "Organization/5b4babdc-4802-4dcd-acd8-3420dc28eecd",
        "display": "Family Practice Clinic S2V"
      }
    }
  }, {
    "resource": {
      "resourceType": "Organization",
      "id": "5b4babdc-4802-4dcd-acd8-3420dc28eecd",
      "identifier": [ {
        "use": "official",
        "system": "urn:oid:1.3.6.1.4.1.22812.11.0.100610",
        "value": "100610"
      } ],
      "name": "Family Practice Clinic S2V",
      "telecom": [ {
        "system": "phone",
        "value": "+1-(555)777-0"
      } ],
      "address": [ {
        "line": [ "1230 West Boulevard", "Building 1" ],
        "city": "Harrisburg",
        "postalCode": "17102",
        "country": "US"
      } ]
    }
  }, {
    "resource": {
      "resourceType": "Practitioner",
      "id": "7a703673-ceb5-4f4d-9c0a-9f7fc0946aa9",
      "identifier": [ {
        "use": "official",
        "system": "urn:oid:2.16.840.1.113883.4.6",
        "value": "1177234592"
      }, {
        "use": "official",
        "system": "urn:oid:1.3.6.1.4.1.22812.11.0.100610",
        "value": "90501190"
      } ],
      "name": [ {
        "family": "Dixon",
        "given": [ "George" ]
      } ],
      "telecom": [ {
        "system": "email",
        "value": "gddd@gmail.com"
      } ],
      "address": [ {
        "line": [ "545 CapeMay" ],
        "city": "Philadelphia"
      } ]
    }
  }, {
    "resource": {
      "resourceType": "Device",
      "id": "5464a5e1-8960-4082-9450-d06bbe188931",
      "identifier": [ {
        "use": "official",
        "system": "urn:oid:1.3.6.1.4.1.22812.11.0.100610.3.3",
        "value": "100610"
      } ],
      "manufacturer": "Sunrise Clinical Manager ",
      "type": {
        "coding": [ {
          "display": "Sunrise Clinical Manager "
        } ]
      },
      "version": [ {
        "value": "Sunrise Clinical Manager ; Transform 4.1.1.17"
      } ],
      "owner": {
        "reference": "Organization/5b4babdc-4802-4dcd-acd8-3420dc28eecd"
      }
    }
  }, {
    "resource": {
      "resourceType": "Practitioner",
      "id": "1c794dff-b37d-4bcc-92ae-15d87c76953b",
      "identifier": [ {
        "use": "official",
        "system": "http://hl7.org/fhir/sid/us-npi",
        "value": "2097459947"
      } ],
      "name": [ {
        "family": "Kidder",
        "given": [ "Karen" ]
      } ],
      "telecom": [ {
        "system": "phone",
        "value": "+1-(555)555-1046",
        "use": "work"
      }, {
        "system": "email",
        "value": "Karen.Kidder@direct.medalliesdirect.com"
      } ],
      "address": [ {
        "use": "work",
        "line": [ "1044 Healthcare Dr" ],
        "city": "Portland",
        "postalCode": "97005-1298",
        "country": "US"
      } ]
    }
  }, {
    "resource": {
      "resourceType": "ClinicalImpression",
      "id": "04ab6d9a-5273-49e6-9f11-745ddd6de297",
      "status": "completed",
      "code": {
        "coding": [ {
          "system": "http://loinc.org",
          "code": "51848-0",
          "display": "Assessments"
        } ]
      },
      "subject": {
        "reference": "Patient/8bf37a2f-a20a-4bc5-bcb0-33a2e04f5c0f",
        "display": "Kari CCDA Kidd"
      }
    }
  }, {
    "resource": {
      "resourceType": "Immunization",
      "id": "04db282c-8d5f-4cb1-ae99-5c0e261bb04b",
      "identifier": [ {
        "use": "official",
        "system": "urn:oid:1.3.6.1.4.1.22812.11.0.100610.4.4",
        "value": "9856"
      } ],
      "status": "completed",
      "vaccineCode": {
        "coding": [ {
          "system": "http://www2a.cdc.gov/vaccines/iis/iisstandards/vaccines.asp?rpt=cvx",
          "code": "03",
          "display": "MMR"
        } ],
        "text": "MMR"
      },
      "patient": {
        "reference": "Patient/8bf37a2f-a20a-4bc5-bcb0-33a2e04f5c0f",
        "display": "Kari CCDA Kidd"
      },
      "occurrenceDateTime": "2011-03-12",
      "primarySource": true,
      "manufacturer": {
        "reference": "Organization/4abd9b2b-80e4-4ef7-9ec7-cf0bac432db9",
        "display": "Merck &Co., Inc."
      },
      "lotNumber": "ZT74378B",
      "route": {
        "coding": [ {
          "system": "http://www.nlm.nih.gov/research/umls/nci",
          "code": "C28161",
          "display": "INTRAMUSCULAR"
        } ]
      },
      "doseQuantity": {
        "value": 0.2500,
        "unit": "milliLiter(s)",
        "system": "http://unitsofmeasure.org/ucum.html"
      },
      "performer": [ {
        "function": {
          "coding": [ {
            "system": "http://hl7.org/fhir/v2/0443",
            "code": "AP",
            "display": "Administering Provider"
          } ]
        },
        "actor": {
          "reference": "Practitioner/1c71ac54-fff5-4d8a-917c-81a09060d2e9",
          "display": "Nancy Nightingale"
        }
      } ]
    }
  }, {
    "resource": {
      "resourceType": "Organization",
      "id": "4abd9b2b-80e4-4ef7-9ec7-cf0bac432db9",
      "name": "Merck &Co., Inc."
    }
  }, {
    "resource": {
      "resourceType": "Practitioner",
      "id": "1c71ac54-fff5-4d8a-917c-81a09060d2e9",
      "identifier": [ {
        "use": "official",
        "system": "http://hl7.org/fhir/sid/us-npi",
        "value": "1276903451"
      } ],
      "name": [ {
        "family": "Nightingale",
        "given": [ "Nancy" ]
      } ],
      "telecom": [ {
        "system": "email",
        "value": "Nancy.Nightingale@direct.medalliesdirect.com"
      } ],
      "address": [ {
        "line": [ "1004 Healthcare Dr" ],
        "city": "Portland",
        "postalCode": "97005-0000"
      } ]
    }
  }, {
    "resource": {
      "resourceType": "AllergyIntolerance",
      "id": "95f2d0ee-8b9e-4ceb-a85d-9459f417c487",
      "identifier": [ {
        "use": "official",
        "system": "urn:oid:1.3.6.1.4.1.22812.11.0.100610.4.10",
        "value": "37900060"
      } ],
      "clinicalStatus": {
        "coding": [ {
          "system": "http://terminology.hl7.org/CodeSystem/allergyintolerance-clinical",
          "code": "active",
          "display": "Active"
        } ]
      },
      "verificationStatus": {
        "coding": [ {
          "system": "http://terminology.hl7.org/CodeSystem/allergyintolerance-verification",
          "code": "confirmed",
          "display": "Confirmed"
        } ]
      },
      "type": "allergy",
      "category": [ "medication" ],
      "code": {
        "coding": [ {
          "system": "http://www.nlm.nih.gov/research/umls/rxnorm",
          "code": "7982",
          "display": "penicillin G benzathine"
        } ],
        "text": "penicillin G benzathine"
      },
      "patient": {
        "reference": "Patient/8bf37a2f-a20a-4bc5-bcb0-33a2e04f5c0f",
        "display": "Kari CCDA Kidd"
      },
      "recorder": {
        "reference": "Practitioner/56fa234a-f929-4c8f-88fe-f8a02a0bef63"
      },
      "reaction": [ {
        "manifestation": [ {
          "text": "Hives"
        } ]
      } ]
    }
  }, {
    "resource": {
      "resourceType": "Practitioner",
      "id": "56fa234a-f929-4c8f-88fe-f8a02a0bef63"
    }
  }, {
    "resource": {
      "resourceType": "CarePlan",
      "id": "729fc34f-f929-4b2c-bf22-3d9c81203976",
      "text": {
        "status": "additional",
        "div": "<div xmlns=\"http://www.w3.org/1999/xhtml\">            <ul>              <caption>Instructions</caption>              <li>                <span>                  <span>resources and instructions provided during visit</span>                </span>              </li>            </ul>            <ul>              <caption>Planned Acts</caption>              <li>                <table>                  <thead>                    <tr>                      <th>Name</th>                      <th>Dates</th>                      <th>Details</th>                    </tr>                  </thead>                  <tbody>                    <tr>                      <td>                        <span>                          <span>                            <span>Asthma Management</span>                          </span>                        </span>                      </td>                      <td/>                      <td>                        <span>                          <span>Intent</span>                        </span>                      </td>                    </tr>                  </tbody>                </table>              </li>            </ul>            <ul>              <caption>Planned Observations</caption>              <li>                <table>                  <thead>                    <tr>                      <th>Name</th>                      <th>Dates</th>                      <th>Details</th>                    </tr>                  </thead>                  <tbody>                    <tr>                      <td>                        <span>                          <span>                            <span>Plan Of Care Entry excluded/not available</span>                          </span>                        </span>                      </td>                      <td/>                      <td>                        <span>                          <span>Goal</span>                        </span>                      </td>                    </tr>                  </tbody>                </table>              </li>            </ul>          </div>"
      },
      "status": "active",
      "intent": "plan",
      "category": [ {
        "coding": [ {
          "system": "http://hl7.org/fhir/us/core/CodeSystem/careplan-category",
          "code": "assess-plan"
        } ]
      } ],
      "title": "Plan of Care",
      "description": "<div>            <ul>              <caption>Instructions</caption>              <li>                <span>                  <span>resources and instructions provided during visit</span>                </span>              </li>            </ul>            <ul>              <caption>Planned Acts</caption>              <li>                <table>                  <thead>                    <tr>                      <th>Name</th>                      <th>Dates</th>                      <th>Details</th>                    </tr>                  </thead>                  <tbody>                    <tr>                      <td>                        <span>                          <span>                            <span>Asthma Management</span>                          </span>                        </span>                      </td>                      <td></td>                      <td>                        <span>                          <span>Intent</span>                        </span>                      </td>                    </tr>                  </tbody>                </table>              </li>            </ul>            <ul>              <caption>Planned Observations</caption>              <li>                <table>                  <thead>                    <tr>                      <th>Name</th>                      <th>Dates</th>                      <th>Details</th>                    </tr>                  </thead>                  <tbody>                    <tr>                      <td>                        <span>                          <span>                            <span>Plan Of Care Entry excluded/not available</span>                          </span>                        </span>                      </td>                      <td></td>                      <td>                        <span>                          <span>Goal</span>                        </span>                      </td>                    </tr>                  </tbody>                </table>              </li>            </ul>          </div>",
      "subject": {
        "reference": "Patient/8bf37a2f-a20a-4bc5-bcb0-33a2e04f5c0f",
        "display": "Kari CCDA Kidd"
      },
      "activity": [ {
        "reference": {
          "reference": "ServiceRequest/55e980f0-ab38-4f93-b911-b8855cb13dba",
          "display": "Asthma Management"
        }
      } ]
    }
  }, {
    "resource": {
      "resourceType": "ServiceRequest",
      "id": "55e980f0-ab38-4f93-b911-b8855cb13dba",
      "text": {
        "status": "additional",
        "div": "<div xmlns=\"http://www.w3.org/1999/xhtml\">Asthma Management</div>"
      },
      "identifier": [ {
        "use": "official",
        "system": "urn:oid:1.3.6.1.4.1.22812.11.0.100610.4.13.1",
        "value": "INT"
      } ],
      "status": "active",
      "intent": "plan",
      "code": {
        "coding": [ {
          "system": "http://snomed.info/sct",
          "code": "406162001",
          "display": "Asthma Management"
        } ]
      },
      "subject": {
        "reference": "Patient/8bf37a2f-a20a-4bc5-bcb0-33a2e04f5c0f",
        "display": "Kari CCDA Kidd"
      }
    }
  }, {
    "resource": {
      "resourceType": "Observation",
      "id": "38aa2a6c-52f9-4b10-8929-df2a057a45da",
      "status": "final",
      "code": {
        "coding": [ {
          "system": "urn:oid:2.16.840.1.113883.5.4",
          "code": "ASSERTION",
          "display": "Assertion"
        } ]
      },
      "subject": {
        "reference": "Patient/8bf37a2f-a20a-4bc5-bcb0-33a2e04f5c0f",
        "display": "Kari CCDA Kidd"
      },
      "valueCodeableConcept": {
        "coding": [ {
          "system": "http://snomed.info/sct",
          "code": "266919005",
          "display": "Never smoker"
        } ]
      }
    }
  }, {
    "resource": {
      "resourceType": "Observation",
      "id": "0bb26086-31a9-4c60-8590-a0fd88033ba6",
      "status": "final",
      "code": {
        "coding": [ {
          "system": "urn:oid:2.16.840.1.113883.5.4",
          "code": "ASSERTION",
          "display": "Assertion"
        } ]
      },
      "subject": {
        "reference": "Patient/8bf37a2f-a20a-4bc5-bcb0-33a2e04f5c0f",
        "display": "Kari CCDA Kidd"
      },
      "valueCodeableConcept": {
        "coding": [ {
          "system": "http://snomed.info/sct",
          "code": "266927001",
          "display": "Unknown if ever smoked"
        } ]
      }
    }
  }, {
    "resource": {
      "resourceType": "Observation",
      "id": "8ab72dfc-5666-4ef7-bdce-80122410cb18",
      "status": "final",
      "code": {
        "coding": [ {
          "system": "urn:oid:2.16.840.1.113883.5.4",
          "code": "ASSERTION",
          "display": "Assertion"
        } ]
      },
      "subject": {
        "reference": "Patient/8bf37a2f-a20a-4bc5-bcb0-33a2e04f5c0f",
        "display": "Kari CCDA Kidd"
      },
      "valueCodeableConcept": {
        "coding": [ {
          "system": "http://snomed.info/sct",
          "code": "8517006",
          "display": "Former smoker"
        } ]
      }
    }
  }, {
    "resource": {
      "resourceType": "Condition",
      "id": "e98121d0-7f95-42f0-9c13-bf52ac51575c",
      "identifier": [ {
        "use": "official",
        "system": "urn:oid:1.3.6.1.4.1.22812.11.0.100610.4.1.2.1",
        "value": "829900500"
      } ],
      "clinicalStatus": {
        "coding": [ {
          "system": "http://terminology.hl7.org/CodeSystem/condition-clinical",
          "code": "active",
          "display": "Active"
        } ]
      },
      "verificationStatus": {
        "coding": [ {
          "system": "http://terminology.hl7.org/CodeSystem/condition-ver-status",
          "code": "refuted",
          "display": "Refuted"
        } ]
      },
      "category": [ {
        "coding": [ {
          "system": "http://terminology.hl7.org/CodeSystem/condition-category",
          "code": "problem-list-item",
          "display": "Problem List Item"
        } ]
      } ],
      "code": {
        "coding": [ {
          "system": "http://snomed.info/sct",
          "code": "95891005",
          "display": "Flu-like symptoms"
        }, {
          "system": "urn:oid:2.16.840.1.113883.6.103",
          "code": "487.1",
          "display": "Flu-like symptoms"
        }, {
          "system": "urn:oid:2.16.840.1.113883.6.90",
          "code": "J11.1",
          "display": "Flu-like symptoms"
        } ],
        "text": "Flu-like symptoms"
      },
      "subject": {
        "reference": "Patient/8bf37a2f-a20a-4bc5-bcb0-33a2e04f5c0f",
        "display": "Kari CCDA Kidd"
      },
      "recordedDate": "2013-05-21T13:01:09+02:00",
      "asserter": {
        "reference": "Practitioner/b27f9819-271b-4794-a93e-b7679848bbae"
      }
    }
  }, {
    "resource": {
      "resourceType": "Practitioner",
      "id": "b27f9819-271b-4794-a93e-b7679848bbae"
    }
  }, {
    "resource": {
      "resourceType": "Condition",
      "id": "1e281776-79ca-4237-b456-47c71aa754c7",
      "identifier": [ {
        "use": "official",
        "system": "urn:oid:1.3.6.1.4.1.22812.11.0.100610.4.1.2.1",
        "value": "830000500"
      } ],
      "clinicalStatus": {
        "coding": [ {
          "system": "http://terminology.hl7.org/CodeSystem/condition-clinical",
          "code": "active",
          "display": "Active"
        } ]
      },
      "verificationStatus": {
        "coding": [ {
          "system": "http://terminology.hl7.org/CodeSystem/condition-ver-status",
          "code": "refuted",
          "display": "Refuted"
        } ]
      },
      "category": [ {
        "coding": [ {
          "system": "http://terminology.hl7.org/CodeSystem/condition-category",
          "code": "problem-list-item",
          "display": "Problem List Item"
        } ]
      } ],
      "code": {
        "coding": [ {
          "system": "http://snomed.info/sct",
          "code": "95891005",
          "display": "Flu-like symptoms"
        }, {
          "system": "urn:oid:2.16.840.1.113883.6.103",
          "code": "487.1",
          "display": "Flu-like symptoms"
        }, {
          "system": "urn:oid:2.16.840.1.113883.6.90",
          "code": "J11.1",
          "display": "Flu-like symptoms"
        } ],
        "text": "Flu-like symptoms"
      },
      "subject": {
        "reference": "Patient/8bf37a2f-a20a-4bc5-bcb0-33a2e04f5c0f",
        "display": "Kari CCDA Kidd"
      },
      "onsetDateTime": "2013-05-13",
      "recordedDate": "2013-05-21T13:01:13+02:00",
      "asserter": {
        "reference": "Practitioner/8b3c01b5-852d-4476-a110-fe5c2a2f618b"
      }
    }
  }, {
    "resource": {
      "resourceType": "Practitioner",
      "id": "8b3c01b5-852d-4476-a110-fe5c2a2f618b"
    }
  }, {
    "resource": {
      "resourceType": "Condition",
      "id": "674b2a50-c472-4db1-b245-183948de46a9",
      "identifier": [ {
        "use": "official",
        "system": "urn:oid:1.3.6.1.4.1.22812.11.0.100610.4.1.2.1",
        "value": "829800500"
      } ],
      "clinicalStatus": {
        "coding": [ {
          "system": "http://terminology.hl7.org/CodeSystem/condition-clinical",
          "code": "active",
          "display": "Active"
        } ]
      },
      "verificationStatus": {
        "coding": [ {
          "system": "http://terminology.hl7.org/CodeSystem/condition-ver-status",
          "code": "refuted",
          "display": "Refuted"
        } ]
      },
      "category": [ {
        "coding": [ {
          "system": "http://terminology.hl7.org/CodeSystem/condition-category",
          "code": "problem-list-item",
          "display": "Problem List Item"
        } ]
      } ],
      "code": {
        "coding": [ {
          "system": "http://snomed.info/sct",
          "code": "195967001",
          "display": "Asthma"
        }, {
          "system": "urn:oid:2.16.840.1.113883.6.103",
          "code": "493.90",
          "display": "Asthma"
        }, {
          "system": "urn:oid:2.16.840.1.113883.6.90",
          "code": "J45.909",
          "display": "Asthma"
        } ],
        "text": "Asthma"
      },
      "subject": {
        "reference": "Patient/8bf37a2f-a20a-4bc5-bcb0-33a2e04f5c0f",
        "display": "Kari CCDA Kidd"
      },
      "recordedDate": "2013-05-21T13:01:03+02:00",
      "asserter": {
        "reference": "Practitioner/6bb6d744-14d5-45c4-bb28-4d764835d7a1"
      }
    }
  }, {
    "resource": {
      "resourceType": "Practitioner",
      "id": "6bb6d744-14d5-45c4-bb28-4d764835d7a1"
    }
  }, {
    "resource": {
      "resourceType": "Condition",
      "id": "3cb0a25f-3825-4fc4-a017-771c3c70a4c6",
      "identifier": [ {
        "use": "official",
        "system": "urn:oid:1.3.6.1.4.1.22812.11.0.100610.4.1.2.1",
        "value": "735700500"
      } ],
      "clinicalStatus": {
        "coding": [ {
          "system": "http://terminology.hl7.org/CodeSystem/condition-clinical",
          "code": "active",
          "display": "Active"
        } ]
      },
      "verificationStatus": {
        "coding": [ {
          "system": "http://terminology.hl7.org/CodeSystem/condition-ver-status",
          "code": "refuted",
          "display": "Refuted"
        } ]
      },
      "category": [ {
        "coding": [ {
          "system": "http://terminology.hl7.org/CodeSystem/condition-category",
          "code": "problem-list-item",
          "display": "Problem List Item"
        } ]
      } ],
      "code": {
        "coding": [ {
          "system": "http://snomed.info/sct",
          "code": "195967001",
          "display": "Asthma"
        }, {
          "system": "urn:oid:2.16.840.1.113883.6.103",
          "code": "493.90",
          "display": "Asthma"
        }, {
          "system": "urn:oid:2.16.840.1.113883.6.90",
          "code": "J45.909",
          "display": "Asthma"
        } ],
        "text": "Asthma"
      },
      "subject": {
        "reference": "Patient/8bf37a2f-a20a-4bc5-bcb0-33a2e04f5c0f",
        "display": "Kari CCDA Kidd"
      },
      "onsetDateTime": "2011-03-12",
      "recordedDate": "2013-05-13T10:35:03+02:00",
      "asserter": {
        "reference": "Practitioner/fafcec71-30eb-4f8d-9dbd-81b8fb39d53a"
      }
    }
  }, {
    "resource": {
      "resourceType": "Practitioner",
      "id": "fafcec71-30eb-4f8d-9dbd-81b8fb39d53a"
    }
  }, {
    "resource": {
      "resourceType": "Condition",
      "id": "8929cc2b-da8b-41c5-8582-384368d17a94",
      "identifier": [ {
        "use": "official",
        "system": "urn:oid:1.3.6.1.4.1.22812.11.0.100610.4.1.2.1",
        "value": "871400500"
      } ],
      "clinicalStatus": {
        "coding": [ {
          "system": "http://terminology.hl7.org/CodeSystem/condition-clinical",
          "code": "active",
          "display": "Active"
        } ]
      },
      "verificationStatus": {
        "coding": [ {
          "system": "http://terminology.hl7.org/CodeSystem/condition-ver-status",
          "code": "refuted",
          "display": "Refuted"
        } ]
      },
      "category": [ {
        "coding": [ {
          "system": "http://terminology.hl7.org/CodeSystem/condition-category",
          "code": "problem-list-item",
          "display": "Problem List Item"
        } ]
      } ],
      "code": {
        "coding": [ {
          "system": "http://snomed.info/sct",
          "code": "61373006",
          "display": "Urinary tract infection, site not specified"
        }, {
          "system": "urn:oid:1.3.6.1.4.1.22812.18.9.2",
          "code": "N39.0",
          "display": "Urinary tract infection, site not specified"
        }, {
          "system": "urn:oid:2.16.840.1.113883.6.103",
          "code": "791.9",
          "display": "Urinary tract infection, site not specified"
        } ],
        "text": "Bacteriuria"
      },
      "subject": {
        "reference": "Patient/8bf37a2f-a20a-4bc5-bcb0-33a2e04f5c0f",
        "display": "Kari CCDA Kidd"
      },
      "recordedDate": "2013-05-28T14:29:30+02:00",
      "asserter": {
        "reference": "Practitioner/173afb00-2d97-4653-ab7d-8d336866fce8"
      }
    }
  }, {
    "resource": {
      "resourceType": "Practitioner",
      "id": "173afb00-2d97-4653-ab7d-8d336866fce8"
    }
  }, {
    "resource": {
      "resourceType": "Condition",
      "id": "3a8738be-25f8-457c-960c-21a06e7aed6a",
      "identifier": [ {
        "use": "official",
        "system": "urn:oid:1.3.6.1.4.1.22812.11.0.100610.4.1.2.1",
        "value": "962200500"
      } ],
      "clinicalStatus": {
        "coding": [ {
          "system": "http://terminology.hl7.org/CodeSystem/condition-clinical",
          "code": "active",
          "display": "Active"
        } ]
      },
      "verificationStatus": {
        "coding": [ {
          "system": "http://terminology.hl7.org/CodeSystem/condition-ver-status",
          "code": "refuted",
          "display": "Refuted"
        } ]
      },
      "category": [ {
        "coding": [ {
          "system": "http://terminology.hl7.org/CodeSystem/condition-category",
          "code": "problem-list-item",
          "display": "Problem List Item"
        } ]
      } ],
      "code": {
        "coding": [ {
          "system": "http://snomed.info/sct",
          "code": "78691002",
          "display": "Staggering gait"
        }, {
          "system": "urn:oid:2.16.840.1.113883.6.103",
          "code": "781.2",
          "display": "Staggering gait"
        }, {
          "system": "urn:oid:2.16.840.1.113883.6.90",
          "code": "R26.0",
          "display": "Staggering gait"
        } ],
        "text": "Staggering gait"
      },
      "subject": {
        "reference": "Patient/8bf37a2f-a20a-4bc5-bcb0-33a2e04f5c0f",
        "display": "Kari CCDA Kidd"
      },
      "recordedDate": "2013-06-10T17:53:00+02:00",
      "asserter": {
        "reference": "Practitioner/73e4d71a-13de-4f9f-bd10-e27202f4b3ce"
      }
    }
  }, {
    "resource": {
      "resourceType": "Practitioner",
      "id": "73e4d71a-13de-4f9f-bd10-e27202f4b3ce"
    }
  }, {
    "resource": {
      "resourceType": "Procedure",
      "id": "e86ae90c-47c9-48cc-a6b2-d7510da75245",
      "identifier": [ {
        "use": "official",
        "system": "urn:oid:1.3.6.1.4.1.22812.11.0.100610.4.7",
        "value": "1898101"
      } ],
      "status": "in-progress",
      "subject": {
        "reference": "Patient/8bf37a2f-a20a-4bc5-bcb0-33a2e04f5c0f",
        "display": "Kari CCDA Kidd"
      }
    }
  }, {
    "resource": {
      "resourceType": "DiagnosticReport",
      "id": "c60c2d32-898a-4ce6-9d83-41bb1784357f",
      "identifier": [ {
        "use": "official",
        "system": "urn:oid:1.3.6.1.4.1.22812.11.0.100610.4.5",
        "value": "12903100680"
      } ],
      "status": "final",
      "category": [ {
        "coding": [ {
          "system": "http://terminology.hl7.org/CodeSystem/v2-0074",
          "code": "LAB",
          "display": "Laboratory"
        } ]
      } ],
      "code": {
        "coding": [ {
          "system": "http://loinc.org",
          "code": "30313-1",
          "display": "Hemoglobin A, Serum"
        } ]
      },
      "subject": {
        "reference": "Patient/8bf37a2f-a20a-4bc5-bcb0-33a2e04f5c0f",
        "display": "Kari CCDA Kidd"
      },
      "effectivePeriod": {
        "start": "2013-05-13T15:43:02+02:00"
      },
      "issued": "2013-05-13T15:43:02.000+02:00",
      "performer": [ {
        "reference": "Practitioner/baf8dae5-7a92-432e-9979-f8b06ab4b7b7"
      } ],
      "result": [ {
        "reference": "Observation/130b3dcf-8d98-43aa-aaf6-fbca99eea412",
        "display": "Hemoglobin A, Serum"
      } ]
    }
  }, {
    "resource": {
      "resourceType": "Practitioner",
      "id": "baf8dae5-7a92-432e-9979-f8b06ab4b7b7"
    }
  }, {
    "resource": {
      "resourceType": "Observation",
      "id": "130b3dcf-8d98-43aa-aaf6-fbca99eea412",
      "identifier": [ {
        "use": "official",
        "system": "urn:oid:1.3.6.1.4.1.22812.11.0.100610.4.5",
        "value": "287300070"
      } ],
      "status": "final",
      "category": [ {
        "coding": [ {
          "system": "http://terminology.hl7.org/CodeSystem/observation-category",
          "code": "laboratory"
        } ]
      } ],
      "code": {
        "coding": [ {
          "system": "http://loinc.org",
          "code": "30313-1",
          "display": "Hemoglobin A, Serum"
        } ]
      },
      "subject": {
        "reference": "Patient/8bf37a2f-a20a-4bc5-bcb0-33a2e04f5c0f",
        "display": "Kari CCDA Kidd"
      },
      "effectivePeriod": {
        "start": "2013-05-13T15:43:02+02:00"
      },
      "valueQuantity": {
        "value": 16,
        "unit": "g/dl",
        "system": "http://unitsofmeasure.org",
        "code": "g/dl"
      },
      "interpretation": [ {
        "coding": [ {
          "system": "http://terminology.hl7.org/CodeSystem/v3-ObservationInterpretation"
        } ]
      } ],
      "referenceRange": [ {
        "text": "13.5 - 18.0 g/dl"
      } ]
    }
  }, {
    "resource": {
      "resourceType": "DiagnosticReport",
      "id": "143f4e3e-a0ba-4d5a-b6b4-f03cd41e6699",
      "identifier": [ {
        "use": "official",
        "system": "urn:oid:1.3.6.1.4.1.22812.11.0.100610.4.5",
        "value": "12903300680"
      } ],
      "status": "final",
      "category": [ {
        "coding": [ {
          "system": "http://terminology.hl7.org/CodeSystem/v2-0074",
          "code": "LAB",
          "display": "Laboratory"
        } ]
      } ],
      "code": {
        "coding": [ {
          "system": "http://loinc.org",
          "code": "20570-8",
          "display": "Hematocrit, Whole Blood"
        } ]
      },
      "subject": {
        "reference": "Patient/8bf37a2f-a20a-4bc5-bcb0-33a2e04f5c0f",
        "display": "Kari CCDA Kidd"
      },
      "effectivePeriod": {
        "start": "2013-05-13T15:34:13+02:00"
      },
      "issued": "2013-05-13T15:34:13.000+02:00",
      "performer": [ {
        "reference": "Practitioner/a1d3f4ef-251a-4cec-baee-5f175bea0bbe"
      } ],
      "result": [ {
        "reference": "Observation/73b844a5-034d-4098-bad0-e65bb6d9d7e9",
        "display": "Hematocrit, Whole Blood"
      } ]
    }
  }, {
    "resource": {
      "resourceType": "Practitioner",
      "id": "a1d3f4ef-251a-4cec-baee-5f175bea0bbe"
    }
  }, {
    "resource": {
      "resourceType": "Observation",
      "id": "73b844a5-034d-4098-bad0-e65bb6d9d7e9",
      "identifier": [ {
        "use": "official",
        "system": "urn:oid:1.3.6.1.4.1.22812.11.0.100610.4.5",
        "value": "287200070"
      } ],
      "status": "final",
      "category": [ {
        "coding": [ {
          "system": "http://terminology.hl7.org/CodeSystem/observation-category",
          "code": "laboratory"
        } ]
      } ],
      "code": {
        "coding": [ {
          "system": "http://loinc.org",
          "code": "20570-8",
          "display": "Hematocrit, Whole Blood"
        } ]
      },
      "subject": {
        "reference": "Patient/8bf37a2f-a20a-4bc5-bcb0-33a2e04f5c0f",
        "display": "Kari CCDA Kidd"
      },
      "effectivePeriod": {
        "start": "2013-05-13T15:34:13+02:00"
      },
      "valueQuantity": {
        "value": 44,
        "unit": "%",
        "system": "http://unitsofmeasure.org",
        "code": "%"
      },
      "interpretation": [ {
        "coding": [ {
          "system": "http://terminology.hl7.org/CodeSystem/v3-ObservationInterpretation"
        } ]
      } ],
      "referenceRange": [ {
        "text": "41 - 53 %"
      } ]
    }
  }, {
    "resource": {
      "resourceType": "DiagnosticReport",
      "id": "7b8a56e5-63c1-44f4-9696-16f6fd9a8789",
      "identifier": [ {
        "use": "official",
        "system": "urn:oid:1.3.6.1.4.1.22812.11.0.100610.4.5",
        "value": "12905100680"
      } ],
      "status": "final",
      "category": [ {
        "coding": [ {
          "system": "http://terminology.hl7.org/CodeSystem/v2-0074",
          "code": "LAB",
          "display": "Laboratory"
        } ]
      } ],
      "code": {
        "coding": [ {
          "system": "http://loinc.org",
          "code": "26464-8",
          "display": "WBC Count"
        } ]
      },
      "subject": {
        "reference": "Patient/8bf37a2f-a20a-4bc5-bcb0-33a2e04f5c0f",
        "display": "Kari CCDA Kidd"
      },
      "effectivePeriod": {
        "start": "2013-05-13T15:33:31+02:00"
      },
      "issued": "2013-05-13T15:33:31.000+02:00",
      "performer": [ {
        "reference": "Practitioner/198051d7-4870-455d-85bf-adf4ae238a30"
      } ],
      "result": [ {
        "reference": "Observation/31578384-08cc-4b22-9dd1-5247c63670a4",
        "display": "WBC Count"
      } ]
    }
  }, {
    "resource": {
      "resourceType": "Practitioner",
      "id": "198051d7-4870-455d-85bf-adf4ae238a30"
    }
  }, {
    "resource": {
      "resourceType": "Observation",
      "id": "31578384-08cc-4b22-9dd1-5247c63670a4",
      "identifier": [ {
        "use": "official",
        "system": "urn:oid:1.3.6.1.4.1.22812.11.0.100610.4.5",
        "value": "287100070"
      } ],
      "status": "final",
      "category": [ {
        "coding": [ {
          "system": "http://terminology.hl7.org/CodeSystem/observation-category",
          "code": "laboratory"
        } ]
      } ],
      "code": {
        "coding": [ {
          "system": "http://loinc.org",
          "code": "26464-8",
          "display": "WBC Count"
        } ]
      },
      "subject": {
        "reference": "Patient/8bf37a2f-a20a-4bc5-bcb0-33a2e04f5c0f",
        "display": "Kari CCDA Kidd"
      },
      "effectivePeriod": {
        "start": "2013-05-13T15:33:31+02:00"
      },
      "valueQuantity": {
        "value": 6,
        "unit": "ul",
        "system": "http://unitsofmeasure.org",
        "code": "ul"
      },
      "interpretation": [ {
        "coding": [ {
          "system": "http://terminology.hl7.org/CodeSystem/v3-ObservationInterpretation"
        } ]
      } ],
      "referenceRange": [ {
        "text": "4.3 - 10.8 ul"
      } ]
    }
  }, {
    "resource": {
      "resourceType": "Encounter",
      "id": "d407b379-08cc-4fdb-92ed-b517a1152358",
      "identifier": [ {
        "use": "official",
        "system": "urn:oid:1.3.6.1.4.1.22812.11.0.100610.3.4",
        "value": "210300270"
      } ],
      "status": "finished",
      "type": [ {
        "coding": [ {
          "system": "urn:oid:2.16.840.1.113883.5.4"
        } ],
        "text": "Outpatient"
      } ],
      "subject": {
        "reference": "Patient/8bf37a2f-a20a-4bc5-bcb0-33a2e04f5c0f",
        "display": "Kari CCDA Kidd"
      },
      "participant": [ {
        "type": [ {
          "coding": [ {
            "system": "http://terminology.hl7.org/CodeSystem/v3-ParticipationType",
            "code": "PART",
            "display": "Participation"
          } ]
        } ],
        "period": {
          "start": "2013-05-13T15:01:00+02:00",
          "end": "0001-01-01T00:00:00+01:00"
        },
        "individual": {
          "reference": "Practitioner/1c794dff-b37d-4bcc-92ae-15d87c76953b",
          "display": "Karen Kidder"
        }
      } ],
      "period": {
        "start": "2013-05-13T15:01:00+02:00",
        "end": "0001-01-01T00:00:00+01:00"
      },
      "diagnosis": [ {
        "condition": {
          "reference": "Condition/3b40c1b2-113a-42de-8e3a-a6cc5c5dcc01",
          "display": "Asthma"
        }
      }, {
        "condition": {
          "reference": "Condition/444e3f7f-1857-4294-a454-d9a6aa8cfc1a",
          "display": "Flu-like symptoms"
        }
      }, {
        "condition": {
          "reference": "Condition/e27f2456-f877-4c7a-850b-23bae78bb1e3",
          "display": "Flu-like symptoms"
        }
      } ],
      "location": [ {
        "location": {
          "reference": "Location/7946b56c-e428-4e17-b9d1-c91ee31c71d9",
          "display": "Family Practice Clinic S2V"
        }
      } ]
    }
  }, {
    "resource": {
      "resourceType": "Condition",
      "id": "3b40c1b2-113a-42de-8e3a-a6cc5c5dcc01",
      "identifier": [ {
        "use": "official",
        "system": "urn:oid:1.3.6.1.4.1.22812.11.0.100610.4.1.2.1",
        "value": "739700500"
      } ],
      "clinicalStatus": {
        "coding": [ {
          "system": "http://terminology.hl7.org/CodeSystem/condition-clinical",
          "code": "active",
          "display": "Active"
        } ]
      },
      "verificationStatus": {
        "coding": [ {
          "system": "http://terminology.hl7.org/CodeSystem/condition-ver-status",
          "code": "confirmed",
          "display": "Confirmed"
        } ]
      },
      "category": [ {
        "coding": [ {
          "system": "http://terminology.hl7.org/CodeSystem/condition-category",
          "code": "problem-list-item",
          "display": "Problem List Item"
        } ]
      } ],
      "code": {
        "text": "Asthma"
      },
      "subject": {
        "reference": "Patient/8bf37a2f-a20a-4bc5-bcb0-33a2e04f5c0f",
        "display": "Kari CCDA Kidd"
      },
      "recordedDate": "2013-05-13T15:05:16+02:00",
      "asserter": {
        "reference": "Practitioner/1ba80f38-d1ed-4abf-9c33-065f02a855cf"
      }
    }
  }, {
    "resource": {
      "resourceType": "Practitioner",
      "id": "1ba80f38-d1ed-4abf-9c33-065f02a855cf"
    }
  }, {
    "resource": {
      "resourceType": "Condition",
      "id": "444e3f7f-1857-4294-a454-d9a6aa8cfc1a",
      "identifier": [ {
        "use": "official",
        "system": "urn:oid:1.3.6.1.4.1.22812.11.0.100610.4.1.2.1",
        "value": "739600500"
      } ],
      "clinicalStatus": {
        "coding": [ {
          "system": "http://terminology.hl7.org/CodeSystem/condition-clinical",
          "code": "active",
          "display": "Active"
        } ]
      },
      "verificationStatus": {
        "coding": [ {
          "system": "http://terminology.hl7.org/CodeSystem/condition-ver-status",
          "code": "confirmed",
          "display": "Confirmed"
        } ]
      },
      "category": [ {
        "coding": [ {
          "system": "http://terminology.hl7.org/CodeSystem/condition-category",
          "code": "problem-list-item",
          "display": "Problem List Item"
        } ]
      } ],
      "code": {
        "text": "Flu-like symptoms"
      },
      "subject": {
        "reference": "Patient/8bf37a2f-a20a-4bc5-bcb0-33a2e04f5c0f",
        "display": "Kari CCDA Kidd"
      },
      "recordedDate": "2013-05-13T15:04:11+02:00",
      "asserter": {
        "reference": "Practitioner/4d8751ab-22bb-4751-a43f-9914caa7798b"
      }
    }
  }, {
    "resource": {
      "resourceType": "Practitioner",
      "id": "4d8751ab-22bb-4751-a43f-9914caa7798b"
    }
  }, {
    "resource": {
      "resourceType": "Condition",
      "id": "e27f2456-f877-4c7a-850b-23bae78bb1e3",
      "identifier": [ {
        "use": "official",
        "system": "urn:oid:1.3.6.1.4.1.22812.11.0.100610.4.1.2.1",
        "value": "739800500"
      } ],
      "clinicalStatus": {
        "coding": [ {
          "system": "http://terminology.hl7.org/CodeSystem/condition-clinical",
          "code": "active",
          "display": "Active"
        } ]
      },
      "verificationStatus": {
        "coding": [ {
          "system": "http://terminology.hl7.org/CodeSystem/condition-ver-status",
          "code": "confirmed",
          "display": "Confirmed"
        } ]
      },
      "category": [ {
        "coding": [ {
          "system": "http://terminology.hl7.org/CodeSystem/condition-category",
          "code": "problem-list-item",
          "display": "Problem List Item"
        } ]
      } ],
      "code": {
        "text": "Flu-like symptoms"
      },
      "subject": {
        "reference": "Patient/8bf37a2f-a20a-4bc5-bcb0-33a2e04f5c0f",
        "display": "Kari CCDA Kidd"
      },
      "recordedDate": "2013-05-13T15:06:13+02:00",
      "asserter": {
        "reference": "Practitioner/2bebd7b3-17cc-4f54-9849-e38b2d7be915"
      }
    }
  }, {
    "resource": {
      "resourceType": "Practitioner",
      "id": "2bebd7b3-17cc-4f54-9849-e38b2d7be915"
    }
  }, {
    "resource": {
      "resourceType": "Location",
      "id": "7946b56c-e428-4e17-b9d1-c91ee31c71d9",
      "name": "Family Practice Clinic S2V"
    }
  }, {
    "resource": {
      "resourceType": "Encounter",
      "id": "f2e92be5-e662-49b4-a15f-52be86554f32",
      "identifier": [ {
        "use": "official",
        "system": "urn:oid:1.3.6.1.4.1.22812.11.0.100610.3.4",
        "value": "209500270"
      } ],
      "status": "finished",
      "type": [ {
        "coding": [ {
          "system": "urn:oid:2.16.840.1.113883.5.4"
        } ],
        "text": "Outpatient"
      } ],
      "subject": {
        "reference": "Patient/8bf37a2f-a20a-4bc5-bcb0-33a2e04f5c0f",
        "display": "Kari CCDA Kidd"
      },
      "participant": [ {
        "type": [ {
          "coding": [ {
            "system": "http://terminology.hl7.org/CodeSystem/v3-ParticipationType",
            "code": "PART",
            "display": "Participation"
          } ]
        } ],
        "period": {
          "start": "2010-04-15T10:13:00+02:00",
          "end": "2010-04-15T13:14:00+02:00"
        },
        "individual": {
          "reference": "Practitioner/1c794dff-b37d-4bcc-92ae-15d87c76953b",
          "display": "Karen Kidder"
        }
      } ],
      "period": {
        "start": "2010-04-15T10:13:00+02:00",
        "end": "2010-04-15T13:14:00+02:00"
      },
      "diagnosis": [ {
        "condition": {
          "reference": "Condition/7dae01ea-861a-4428-9279-2345e8dd49c8",
          "display": "Asthma"
        }
      }, {
        "condition": {
          "reference": "Condition/804ec520-86d0-4a73-88c2-b0a7a6894591",
          "display": "App adhesion barrier sub"
        }
      } ],
      "location": [ {
        "location": {
          "reference": "Location/4477dca1-e408-482a-9d5d-1e6e6d515b72"
        }
      } ]
    }
  }, {
    "resource": {
      "resourceType": "Condition",
      "id": "7dae01ea-861a-4428-9279-2345e8dd49c8",
      "identifier": [ {
        "use": "official",
        "system": "urn:oid:1.3.6.1.4.1.22812.11.0.100610.4.1.2.1",
        "value": "735600500"
      } ],
      "clinicalStatus": {
        "coding": [ {
          "system": "http://terminology.hl7.org/CodeSystem/condition-clinical",
          "code": "active",
          "display": "Active"
        } ]
      },
      "verificationStatus": {
        "coding": [ {
          "system": "http://terminology.hl7.org/CodeSystem/condition-ver-status",
          "code": "confirmed",
          "display": "Confirmed"
        } ]
      },
      "category": [ {
        "coding": [ {
          "system": "http://terminology.hl7.org/CodeSystem/condition-category",
          "code": "problem-list-item",
          "display": "Problem List Item"
        } ]
      } ],
      "code": {
        "text": "Asthma"
      },
      "subject": {
        "reference": "Patient/8bf37a2f-a20a-4bc5-bcb0-33a2e04f5c0f",
        "display": "Kari CCDA Kidd"
      },
      "recordedDate": "2013-05-13T10:25:19+02:00",
      "asserter": {
        "reference": "Practitioner/198129e5-6bf3-457c-ab66-e2e694d08868"
      }
    }
  }, {
    "resource": {
      "resourceType": "Practitioner",
      "id": "198129e5-6bf3-457c-ab66-e2e694d08868"
    }
  }, {
    "resource": {
      "resourceType": "Condition",
      "id": "804ec520-86d0-4a73-88c2-b0a7a6894591",
      "identifier": [ {
        "use": "official",
        "system": "urn:oid:1.3.6.1.4.1.22812.11.0.100610.4.1.2.1",
        "value": "870300500"
      } ],
      "clinicalStatus": {
        "coding": [ {
          "system": "http://terminology.hl7.org/CodeSystem/condition-clinical",
          "code": "active",
          "display": "Active"
        } ]
      },
      "verificationStatus": {
        "coding": [ {
          "system": "http://terminology.hl7.org/CodeSystem/condition-ver-status",
          "code": "confirmed",
          "display": "Confirmed"
        } ]
      },
      "category": [ {
        "coding": [ {
          "system": "http://terminology.hl7.org/CodeSystem/condition-category",
          "code": "problem-list-item",
          "display": "Problem List Item"
        } ]
      } ],
      "code": {
        "text": "App adhesion barrier sub"
      },
      "subject": {
        "reference": "Patient/8bf37a2f-a20a-4bc5-bcb0-33a2e04f5c0f",
        "display": "Kari CCDA Kidd"
      },
      "recordedDate": "2013-05-28T14:19:59+02:00",
      "asserter": {
        "reference": "Practitioner/b9549a15-29e7-4456-ac86-a1deb9bf7d87"
      }
    }
  }, {
    "resource": {
      "resourceType": "Practitioner",
      "id": "b9549a15-29e7-4456-ac86-a1deb9bf7d87"
    }
  }, {
    "resource": {
      "resourceType": "Location",
      "id": "4477dca1-e408-482a-9d5d-1e6e6d515b72"
    }
  }, {
    "resource": {
      "resourceType": "Encounter",
      "id": "8191e996-f8b8-4f6c-92b2-a73f248f0871",
      "identifier": [ {
        "use": "official",
        "system": "urn:oid:1.3.6.1.4.1.22812.11.0.100610.3.4",
        "value": "209600270"
      } ],
      "status": "finished",
      "type": [ {
        "coding": [ {
          "system": "urn:oid:2.16.840.1.113883.5.4"
        } ],
        "text": "Outpatient"
      } ],
      "subject": {
        "reference": "Patient/8bf37a2f-a20a-4bc5-bcb0-33a2e04f5c0f",
        "display": "Kari CCDA Kidd"
      },
      "participant": [ {
        "type": [ {
          "coding": [ {
            "system": "http://terminology.hl7.org/CodeSystem/v3-ParticipationType",
            "code": "PART",
            "display": "Participation"
          } ]
        } ],
        "period": {
          "start": "2011-03-12T10:32:00+01:00",
          "end": "2011-03-12T13:32:00+01:00"
        },
        "individual": {
          "reference": "Practitioner/1c794dff-b37d-4bcc-92ae-15d87c76953b",
          "display": "Karen Kidder"
        }
      } ],
      "period": {
        "start": "2011-03-12T10:32:00+01:00",
        "end": "2011-03-12T13:32:00+01:00"
      },
      "reasonReference": [ {
        "reference": "Condition/2e8e3538-b8f0-4978-ba25-653a2419b53a"
      } ],
      "diagnosis": [ {
        "condition": {
          "reference": "Condition/30cde015-7c2c-447b-89a4-c5e47a6e4c48",
          "display": "Prickly heat"
        }
      }, {
        "condition": {
          "reference": "Condition/3a8738be-25f8-457c-960c-21a06e7aed6a",
          "display": "Staggering gait"
        }
      }, {
        "condition": {
          "reference": "Condition/3cb0a25f-3825-4fc4-a017-771c3c70a4c6",
          "display": "Asthma"
        }
      }, {
        "condition": {
          "reference": "Condition/2ccd0eb0-1be1-48b7-982b-c3443ca1cd53",
          "display": "Schizophreniform disorder in remission"
        }
      } ],
      "location": [ {
        "location": {
          "reference": "Location/36b58398-f1a9-4de0-bcd7-d2d0920f7dd2"
        }
      } ]
    }
  }, {
    "resource": {
      "resourceType": "Condition",
      "id": "2e8e3538-b8f0-4978-ba25-653a2419b53a",
      "identifier": [ {
        "use": "official",
        "system": "urn:oid:1.3.6.1.4.1.22812.11.0.100610.4.1.3",
        "value": "963100500"
      } ],
      "clinicalStatus": {
        "coding": [ {
          "system": "http://terminology.hl7.org/CodeSystem/condition-clinical",
          "code": "active",
          "display": "Active"
        } ]
      },
      "category": [ {
        "coding": [ {
          "system": "http://hl7.org/fhir/condition-category",
          "code": "encounter-diagnosis",
          "display": "Encounter Diagnosis"
        } ]
      } ],
      "subject": {
        "reference": "Patient/8bf37a2f-a20a-4bc5-bcb0-33a2e04f5c0f",
        "display": "Kari CCDA Kidd"
      },
      "onsetDateTime": "2011-03-12T10:32:00+01:00"
    }
  }, {
    "resource": {
      "resourceType": "Condition",
      "id": "30cde015-7c2c-447b-89a4-c5e47a6e4c48",
      "identifier": [ {
        "use": "official",
        "system": "urn:oid:1.3.6.1.4.1.22812.11.0.100610.4.1.2.1",
        "value": "968400500"
      } ],
      "clinicalStatus": {
        "coding": [ {
          "system": "http://terminology.hl7.org/CodeSystem/condition-clinical",
          "code": "active",
          "display": "Active"
        } ]
      },
      "verificationStatus": {
        "coding": [ {
          "system": "http://terminology.hl7.org/CodeSystem/condition-ver-status",
          "code": "confirmed",
          "display": "Confirmed"
        } ]
      },
      "category": [ {
        "coding": [ {
          "system": "http://terminology.hl7.org/CodeSystem/condition-category",
          "code": "problem-list-item",
          "display": "Problem List Item"
        } ]
      } ],
      "code": {
        "text": "Prickly heat"
      },
      "subject": {
        "reference": "Patient/8bf37a2f-a20a-4bc5-bcb0-33a2e04f5c0f",
        "display": "Kari CCDA Kidd"
      },
      "recordedDate": "2013-06-11T02:53:13+02:00",
      "asserter": {
        "reference": "Practitioner/594000d0-1d96-42f4-a609-501a3be88b88"
      }
    }
  }, {
    "resource": {
      "resourceType": "Practitioner",
      "id": "594000d0-1d96-42f4-a609-501a3be88b88"
    }
  }, {
    "resource": {
      "resourceType": "Condition",
      "id": "2ccd0eb0-1be1-48b7-982b-c3443ca1cd53",
      "identifier": [ {
        "use": "official",
        "system": "urn:oid:1.3.6.1.4.1.22812.11.0.100610.4.1.2.1",
        "value": "964200500"
      } ],
      "clinicalStatus": {
        "coding": [ {
          "system": "http://terminology.hl7.org/CodeSystem/condition-clinical",
          "code": "active",
          "display": "Active"
        } ]
      },
      "verificationStatus": {
        "coding": [ {
          "system": "http://terminology.hl7.org/CodeSystem/condition-ver-status",
          "code": "confirmed",
          "display": "Confirmed"
        } ]
      },
      "category": [ {
        "coding": [ {
          "system": "http://terminology.hl7.org/CodeSystem/condition-category",
          "code": "problem-list-item",
          "display": "Problem List Item"
        } ]
      } ],
      "code": {
        "text": "Schizophreniform disorder in remission"
      },
      "subject": {
        "reference": "Patient/8bf37a2f-a20a-4bc5-bcb0-33a2e04f5c0f",
        "display": "Kari CCDA Kidd"
      },
      "recordedDate": "2013-06-11T02:42:56+02:00",
      "asserter": {
        "reference": "Practitioner/38907cfd-d5de-4521-9eaa-2d51a8fc3fdc"
      }
    }
  }, {
    "resource": {
      "resourceType": "Practitioner",
      "id": "38907cfd-d5de-4521-9eaa-2d51a8fc3fdc"
    }
  }, {
    "resource": {
      "resourceType": "Location",
      "id": "36b58398-f1a9-4de0-bcd7-d2d0920f7dd2"
    }
  } ]
}