{
  "resourceType": "Bundle",
  "entry": [ {
    "resource": {
      "resourceType": "Composition",
      "id": "20d530d7-9772-4d08-849d-e4cc8b1d247e",
      "identifier": {
        "use": "official",
        "system": "urn:oid:1.3.6.1.4.1.22812.11.0.100610.1",
        "value": "0"
      },
      "status": "preliminary",
      "type": {
        "coding": [ {
          "system": "http://loinc.org",
          "code": "34133-9",
          "display": "SUMMARIZATION OF EPISODE NOTE"
        } ]
      },
      "category": [ {
        "coding": [ {
          "system": "http://hl7.org/fhir/ValueSet/doc-classcodes",
          "code": "LP173421-7",
          "display": "Note"
        } ]
      } ],
      "subject": {
        "reference": "Patient/d55f8386-5fbc-4278-b297-703cacccbb20",
        "display": "Kari CCDA Kidd"
      },
      "date": "2013-06-17T12:04:08-04:00",
      "author": [ {
        "reference": "Practitioner/ea5146bc-dbd0-4b19-9f7e-dca5bcba8c77",
        "display": "George Dixon"
      }, {
        "reference": "Device/e90abf05-a3aa-4e6d-98e0-81b3c17976ef"
      } ],
      "title": "Visit Summary",
      "confidentiality": "N",
      "custodian": {
        "reference": "Organization/1343858d-5f57-4ee9-b5ed-47f14c46d147",
        "display": "Family Practice Clinic S2V"
      },
      "event": [ {
        "period": {
          "start": "2011-03-12T10:32:00+01:00",
          "end": "2011-03-12T13:32:00+01:00"
        },
        "detail": [ {
          "reference": "Practitioner/aea30570-ae1d-4169-8c31-95355a35f7a4",
          "display": "Karen Kidder"
        } ]
      } ],
      "section": [ {
        "title": "Medications",
        "code": {
          "coding": [ {
            "system": "http://loinc.org",
            "code": "10160-0",
            "display": "History of medication use"
          } ]
        },
        "text": {
          "status": "additional",
          "div": "<div xmlns=\"http://www.w3.org/1999/xhtml\">            <table>              <thead>                <tr>                  <th>Name</th>                  <th>Dates</th>                  <th>Details</th>                </tr>              </thead>              <tbody>                <tr>                  <td>                    <span>                      <span>oseltamivir 30 mg oral capsule</span>                    </span>                    <span>                      <br/>                    </span>                    <span>                      <span>                        <span>1 cap(s) orally every 12 hours until all consumed</span>                      </span>                    </span>                    <span>                      <br/>                    </span>                    <ul>                      <li>                        <table>                          <tbody>                            <tr>                              <td>                                <span> Quantity: </span>                                <span>                                  <span>0</span>                                </span>                              </td>                              <td>                                <span> Refills: </span>                                <span>                                  <span>0</span>                                </span>                              </td>                            </tr>                          </tbody>                        </table>                      </li>                    </ul>                    <span>                      <br/>                    </span>                    <span>                      <span>                        <span>                        </span>                      </span>                    </span>                  </td>                  <td/>                  <td>                    <ul>                      <li>                        <table>                          <tbody>                            <tr>                              <td>                                <span> Started </span>13-May-2013</td>                            </tr>                          </tbody>                        </table>                      </li>                    </ul>                    <span>                      <span/>                      <span>Active</span>                    </span>                    <span>                      <span>                      </span>                    </span>                    <span>                      <br/>                    </span>                  </td>                </tr>                <tr>                  <td>                    <span>                      <span>Proventil HFA CFC free 90 mcg/inh inhalation aerosol</span>                    </span>                    <span>                      <br/>                    </span>                    <span>                      <span>                        <span>2 puff(s) inhaled 4 times a day, As Needed for wheezing</span>                      </span>                    </span>                    <span>                      <br/>                    </span>                    <ul>                      <li>                        <table>                          <tbody>                            <tr>                              <td>                                <span> Quantity: </span>                                <span>                                  <span>0</span>                                </span>                              </td>                              <td>                                <span> Refills: </span>                                <span>                                  <span>0</span>                                </span>                              </td>                            </tr>                          </tbody>                        </table>                      </li>                    </ul>                    <span>                      <br/>                    </span>                    <span>                      <span>                        <span>                        </span>                      </span>                    </span>                  </td>                  <td/>                  <td>                    <ul>                      <li>                        <table>                          <tbody>                            <tr>                              <td>                                <span> Started </span>13-Apr-2011</td>                            </tr>                          </tbody>                        </table>                      </li>                    </ul>                    <span>                      <span/>                      <span>Active</span>                    </span>                    <span>                      <span>                      </span>                    </span>                    <span>                      <br/>                    </span>                  </td>                </tr>              </tbody>            </table>          </div>"
        },
        "mode": "snapshot"
      }, {
        "title": "Encounters",
        "code": {
          "coding": [ {
            "system": "http://loinc.org",
            "code": "46240-8",
            "display": "Encounters"
          } ]
        },
        "text": {
          "status": "additional",
          "div": "<div xmlns=\"http://www.w3.org/1999/xhtml\">            <table>              <tbody>                <tr>                  <td>                    <span>                      <span>Outpatient</span>                    </span>                    <span>                      <br/>                    </span>                    <span>                      <span>Encounter Diagnosis: </span>                      <span>Flu-like symptoms</span>                      <span>, </span>                      <span>Asthma</span>                      <span>, </span>                      <span>Flu-like symptoms</span>                    </span>                    <span>                      <span>                      </span>                      <span>                      </span>                      <span>                      </span>                      <span>                        <span>Active</span>                      </span>                      <span>                        <span>Active</span>                      </span>                      <span>                        <span>Active</span>                      </span>                    </span>                    <span>                      <span>Family Practice Clinic S2V</span>                    </span>                    <span>                      <br/>                    </span>                    <span>                      <br/>                    </span>                    <span>                      <span> Kidder</span>, Karen </span>                  </td>                  <td>                    <span>                      <span>13-May-2013</span>                      <span> to </span>                      <span>1-Jan-0001</span>                    </span>                  </td>                </tr>                <tr>                  <td>                    <span>                      <span>Outpatient</span>                    </span>                    <span>                      <br/>                    </span>                    <span>                      <span>Encounter Reason: </span>                      <span>Admitting Dx added manually</span>                    </span>                    <span>                      <span>Encounter Diagnosis: </span>                      <span>Asthma</span>                      <span>, </span>                      <span>Staggering gait</span>                      <span>, </span>                      <span>Prickly heat</span>                      <span>, </span>                      <span>Schizophreniform disorder in remission</span>                    </span>                    <span>                      <span>                      </span>                      <span>Staggering gait</span>                      <span>Copy From Visit ID: 1000002159 Health Issue Type: Principal Dx</span>                      <span>                      </span>                      <span>                        <span>Active</span>                      </span>                      <span>                        <span>Active</span>                      </span>                      <span>                        <span>Active</span>                      </span>                      <span>                        <span>Inactive</span>                      </span>                    </span>                    <span>                      <br/>                    </span>                    <span>                      <span> Kidder</span>, Karen </span>                  </td>                  <td>                    <span>                      <span>On </span>                      <span>12-Mar-2011</span>                    </span>                    <span>                      <br/>                    </span>                    <span>                      <span>1:32 AM</span>                      <span> to </span>                      <span>1:32 PM</span>                    </span>                  </td>                </tr>                <tr>                  <td>                    <span>                      <span>Outpatient</span>                    </span>                    <span>                      <br/>                    </span>                    <span>                      <span>Encounter Diagnosis: </span>                      <span>Asthma</span>                      <span>, </span>                      <span>App adhesion barrier sub</span>                    </span>                    <span>                      <span>                      </span>                      <span>                      </span>                      <span>                        <span>Active</span>                      </span>                      <span>                        <span>Active</span>                      </span>                    </span>                    <span>                      <br/>                    </span>                    <span>                      <span> Kidder</span>, Karen </span>                  </td>                  <td>                    <span>                      <span>On </span>                      <span>15-Apr-2010</span>                    </span>                    <span>                      <br/>                    </span>                    <span>                      <span>1:13 AM</span>                      <span> to </span>                      <span>1:14 PM</span>                    </span>                  </td>                </tr>              </tbody>            </table>          </div>"
        },
        "mode": "snapshot",
        "entry": [ {
          "reference": "Encounter/bf659998-e365-4877-9b20-ffa6ba35d7e2",
          "display": "Outpatient"
        }, {
          "reference": "Encounter/157db2ee-a3b7-4e5a-8bd5-9f42e9c428d2",
          "display": "Outpatient"
        }, {
          "reference": "Encounter/513c1a51-0528-4997-8f52-e734e6e8cde1",
          "display": "Outpatient"
        } ]
      }, {
        "title": "Immunization",
        "code": {
          "coding": [ {
            "system": "http://loinc.org",
            "code": "11369-6",
            "display": "Immunizations"
          } ]
        },
        "text": {
          "status": "additional",
          "div": "<div xmlns=\"http://www.w3.org/1999/xhtml\">            <table>              <thead>                <tr>                  <th>Name</th>                  <th>Dates</th>                  <th>Details</th>                </tr>              </thead>              <tbody>                <tr>                  <td>                    <span>                      <span>MMR</span>                    </span>                    <span>                      <br/>                    </span>                    <span>Lot #: </span>                    <span>ZT74378B</span>                  </td>                  <td>                    <span>                      <span>Administered on<span>:</span></span>                      <span>12-Mar-2011</span>                    </span>                  </td>                  <td>                    <span>                      <span>                      </span>                    </span>                    <span>                      <br/>                    </span>                  </td>                </tr>              </tbody>            </table>          </div>"
        },
        "mode": "snapshot",
        "entry": [ {
          "reference": "Immunization/40c67660-bd27-468f-8113-edcce370bf3d",
          "display": "MMR"
        } ]
      }, {
        "title": "Plan of Care",
        "code": {
          "coding": [ {
            "system": "http://loinc.org",
            "code": "18776-5",
            "display": "Plan of Care"
          } ]
        },
        "text": {
          "status": "additional",
          "div": "<div xmlns=\"http://www.w3.org/1999/xhtml\">            <ul>              <caption>Instructions</caption>              <li>                <span>                  <span>resources and instructions provided during visit</span>                </span>              </li>            </ul>            <ul>              <caption>Planned Acts</caption>              <li>                <table>                  <thead>                    <tr>                      <th>Name</th>                      <th>Dates</th>                      <th>Details</th>                    </tr>                  </thead>                  <tbody>                    <tr>                      <td>                        <span>                          <span>                            <span>Asthma Management</span>                          </span>                        </span>                      </td>                      <td/>                      <td>                        <span>                          <span>Intent</span>                        </span>                      </td>                    </tr>                  </tbody>                </table>              </li>            </ul>            <ul>              <caption>Planned Observations</caption>              <li>                <table>                  <thead>                    <tr>                      <th>Name</th>                      <th>Dates</th>                      <th>Details</th>                    </tr>                  </thead>                  <tbody>                    <tr>                      <td>                        <span>                          <span>                            <span>Plan Of Care Entry excluded/not available</span>                          </span>                        </span>                      </td>                      <td/>                      <td>                        <span>                          <span>Goal</span>                        </span>                      </td>                    </tr>                  </tbody>                </table>              </li>            </ul>          </div>"
        },
        "mode": "snapshot",
        "entry": [ {
          "reference": "CarePlan/09f0f0b9-d3e0-40af-8f90-d5412f3a88d2"
        } ]
      }, {
        "title": "Results",
        "code": {
          "coding": [ {
            "system": "http://loinc.org",
            "code": "30954-2",
            "display": "Relevant diagnostic tests and/or laboratory data"
          } ]
        },
        "text": {
          "status": "additional",
          "div": "<div xmlns=\"http://www.w3.org/1999/xhtml\">            <table>              <thead>                <tr>                  <th>Date</th>                  <th>Description</th>                  <th>Value</th>                  <th>Details</th>                </tr>              </thead>              <tbody>                <tr>                  <td>                    <span>                      <span>Resulted on:</span>                    </span>                    <span>                      <br/>                    </span>                    <span>13-May-2013 3:43 PM</span>                  </td>                  <td>                    <span>Hemoglobin A, Serum</span>                  </td>                  <td>                    <span>16  g/dl</span>                  </td>                  <td>                    <span>Range: 13.5 - 18.0 g/dl</span>                    <span>                      <br/>                    </span>                    <span>                      <span>                      </span>                    </span>                    <span>                      <br/>                    </span>                  </td>                </tr>                <tr>                  <td/>                  <td/>                  <td/>                  <td/>                </tr>              </tbody>              <tbody>                <tr>                  <td>                    <span>                      <br/>                    </span>                    <span>3:34 PM</span>                  </td>                  <td>                    <span>Hematocrit, Whole Blood</span>                  </td>                  <td>                    <span>44  %</span>                  </td>                  <td>                    <span>Range: 41 - 53 %</span>                    <span>                      <br/>                    </span>                    <span>                      <span>                      </span>                    </span>                    <span>                      <br/>                    </span>                  </td>                </tr>                <tr>                  <td/>                  <td/>                  <td/>                  <td/>                </tr>              </tbody>              <tbody>                <tr>                  <td>                    <span>                      <br/>                    </span>                    <span>3:33 PM</span>                  </td>                  <td>                    <span>WBC Count</span>                  </td>                  <td>                    <span>6  ul</span>                  </td>                  <td>                    <span>Range: 4.3 - 10.8 ul</span>                    <span>                      <br/>                    </span>                    <span>                      <span>                      </span>                    </span>                    <span>                      <br/>                    </span>                  </td>                </tr>                <tr>                  <td/>                  <td/>                  <td/>                  <td/>                </tr>              </tbody>            </table>          </div>"
        },
        "mode": "snapshot",
        "entry": [ {
          "reference": "DiagnosticReport/b8d0b29e-2ea3-4b2d-8402-ce663020bba6",
          "display": "Hemoglobin A, Serum"
        }, {
          "reference": "DiagnosticReport/6190c552-10d6-4357-b3cb-6e111729becd",
          "display": "WBC Count"
        }, {
          "reference": "DiagnosticReport/9cb6aaa4-8bc5-48a9-b219-552c7dc99fe9",
          "display": "Hematocrit, Whole Blood"
        } ]
      }, {
        "title": "Problems",
        "code": {
          "coding": [ {
            "system": "http://loinc.org",
            "code": "11450-4",
            "display": "Problem List"
          } ]
        },
        "text": {
          "status": "additional",
          "div": "<div xmlns=\"http://www.w3.org/1999/xhtml\">            <table>              <thead>                <tr>                  <th>Name</th>                  <th>Dates</th>                  <th>Details</th>                </tr>              </thead>              <tbody>                <tr>                  <td>                    <span>                      <span>Bacteriuria</span>                    </span>                    <span>                      <span/>                    </span>                    <span>                      <br/>                    </span>                  </td>                  <td/>                  <td>                    <span>                      <span>                      </span>                    </span>                    <span>                      <br/>                    </span>                    <span>                      <span>                        <span>Status: </span>                        <span>Active</span>                      </span>                    </span>                  </td>                </tr>                <tr>                  <td>                    <span>                      <span>Asthma</span>                    </span>                    <span>                      <span/>                    </span>                    <span>                      <br/>                    </span>                  </td>                  <td>                    <span>                      <span>Onset<span>:</span></span>                      <span>12-Mar-2011</span>                    </span>                  </td>                  <td>                    <span>                      <span>                      </span>                    </span>                    <span>                      <br/>                    </span>                    <span>                      <span>                        <span>Status: </span>                        <span>Active</span>                      </span>                    </span>                  </td>                </tr>                <tr>                  <td>                    <span>                      <span>Staggering gait</span>                    </span>                    <span>                      <span/>                    </span>                    <span>                      <br/>                    </span>                  </td>                  <td/>                  <td>                    <span>                      <span> Comments: </span>                      <span>Staggering gait</span>                    </span>                    <span>                      <br/>                    </span>                    <span>                      <span>                        <span>Status: </span>                        <span>Active</span>                      </span>                    </span>                  </td>                </tr>                <tr>                  <td>                    <span>                      <span>Asthma</span>                    </span>                    <span>                      <span/>                    </span>                    <span>                      <br/>                    </span>                  </td>                  <td/>                  <td>                    <span>                      <span>                      </span>                    </span>                    <span>                      <br/>                    </span>                    <span>                      <span>                        <span>Status: </span>                        <span>Active</span>                      </span>                    </span>                  </td>                </tr>                <tr>                  <td>                    <span>                      <span>Flu-like symptoms</span>                    </span>                    <span>                      <span/>                    </span>                    <span>                      <br/>                    </span>                  </td>                  <td/>                  <td>                    <span>                      <span>                      </span>                    </span>                    <span>                      <br/>                    </span>                    <span>                      <span>                        <span>Status: </span>                        <span>Active</span>                      </span>                    </span>                  </td>                </tr>                <tr>                  <td>                    <span>                      <span>Flu-like symptoms</span>                    </span>                    <span>                      <span/>                    </span>                    <span>                      <br/>                    </span>                  </td>                  <td>                    <span>                      <span>Onset<span>:</span></span>                      <span>13-May-2013</span>                    </span>                  </td>                  <td>                    <span>                      <span>                      </span>                    </span>                    <span>                      <br/>                    </span>                    <span>                      <span>                        <span>Status: </span>                        <span>Active</span>                      </span>                    </span>                  </td>                </tr>              </tbody>            </table>          </div>"
        },
        "mode": "snapshot",
        "entry": [ {
          "reference": "Condition/00ec5af8-c63a-4479-957e-627ea0e61bf5",
          "display": "Bacteriuria"
        }, {
          "reference": "Condition/aa827e85-5563-4e39-8a10-a4bac205b39c",
          "display": "Flu-like symptoms"
        }, {
          "reference": "Condition/905b8f9b-f8a9-4507-8891-3fda7251eae4",
          "display": "Asthma"
        }, {
          "reference": "Condition/af88d085-62dc-4cc6-b68b-60c87a340998",
          "display": "Flu-like symptoms"
        } ]
      }, {
        "title": "Social History",
        "code": {
          "coding": [ {
            "system": "http://loinc.org",
            "code": "29762-2",
            "display": "Social History"
          } ]
        },
        "text": {
          "status": "additional",
          "div": "<div xmlns=\"http://www.w3.org/1999/xhtml\">            <ul>              <caption>Smoking Status</caption>              <li>                <span>Former smoker</span>              </li>              <li>                <span>Unknown if ever smoked</span>              </li>              <li>                <span>Never smoker</span>              </li>            </ul>          </div>"
        },
        "mode": "snapshot",
        "entry": [ {
          "reference": "Observation/6f5085f5-68a0-49e2-87db-22430a43fbe4",
          "display": "Assertion"
        }, {
          "reference": "Observation/6e83eb81-fc2a-4d29-a728-518422c3df6c",
          "display": "Assertion"
        }, {
          "reference": "Observation/b78689cf-5cad-4781-aad0-62e5d6e0137f",
          "display": "Assertion"
        } ]
      }, {
        "title": "Assessments",
        "code": {
          "coding": [ {
            "system": "http://loinc.org",
            "code": "51848-0",
            "display": "Assessments"
          } ]
        },
        "text": {
          "status": "additional",
          "div": "<div xmlns=\"http://www.w3.org/1999/xhtml\">            <ul>              <li>                <span>Assessment excluded/not available</span>              </li>            </ul>          </div>"
        },
        "mode": "snapshot",
        "entry": [ {
          "reference": "ClinicalImpression/07569f60-db52-442a-97d7-acb908d59b7f",
          "display": "Assessments"
        } ]
      }, {
        "title": "Procedures",
        "code": {
          "coding": [ {
            "system": "http://loinc.org",
            "code": "47519-4",
            "display": "History of Procedures"
          } ]
        },
        "text": {
          "status": "additional",
          "div": "<div xmlns=\"http://www.w3.org/1999/xhtml\">            <table>              <thead>                <tr>                  <th>Procedure</th>                  <th>Dates</th>                  <th>Details</th>                </tr>              </thead>              <tbody>                <tr>                  <td>                    <span>Procedure excluded/not available</span>                  </td>                  <td/>                  <td/>                </tr>              </tbody>            </table>          </div>"
        },
        "mode": "snapshot",
        "entry": [ {
          "reference": "Procedure/0e3f13b0-d677-4e73-a1a1-1c52b68311de"
        } ]
      }, {
        "title": "Allergies and Adverse Reactions",
        "code": {
          "coding": [ {
            "system": "http://loinc.org",
            "code": "48765-2",
            "display": "Allergies, adverse reactions, alerts"
          } ]
        },
        "text": {
          "status": "additional",
          "div": "<div xmlns=\"http://www.w3.org/1999/xhtml\">            <table>              <thead>                <tr>                  <th>Name</th>                  <th>Dates</th>                  <th>Details</th>                </tr>              </thead>              <tbody>                <tr>                  <td>                    <span>                      <span>penicillin G benzathine</span>                    </span>                  </td>                  <td>                    <span/>                  </td>                  <td>                    <span>                      <span>                        <span>Reaction: </span>                        <span>Hives</span>                      </span>                    </span>                    <span>                      <br/>                    </span>                    <span>                      <span>Status: </span>                      <span>Active</span>                    </span>                  </td>                </tr>              </tbody>            </table>          </div>"
        },
        "mode": "snapshot",
        "entry": [ {
          "reference": "AllergyIntolerance/ef930f2b-0d03-425f-84dd-16d57b01e440",
          "display": "penicillin G benzathine"
        } ]
      } ]
    }
  }, {
    "resource": {
      "resourceType": "Patient",
      "id": "d55f8386-5fbc-4278-b297-703cacccbb20",
      "extension": [ {
        "url": "http://hl7.org/fhir/us/core/StructureDefinition/us-core-race",
        "extension": [ {
          "url": "text",
          "valueString": "White"
        }, {
          "url": "ombCategory",
          "valueCoding": {
            "system": "urn:oid:2.16.840.1.113883.6.238",
            "code": "2106-3",
            "display": "White"
          }
        } ]
      }, {
        "url": "http://hl7.org/fhir/us/core/StructureDefinition/us-core-ethnicity",
        "extension": [ {
          "url": "text",
          "valueString": "Not Hispanic or Latino"
        }, {
          "url": "ombCategory",
          "valueCoding": {
            "system": "urn:oid:2.16.840.1.113883.6.238",
            "code": "2186-5",
            "display": "Not Hispanic or Latino"
          }
        } ]
      } ],
      "identifier": [ {
        "use": "official",
        "system": "urn:oid:1.3.6.1.4.1.22812.11.0.100610",
        "value": "101693"
      } ],
      "name": [ {
        "use": "usual",
        "family": "Kidd",
        "given": [ "Kari", "CCDA" ]
      } ],
      "gender": "female",
      "birthDate": "2000-10-22",
      "communication": [ {
        "language": {
          "coding": [ {
            "system": "urn:ietf:bcp:47",
            "code": "eng"
          } ]
        },
        "preferred": true
      } ],
      "managingOrganization": {
        "reference": "Organization/1343858d-5f57-4ee9-b5ed-47f14c46d147",
        "display": "Family Practice Clinic S2V"
      }
    }
  }, {
    "resource": {
      "resourceType": "Organization",
      "id": "1343858d-5f57-4ee9-b5ed-47f14c46d147",
      "identifier": [ {
        "use": "official",
        "system": "urn:oid:1.3.6.1.4.1.22812.11.0.100610",
        "value": "100610"
      } ],
      "name": "Family Practice Clinic S2V",
      "telecom": [ {
        "system": "phone",
        "value": "+1-(555)777-0"
      } ],
      "address": [ {
        "line": [ "1230 West Boulevard", "Building 1" ],
        "city": "Harrisburg",
        "postalCode": "17102",
        "country": "US"
      } ]
    }
  }, {
    "resource": {
      "resourceType": "Practitioner",
      "id": "ea5146bc-dbd0-4b19-9f7e-dca5bcba8c77",
      "identifier": [ {
        "use": "official",
        "system": "urn:oid:2.16.840.1.113883.4.6",
        "value": "1177234592"
      }, {
        "use": "official",
        "system": "urn:oid:1.3.6.1.4.1.22812.11.0.100610",
        "value": "90501190"
      } ],
      "name": [ {
        "family": "Dixon",
        "given": [ "George" ]
      } ],
      "telecom": [ {
        "system": "email",
        "value": "gddd@gmail.com"
      } ],
      "address": [ {
        "line": [ "545 CapeMay" ],
        "city": "Philadelphia"
      } ]
    }
  }, {
    "resource": {
      "resourceType": "Device",
      "id": "e90abf05-a3aa-4e6d-98e0-81b3c17976ef",
      "identifier": [ {
        "use": "official",
        "system": "urn:oid:1.3.6.1.4.1.22812.11.0.100610.3.3",
        "value": "100610"
      } ],
      "manufacturer": "Sunrise Clinical Manager ",
      "type": {
        "coding": [ {
          "display": "Sunrise Clinical Manager "
        } ]
      },
      "version": [ {
        "value": "Sunrise Clinical Manager ; Transform 4.1.1.17"
      } ],
      "owner": {
        "reference": "Organization/1343858d-5f57-4ee9-b5ed-47f14c46d147"
      }
    }
  }, {
    "resource": {
      "resourceType": "Practitioner",
      "id": "aea30570-ae1d-4169-8c31-95355a35f7a4",
      "identifier": [ {
        "use": "official",
        "system": "http://hl7.org/fhir/sid/us-npi",
        "value": "2097459947"
      } ],
      "name": [ {
        "family": "Kidder",
        "given": [ "Karen" ]
      } ],
      "telecom": [ {
        "system": "phone",
        "value": "+1-(555)555-1046",
        "use": "work"
      }, {
        "system": "email",
        "value": "Karen.Kidder@direct.medalliesdirect.com"
      } ],
      "address": [ {
        "use": "work",
        "line": [ "1044 Healthcare Dr" ],
        "city": "Portland",
        "postalCode": "97005-1298",
        "country": "US"
      } ]
    }
  }, {
    "resource": {
      "resourceType": "Encounter",
      "id": "bf659998-e365-4877-9b20-ffa6ba35d7e2",
      "identifier": [ {
        "use": "official",
        "system": "urn:oid:1.3.6.1.4.1.22812.11.0.100610.3.4",
        "value": "210300270"
      } ],
      "status": "finished",
      "type": [ {
        "coding": [ {
          "system": "urn:oid:2.16.840.1.113883.5.4"
        } ],
        "text": "Outpatient"
      } ],
      "subject": {
        "reference": "Patient/d55f8386-5fbc-4278-b297-703cacccbb20",
        "display": "Kari CCDA Kidd"
      },
      "participant": [ {
        "type": [ {
          "coding": [ {
            "system": "http://terminology.hl7.org/CodeSystem/v3-ParticipationType",
            "code": "PART",
            "display": "Participation"
          } ]
        } ],
        "period": {
          "start": "2013-05-13T15:01:00+02:00",
          "end": "0001-01-01T00:00:00+01:00"
        },
        "individual": {
          "reference": "Practitioner/aea30570-ae1d-4169-8c31-95355a35f7a4",
          "display": "Karen Kidder"
        }
      } ],
      "period": {
        "start": "2013-05-13T15:01:00+02:00",
        "end": "0001-01-01T00:00:00+01:00"
      },
      "diagnosis": [ {
        "condition": {
          "reference": "Condition/8c11a729-a7f1-4815-ba26-bce6b813f1c8",
          "display": "Asthma"
        }
      }, {
        "condition": {
          "reference": "Condition/9b548b1e-8566-488f-abe6-801c77da68cb",
          "display": "Flu-like symptoms"
        }
      }, {
        "condition": {
          "reference": "Condition/eb401b76-9912-4ea6-b641-19b917ff98d1",
          "display": "Flu-like symptoms"
        }
      } ],
      "location": [ {
        "location": {
          "reference": "Location/c87b15c1-9a74-4957-b8f3-ecf563a9bfd6",
          "display": "Family Practice Clinic S2V"
        }
      } ]
    }
  }, {
    "resource": {
      "resourceType": "Condition",
      "id": "8c11a729-a7f1-4815-ba26-bce6b813f1c8",
      "identifier": [ {
        "use": "official",
        "system": "urn:oid:1.3.6.1.4.1.22812.11.0.100610.4.1.2.1",
        "value": "739700500"
      } ],
      "clinicalStatus": {
        "coding": [ {
          "system": "http://terminology.hl7.org/CodeSystem/condition-clinical",
          "code": "active",
          "display": "Active"
        } ]
      },
      "verificationStatus": {
        "coding": [ {
          "system": "http://terminology.hl7.org/CodeSystem/condition-ver-status",
          "code": "confirmed",
          "display": "Confirmed"
        } ]
      },
      "category": [ {
        "coding": [ {
          "system": "http://terminology.hl7.org/CodeSystem/condition-category",
          "code": "problem-list-item",
          "display": "Problem List Item"
        } ]
      } ],
      "code": {
        "text": "Asthma"
      },
      "subject": {
        "reference": "Patient/d55f8386-5fbc-4278-b297-703cacccbb20",
        "display": "Kari CCDA Kidd"
      },
      "recordedDate": "2013-05-13T15:05:16+02:00",
      "asserter": {
        "reference": "Practitioner/8d5dec8a-9c32-4753-97e8-a1d4e7d17d55"
      }
    }
  }, {
    "resource": {
      "resourceType": "Practitioner",
      "id": "8d5dec8a-9c32-4753-97e8-a1d4e7d17d55"
    }
  }, {
    "resource": {
      "resourceType": "Condition",
      "id": "9b548b1e-8566-488f-abe6-801c77da68cb",
      "identifier": [ {
        "use": "official",
        "system": "urn:oid:1.3.6.1.4.1.22812.11.0.100610.4.1.2.1",
        "value": "739800500"
      } ],
      "clinicalStatus": {
        "coding": [ {
          "system": "http://terminology.hl7.org/CodeSystem/condition-clinical",
          "code": "active",
          "display": "Active"
        } ]
      },
      "verificationStatus": {
        "coding": [ {
          "system": "http://terminology.hl7.org/CodeSystem/condition-ver-status",
          "code": "confirmed",
          "display": "Confirmed"
        } ]
      },
      "category": [ {
        "coding": [ {
          "system": "http://terminology.hl7.org/CodeSystem/condition-category",
          "code": "problem-list-item",
          "display": "Problem List Item"
        } ]
      } ],
      "code": {
        "text": "Flu-like symptoms"
      },
      "subject": {
        "reference": "Patient/d55f8386-5fbc-4278-b297-703cacccbb20",
        "display": "Kari CCDA Kidd"
      },
      "recordedDate": "2013-05-13T15:06:13+02:00",
      "asserter": {
        "reference": "Practitioner/89bbcd90-5577-4cb5-b00c-e84af141bad1"
      }
    }
  }, {
    "resource": {
      "resourceType": "Practitioner",
      "id": "89bbcd90-5577-4cb5-b00c-e84af141bad1"
    }
  }, {
    "resource": {
      "resourceType": "Condition",
      "id": "eb401b76-9912-4ea6-b641-19b917ff98d1",
      "identifier": [ {
        "use": "official",
        "system": "urn:oid:1.3.6.1.4.1.22812.11.0.100610.4.1.2.1",
        "value": "739600500"
      } ],
      "clinicalStatus": {
        "coding": [ {
          "system": "http://terminology.hl7.org/CodeSystem/condition-clinical",
          "code": "active",
          "display": "Active"
        } ]
      },
      "verificationStatus": {
        "coding": [ {
          "system": "http://terminology.hl7.org/CodeSystem/condition-ver-status",
          "code": "confirmed",
          "display": "Confirmed"
        } ]
      },
      "category": [ {
        "coding": [ {
          "system": "http://terminology.hl7.org/CodeSystem/condition-category",
          "code": "problem-list-item",
          "display": "Problem List Item"
        } ]
      } ],
      "code": {
        "text": "Flu-like symptoms"
      },
      "subject": {
        "reference": "Patient/d55f8386-5fbc-4278-b297-703cacccbb20",
        "display": "Kari CCDA Kidd"
      },
      "recordedDate": "2013-05-13T15:04:11+02:00",
      "asserter": {
        "reference": "Practitioner/ad6d464c-be7a-4f94-9bb1-d97136044033"
      }
    }
  }, {
    "resource": {
      "resourceType": "Practitioner",
      "id": "ad6d464c-be7a-4f94-9bb1-d97136044033"
    }
  }, {
    "resource": {
      "resourceType": "Location",
      "id": "c87b15c1-9a74-4957-b8f3-ecf563a9bfd6",
      "name": "Family Practice Clinic S2V"
    }
  }, {
    "resource": {
      "resourceType": "Encounter",
      "id": "157db2ee-a3b7-4e5a-8bd5-9f42e9c428d2",
      "identifier": [ {
        "use": "official",
        "system": "urn:oid:1.3.6.1.4.1.22812.11.0.100610.3.4",
        "value": "209600270"
      } ],
      "status": "finished",
      "type": [ {
        "coding": [ {
          "system": "urn:oid:2.16.840.1.113883.5.4"
        } ],
        "text": "Outpatient"
      } ],
      "subject": {
        "reference": "Patient/d55f8386-5fbc-4278-b297-703cacccbb20",
        "display": "Kari CCDA Kidd"
      },
      "participant": [ {
        "type": [ {
          "coding": [ {
            "system": "http://terminology.hl7.org/CodeSystem/v3-ParticipationType",
            "code": "PART",
            "display": "Participation"
          } ]
        } ],
        "period": {
          "start": "2011-03-12T10:32:00+01:00",
          "end": "2011-03-12T13:32:00+01:00"
        },
        "individual": {
          "reference": "Practitioner/aea30570-ae1d-4169-8c31-95355a35f7a4",
          "display": "Karen Kidder"
        }
      } ],
      "period": {
        "start": "2011-03-12T10:32:00+01:00",
        "end": "2011-03-12T13:32:00+01:00"
      },
      "reasonReference": [ {
        "reference": "Condition/4c72a4c9-3886-46d8-8b3d-5301fce27651"
      } ],
      "diagnosis": [ {
        "condition": {
          "reference": "Condition/9d7f6d99-c08c-4b7e-a6f2-d32a3879fa62",
          "display": "Asthma"
        }
      }, {
        "condition": {
          "reference": "Condition/f5674d0e-6d73-470b-a7a6-7a950eea5b34",
          "display": "Staggering gait"
        }
      }, {
        "condition": {
          "reference": "Condition/f2f6aeef-48e1-4dff-a621-11c4860e1762",
          "display": "Prickly heat"
        }
      }, {
        "condition": {
          "reference": "Condition/74c9a6a6-dc4b-4a1e-9727-fb0121c85148",
          "display": "Schizophreniform disorder in remission"
        }
      } ],
      "location": [ {
        "location": {
          "reference": "Location/fea92e87-0fc0-4924-8d65-3540c73d1aa2"
        }
      } ]
    }
  }, {
    "resource": {
      "resourceType": "Condition",
      "id": "4c72a4c9-3886-46d8-8b3d-5301fce27651",
      "identifier": [ {
        "use": "official",
        "system": "urn:oid:1.3.6.1.4.1.22812.11.0.100610.4.1.3",
        "value": "963100500"
      } ],
      "clinicalStatus": {
        "coding": [ {
          "system": "http://terminology.hl7.org/CodeSystem/condition-clinical",
          "code": "active",
          "display": "Active"
        } ]
      },
      "category": [ {
        "coding": [ {
          "system": "http://hl7.org/fhir/condition-category",
          "code": "encounter-diagnosis",
          "display": "Encounter Diagnosis"
        } ]
      } ],
      "subject": {
        "reference": "Patient/d55f8386-5fbc-4278-b297-703cacccbb20",
        "display": "Kari CCDA Kidd"
      },
      "onsetDateTime": "2011-03-12T10:32:00+01:00"
    }
  }, {
    "resource": {
      "resourceType": "Condition",
      "id": "9d7f6d99-c08c-4b7e-a6f2-d32a3879fa62",
      "identifier": [ {
        "use": "official",
        "system": "urn:oid:1.3.6.1.4.1.22812.11.0.100610.4.1.2.1",
        "value": "735700500"
      } ],
      "clinicalStatus": {
        "coding": [ {
          "system": "http://terminology.hl7.org/CodeSystem/condition-clinical",
          "code": "active",
          "display": "Active"
        } ]
      },
      "verificationStatus": {
        "coding": [ {
          "system": "http://terminology.hl7.org/CodeSystem/condition-ver-status",
          "code": "confirmed",
          "display": "Confirmed"
        } ]
      },
      "category": [ {
        "coding": [ {
          "system": "http://terminology.hl7.org/CodeSystem/condition-category",
          "code": "problem-list-item",
          "display": "Problem List Item"
        } ]
      } ],
      "code": {
        "text": "Asthma"
      },
      "subject": {
        "reference": "Patient/d55f8386-5fbc-4278-b297-703cacccbb20",
        "display": "Kari CCDA Kidd"
      },
      "recordedDate": "2013-05-13T10:35:03+02:00",
      "asserter": {
        "reference": "Practitioner/3915e77e-f5b9-42e2-ad51-2f538ad718cb"
      }
    }
  }, {
    "resource": {
      "resourceType": "Practitioner",
      "id": "3915e77e-f5b9-42e2-ad51-2f538ad718cb"
    }
  }, {
    "resource": {
      "resourceType": "Condition",
      "id": "f5674d0e-6d73-470b-a7a6-7a950eea5b34",
      "identifier": [ {
        "use": "official",
        "system": "urn:oid:1.3.6.1.4.1.22812.11.0.100610.4.1.2.1",
        "value": "962200500"
      } ],
      "clinicalStatus": {
        "coding": [ {
          "system": "http://terminology.hl7.org/CodeSystem/condition-clinical",
          "code": "active",
          "display": "Active"
        } ]
      },
      "verificationStatus": {
        "coding": [ {
          "system": "http://terminology.hl7.org/CodeSystem/condition-ver-status",
          "code": "confirmed",
          "display": "Confirmed"
        } ]
      },
      "category": [ {
        "coding": [ {
          "system": "http://terminology.hl7.org/CodeSystem/condition-category",
          "code": "problem-list-item",
          "display": "Problem List Item"
        } ]
      } ],
      "code": {
        "text": "Staggering gait"
      },
      "subject": {
        "reference": "Patient/d55f8386-5fbc-4278-b297-703cacccbb20",
        "display": "Kari CCDA Kidd"
      },
      "recordedDate": "2013-06-10T17:53:00+02:00",
      "asserter": {
        "reference": "Practitioner/912ddce3-6561-4346-9d8b-b3c3fb459c13"
      }
    }
  }, {
    "resource": {
      "resourceType": "Practitioner",
      "id": "912ddce3-6561-4346-9d8b-b3c3fb459c13"
    }
  }, {
    "resource": {
      "resourceType": "Condition",
      "id": "f2f6aeef-48e1-4dff-a621-11c4860e1762",
      "identifier": [ {
        "use": "official",
        "system": "urn:oid:1.3.6.1.4.1.22812.11.0.100610.4.1.2.1",
        "value": "968400500"
      } ],
      "clinicalStatus": {
        "coding": [ {
          "system": "http://terminology.hl7.org/CodeSystem/condition-clinical",
          "code": "active",
          "display": "Active"
        } ]
      },
      "verificationStatus": {
        "coding": [ {
          "system": "http://terminology.hl7.org/CodeSystem/condition-ver-status",
          "code": "confirmed",
          "display": "Confirmed"
        } ]
      },
      "category": [ {
        "coding": [ {
          "system": "http://terminology.hl7.org/CodeSystem/condition-category",
          "code": "problem-list-item",
          "display": "Problem List Item"
        } ]
      } ],
      "code": {
        "text": "Prickly heat"
      },
      "subject": {
        "reference": "Patient/d55f8386-5fbc-4278-b297-703cacccbb20",
        "display": "Kari CCDA Kidd"
      },
      "recordedDate": "2013-06-11T02:53:13+02:00",
      "asserter": {
        "reference": "Practitioner/06f9249c-fdef-4500-8547-c1e91b9eb885"
      }
    }
  }, {
    "resource": {
      "resourceType": "Practitioner",
      "id": "06f9249c-fdef-4500-8547-c1e91b9eb885"
    }
  }, {
    "resource": {
      "resourceType": "Condition",
      "id": "74c9a6a6-dc4b-4a1e-9727-fb0121c85148",
      "identifier": [ {
        "use": "official",
        "system": "urn:oid:1.3.6.1.4.1.22812.11.0.100610.4.1.2.1",
        "value": "964200500"
      } ],
      "clinicalStatus": {
        "coding": [ {
          "system": "http://terminology.hl7.org/CodeSystem/condition-clinical",
          "code": "active",
          "display": "Active"
        } ]
      },
      "verificationStatus": {
        "coding": [ {
          "system": "http://terminology.hl7.org/CodeSystem/condition-ver-status",
          "code": "confirmed",
          "display": "Confirmed"
        } ]
      },
      "category": [ {
        "coding": [ {
          "system": "http://terminology.hl7.org/CodeSystem/condition-category",
          "code": "problem-list-item",
          "display": "Problem List Item"
        } ]
      } ],
      "code": {
        "text": "Schizophreniform disorder in remission"
      },
      "subject": {
        "reference": "Patient/d55f8386-5fbc-4278-b297-703cacccbb20",
        "display": "Kari CCDA Kidd"
      },
      "recordedDate": "2013-06-11T02:42:56+02:00",
      "asserter": {
        "reference": "Practitioner/328a771e-b59c-459d-b210-51bc9b7fefa2"
      }
    }
  }, {
    "resource": {
      "resourceType": "Practitioner",
      "id": "328a771e-b59c-459d-b210-51bc9b7fefa2"
    }
  }, {
    "resource": {
      "resourceType": "Location",
      "id": "fea92e87-0fc0-4924-8d65-3540c73d1aa2"
    }
  }, {
    "resource": {
      "resourceType": "Encounter",
      "id": "513c1a51-0528-4997-8f52-e734e6e8cde1",
      "identifier": [ {
        "use": "official",
        "system": "urn:oid:1.3.6.1.4.1.22812.11.0.100610.3.4",
        "value": "209500270"
      } ],
      "status": "finished",
      "type": [ {
        "coding": [ {
          "system": "urn:oid:2.16.840.1.113883.5.4"
        } ],
        "text": "Outpatient"
      } ],
      "subject": {
        "reference": "Patient/d55f8386-5fbc-4278-b297-703cacccbb20",
        "display": "Kari CCDA Kidd"
      },
      "participant": [ {
        "type": [ {
          "coding": [ {
            "system": "http://terminology.hl7.org/CodeSystem/v3-ParticipationType",
            "code": "PART",
            "display": "Participation"
          } ]
        } ],
        "period": {
          "start": "2010-04-15T10:13:00+02:00",
          "end": "2010-04-15T13:14:00+02:00"
        },
        "individual": {
          "reference": "Practitioner/aea30570-ae1d-4169-8c31-95355a35f7a4",
          "display": "Karen Kidder"
        }
      } ],
      "period": {
        "start": "2010-04-15T10:13:00+02:00",
        "end": "2010-04-15T13:14:00+02:00"
      },
      "diagnosis": [ {
        "condition": {
          "reference": "Condition/da099ccb-d2a7-4311-bf59-e10c52d69a26",
          "display": "App adhesion barrier sub"
        }
      }, {
        "condition": {
          "reference": "Condition/229f9785-32f6-4b9b-8be5-a489b8a2ae04",
          "display": "Asthma"
        }
      } ],
      "location": [ {
        "location": {
          "reference": "Location/319e28d6-9462-42b5-81e2-56e636c03717"
        }
      } ]
    }
  }, {
    "resource": {
      "resourceType": "Condition",
      "id": "da099ccb-d2a7-4311-bf59-e10c52d69a26",
      "identifier": [ {
        "use": "official",
        "system": "urn:oid:1.3.6.1.4.1.22812.11.0.100610.4.1.2.1",
        "value": "870300500"
      } ],
      "clinicalStatus": {
        "coding": [ {
          "system": "http://terminology.hl7.org/CodeSystem/condition-clinical",
          "code": "active",
          "display": "Active"
        } ]
      },
      "verificationStatus": {
        "coding": [ {
          "system": "http://terminology.hl7.org/CodeSystem/condition-ver-status",
          "code": "confirmed",
          "display": "Confirmed"
        } ]
      },
      "category": [ {
        "coding": [ {
          "system": "http://terminology.hl7.org/CodeSystem/condition-category",
          "code": "problem-list-item",
          "display": "Problem List Item"
        } ]
      } ],
      "code": {
        "text": "App adhesion barrier sub"
      },
      "subject": {
        "reference": "Patient/d55f8386-5fbc-4278-b297-703cacccbb20",
        "display": "Kari CCDA Kidd"
      },
      "recordedDate": "2013-05-28T14:19:59+02:00",
      "asserter": {
        "reference": "Practitioner/f7d93a1b-f2ee-4515-bca5-63d13eab4c54"
      }
    }
  }, {
    "resource": {
      "resourceType": "Practitioner",
      "id": "f7d93a1b-f2ee-4515-bca5-63d13eab4c54"
    }
  }, {
    "resource": {
      "resourceType": "Condition",
      "id": "229f9785-32f6-4b9b-8be5-a489b8a2ae04",
      "identifier": [ {
        "use": "official",
        "system": "urn:oid:1.3.6.1.4.1.22812.11.0.100610.4.1.2.1",
        "value": "735600500"
      } ],
      "clinicalStatus": {
        "coding": [ {
          "system": "http://terminology.hl7.org/CodeSystem/condition-clinical",
          "code": "active",
          "display": "Active"
        } ]
      },
      "verificationStatus": {
        "coding": [ {
          "system": "http://terminology.hl7.org/CodeSystem/condition-ver-status",
          "code": "confirmed",
          "display": "Confirmed"
        } ]
      },
      "category": [ {
        "coding": [ {
          "system": "http://terminology.hl7.org/CodeSystem/condition-category",
          "code": "problem-list-item",
          "display": "Problem List Item"
        } ]
      } ],
      "code": {
        "text": "Asthma"
      },
      "subject": {
        "reference": "Patient/d55f8386-5fbc-4278-b297-703cacccbb20",
        "display": "Kari CCDA Kidd"
      },
      "recordedDate": "2013-05-13T10:25:19+02:00",
      "asserter": {
        "reference": "Practitioner/4962879f-999d-41ba-822d-ced25b29a950"
      }
    }
  }, {
    "resource": {
      "resourceType": "Practitioner",
      "id": "4962879f-999d-41ba-822d-ced25b29a950"
    }
  }, {
    "resource": {
      "resourceType": "Location",
      "id": "319e28d6-9462-42b5-81e2-56e636c03717"
    }
  }, {
    "resource": {
      "resourceType": "Immunization",
      "id": "40c67660-bd27-468f-8113-edcce370bf3d",
      "identifier": [ {
        "use": "official",
        "system": "urn:oid:1.3.6.1.4.1.22812.11.0.100610.4.4",
        "value": "9856"
      } ],
      "status": "completed",
      "vaccineCode": {
        "coding": [ {
          "system": "http://www2a.cdc.gov/vaccines/iis/iisstandards/vaccines.asp?rpt=cvx",
          "code": "03",
          "display": "MMR"
        } ],
        "text": "MMR"
      },
      "patient": {
        "reference": "Patient/d55f8386-5fbc-4278-b297-703cacccbb20",
        "display": "Kari CCDA Kidd"
      },
      "occurrenceDateTime": "2011-03-12",
      "primarySource": true,
      "manufacturer": {
        "reference": "Organization/8c36548a-07a4-41a0-9b5e-b610b1ad8bb8",
        "display": "Merck &Co., Inc."
      },
      "lotNumber": "ZT74378B",
      "route": {
        "coding": [ {
          "system": "http://www.nlm.nih.gov/research/umls/nci",
          "code": "C28161",
          "display": "INTRAMUSCULAR"
        } ]
      },
      "doseQuantity": {
        "value": 0.2500,
        "unit": "milliLiter(s)",
        "system": "http://unitsofmeasure.org/ucum.html"
      },
      "performer": [ {
        "function": {
          "coding": [ {
            "system": "http://hl7.org/fhir/v2/0443",
            "code": "AP",
            "display": "Administering Provider"
          } ]
        },
        "actor": {
          "reference": "Practitioner/14472731-dc4b-4d88-9c7e-58efb03ab90f",
          "display": "Nancy Nightingale"
        }
      } ]
    }
  }, {
    "resource": {
      "resourceType": "Organization",
      "id": "8c36548a-07a4-41a0-9b5e-b610b1ad8bb8",
      "name": "Merck &Co., Inc."
    }
  }, {
    "resource": {
      "resourceType": "Practitioner",
      "id": "14472731-dc4b-4d88-9c7e-58efb03ab90f",
      "identifier": [ {
        "use": "official",
        "system": "http://hl7.org/fhir/sid/us-npi",
        "value": "1276903451"
      } ],
      "name": [ {
        "family": "Nightingale",
        "given": [ "Nancy" ]
      } ],
      "telecom": [ {
        "system": "email",
        "value": "Nancy.Nightingale@direct.medalliesdirect.com"
      } ],
      "address": [ {
        "line": [ "1004 Healthcare Dr" ],
        "city": "Portland",
        "postalCode": "97005-0000"
      } ]
    }
  }, {
    "resource": {
      "resourceType": "CarePlan",
      "id": "09f0f0b9-d3e0-40af-8f90-d5412f3a88d2",
      "text": {
        "status": "additional",
        "div": "<div xmlns=\"http://www.w3.org/1999/xhtml\">            <ul>              <caption>Instructions</caption>              <li>                <span>                  <span>resources and instructions provided during visit</span>                </span>              </li>            </ul>            <ul>              <caption>Planned Acts</caption>              <li>                <table>                  <thead>                    <tr>                      <th>Name</th>                      <th>Dates</th>                      <th>Details</th>                    </tr>                  </thead>                  <tbody>                    <tr>                      <td>                        <span>                          <span>                            <span>Asthma Management</span>                          </span>                        </span>                      </td>                      <td/>                      <td>                        <span>                          <span>Intent</span>                        </span>                      </td>                    </tr>                  </tbody>                </table>              </li>            </ul>            <ul>              <caption>Planned Observations</caption>              <li>                <table>                  <thead>                    <tr>                      <th>Name</th>                      <th>Dates</th>                      <th>Details</th>                    </tr>                  </thead>                  <tbody>                    <tr>                      <td>                        <span>                          <span>                            <span>Plan Of Care Entry excluded/not available</span>                          </span>                        </span>                      </td>                      <td/>                      <td>                        <span>                          <span>Goal</span>                        </span>                      </td>                    </tr>                  </tbody>                </table>              </li>            </ul>          </div>"
      },
      "status": "active",
      "intent": "plan",
      "category": [ {
        "coding": [ {
          "system": "http://hl7.org/fhir/us/core/CodeSystem/careplan-category",
          "code": "assess-plan"
        } ]
      } ],
      "title": "Plan of Care",
      "description": "<div>            <ul>              <caption>Instructions</caption>              <li>                <span>                  <span>resources and instructions provided during visit</span>                </span>              </li>            </ul>            <ul>              <caption>Planned Acts</caption>              <li>                <table>                  <thead>                    <tr>                      <th>Name</th>                      <th>Dates</th>                      <th>Details</th>                    </tr>                  </thead>                  <tbody>                    <tr>                      <td>                        <span>                          <span>                            <span>Asthma Management</span>                          </span>                        </span>                      </td>                      <td></td>                      <td>                        <span>                          <span>Intent</span>                        </span>                      </td>                    </tr>                  </tbody>                </table>              </li>            </ul>            <ul>              <caption>Planned Observations</caption>              <li>                <table>                  <thead>                    <tr>                      <th>Name</th>                      <th>Dates</th>                      <th>Details</th>                    </tr>                  </thead>                  <tbody>                    <tr>                      <td>                        <span>                          <span>                            <span>Plan Of Care Entry excluded/not available</span>                          </span>                        </span>                      </td>                      <td></td>                      <td>                        <span>                          <span>Goal</span>                        </span>                      </td>                    </tr>                  </tbody>                </table>              </li>            </ul>          </div>",
      "subject": {
        "reference": "Patient/d55f8386-5fbc-4278-b297-703cacccbb20",
        "display": "Kari CCDA Kidd"
      },
      "activity": [ {
        "reference": {
          "reference": "ServiceRequest/6f997e3c-88da-41c6-9950-0d609a3b6adc",
          "display": "Asthma Management"
        }
      } ]
    }
  }, {
    "resource": {
      "resourceType": "ServiceRequest",
      "id": "6f997e3c-88da-41c6-9950-0d609a3b6adc",
      "text": {
        "status": "additional",
        "div": "<div xmlns=\"http://www.w3.org/1999/xhtml\">Asthma Management</div>"
      },
      "identifier": [ {
        "use": "official",
        "system": "urn:oid:1.3.6.1.4.1.22812.11.0.100610.4.13.1",
        "value": "INT"
      } ],
      "status": "active",
      "intent": "plan",
      "code": {
        "coding": [ {
          "system": "http://snomed.info/sct",
          "code": "406162001",
          "display": "Asthma Management"
        } ]
      },
      "subject": {
        "reference": "Patient/d55f8386-5fbc-4278-b297-703cacccbb20",
        "display": "Kari CCDA Kidd"
      }
    }
  }, {
    "resource": {
      "resourceType": "DiagnosticReport",
      "id": "b8d0b29e-2ea3-4b2d-8402-ce663020bba6",
      "identifier": [ {
        "use": "official",
        "system": "urn:oid:1.3.6.1.4.1.22812.11.0.100610.4.5",
        "value": "12903100680"
      } ],
      "status": "final",
      "category": [ {
        "coding": [ {
          "system": "http://terminology.hl7.org/CodeSystem/v2-0074",
          "code": "LAB",
          "display": "Laboratory"
        } ]
      } ],
      "code": {
        "coding": [ {
          "system": "http://loinc.org",
          "code": "30313-1",
          "display": "Hemoglobin A, Serum"
        } ]
      },
      "subject": {
        "reference": "Patient/d55f8386-5fbc-4278-b297-703cacccbb20",
        "display": "Kari CCDA Kidd"
      },
      "effectivePeriod": {
        "start": "2013-05-13T15:43:02+02:00"
      },
      "issued": "2013-05-13T15:43:02.000+02:00",
      "performer": [ {
        "reference": "Practitioner/619ac5c6-e2c4-490d-9c32-42093a199376"
      } ],
      "result": [ {
        "reference": "Observation/06d71eb8-815e-4b87-a6d6-affbfce0a811",
        "display": "Hemoglobin A, Serum"
      } ]
    }
  }, {
    "resource": {
      "resourceType": "Practitioner",
      "id": "619ac5c6-e2c4-490d-9c32-42093a199376"
    }
  }, {
    "resource": {
      "resourceType": "Observation",
      "id": "06d71eb8-815e-4b87-a6d6-affbfce0a811",
      "identifier": [ {
        "use": "official",
        "system": "urn:oid:1.3.6.1.4.1.22812.11.0.100610.4.5",
        "value": "287300070"
      } ],
      "status": "final",
      "category": [ {
        "coding": [ {
          "system": "http://terminology.hl7.org/CodeSystem/observation-category",
          "code": "laboratory"
        } ]
      } ],
      "code": {
        "coding": [ {
          "system": "http://loinc.org",
          "code": "30313-1",
          "display": "Hemoglobin A, Serum"
        } ]
      },
      "subject": {
        "reference": "Patient/d55f8386-5fbc-4278-b297-703cacccbb20",
        "display": "Kari CCDA Kidd"
      },
      "effectivePeriod": {
        "start": "2013-05-13T15:43:02+02:00"
      },
      "valueQuantity": {
        "value": 16,
        "unit": "g/dl",
        "system": "http://unitsofmeasure.org",
        "code": "g/dl"
      },
      "interpretation": [ {
        "coding": [ {
          "system": "http://terminology.hl7.org/CodeSystem/v3-ObservationInterpretation"
        } ]
      } ],
      "referenceRange": [ {
        "text": "13.5 - 18.0 g/dl"
      } ]
    }
  }, {
    "resource": {
      "resourceType": "DiagnosticReport",
      "id": "6190c552-10d6-4357-b3cb-6e111729becd",
      "identifier": [ {
        "use": "official",
        "system": "urn:oid:1.3.6.1.4.1.22812.11.0.100610.4.5",
        "value": "12905100680"
      } ],
      "status": "final",
      "category": [ {
        "coding": [ {
          "system": "http://terminology.hl7.org/CodeSystem/v2-0074",
          "code": "LAB",
          "display": "Laboratory"
        } ]
      } ],
      "code": {
        "coding": [ {
          "system": "http://loinc.org",
          "code": "26464-8",
          "display": "WBC Count"
        } ]
      },
      "subject": {
        "reference": "Patient/d55f8386-5fbc-4278-b297-703cacccbb20",
        "display": "Kari CCDA Kidd"
      },
      "effectivePeriod": {
        "start": "2013-05-13T15:33:31+02:00"
      },
      "issued": "2013-05-13T15:33:31.000+02:00",
      "performer": [ {
        "reference": "Practitioner/9af31a09-4a27-4f82-af36-5187b0b083c2"
      } ],
      "result": [ {
        "reference": "Observation/9152bb51-61ac-491c-95a2-e66b6c728396",
        "display": "WBC Count"
      } ]
    }
  }, {
    "resource": {
      "resourceType": "Practitioner",
      "id": "9af31a09-4a27-4f82-af36-5187b0b083c2"
    }
  }, {
    "resource": {
      "resourceType": "Observation",
      "id": "9152bb51-61ac-491c-95a2-e66b6c728396",
      "identifier": [ {
        "use": "official",
        "system": "urn:oid:1.3.6.1.4.1.22812.11.0.100610.4.5",
        "value": "287100070"
      } ],
      "status": "final",
      "category": [ {
        "coding": [ {
          "system": "http://terminology.hl7.org/CodeSystem/observation-category",
          "code": "laboratory"
        } ]
      } ],
      "code": {
        "coding": [ {
          "system": "http://loinc.org",
          "code": "26464-8",
          "display": "WBC Count"
        } ]
      },
      "subject": {
        "reference": "Patient/d55f8386-5fbc-4278-b297-703cacccbb20",
        "display": "Kari CCDA Kidd"
      },
      "effectivePeriod": {
        "start": "2013-05-13T15:33:31+02:00"
      },
      "valueQuantity": {
        "value": 6,
        "unit": "ul",
        "system": "http://unitsofmeasure.org",
        "code": "ul"
      },
      "interpretation": [ {
        "coding": [ {
          "system": "http://terminology.hl7.org/CodeSystem/v3-ObservationInterpretation"
        } ]
      } ],
      "referenceRange": [ {
        "text": "4.3 - 10.8 ul"
      } ]
    }
  }, {
    "resource": {
      "resourceType": "DiagnosticReport",
      "id": "9cb6aaa4-8bc5-48a9-b219-552c7dc99fe9",
      "identifier": [ {
        "use": "official",
        "system": "urn:oid:1.3.6.1.4.1.22812.11.0.100610.4.5",
        "value": "12903300680"
      } ],
      "status": "final",
      "category": [ {
        "coding": [ {
          "system": "http://terminology.hl7.org/CodeSystem/v2-0074",
          "code": "LAB",
          "display": "Laboratory"
        } ]
      } ],
      "code": {
        "coding": [ {
          "system": "http://loinc.org",
          "code": "20570-8",
          "display": "Hematocrit, Whole Blood"
        } ]
      },
      "subject": {
        "reference": "Patient/d55f8386-5fbc-4278-b297-703cacccbb20",
        "display": "Kari CCDA Kidd"
      },
      "effectivePeriod": {
        "start": "2013-05-13T15:34:13+02:00"
      },
      "issued": "2013-05-13T15:34:13.000+02:00",
      "performer": [ {
        "reference": "Practitioner/91c7e9cf-aa3f-4007-8aef-7299b21f8497"
      } ],
      "result": [ {
        "reference": "Observation/b8ee4fe6-3f91-443b-b798-d988cdb41cc7",
        "display": "Hematocrit, Whole Blood"
      } ]
    }
  }, {
    "resource": {
      "resourceType": "Practitioner",
      "id": "91c7e9cf-aa3f-4007-8aef-7299b21f8497"
    }
  }, {
    "resource": {
      "resourceType": "Observation",
      "id": "b8ee4fe6-3f91-443b-b798-d988cdb41cc7",
      "identifier": [ {
        "use": "official",
        "system": "urn:oid:1.3.6.1.4.1.22812.11.0.100610.4.5",
        "value": "287200070"
      } ],
      "status": "final",
      "category": [ {
        "coding": [ {
          "system": "http://terminology.hl7.org/CodeSystem/observation-category",
          "code": "laboratory"
        } ]
      } ],
      "code": {
        "coding": [ {
          "system": "http://loinc.org",
          "code": "20570-8",
          "display": "Hematocrit, Whole Blood"
        } ]
      },
      "subject": {
        "reference": "Patient/d55f8386-5fbc-4278-b297-703cacccbb20",
        "display": "Kari CCDA Kidd"
      },
      "effectivePeriod": {
        "start": "2013-05-13T15:34:13+02:00"
      },
      "valueQuantity": {
        "value": 44,
        "unit": "%",
        "system": "http://unitsofmeasure.org",
        "code": "%"
      },
      "interpretation": [ {
        "coding": [ {
          "system": "http://terminology.hl7.org/CodeSystem/v3-ObservationInterpretation"
        } ]
      } ],
      "referenceRange": [ {
        "text": "41 - 53 %"
      } ]
    }
  }, {
    "resource": {
      "resourceType": "Condition",
      "id": "00ec5af8-c63a-4479-957e-627ea0e61bf5",
      "identifier": [ {
        "use": "official",
        "system": "urn:oid:1.3.6.1.4.1.22812.11.0.100610.4.1.2.1",
        "value": "871400500"
      } ],
      "clinicalStatus": {
        "coding": [ {
          "system": "http://terminology.hl7.org/CodeSystem/condition-clinical",
          "code": "active",
          "display": "Active"
        } ]
      },
      "verificationStatus": {
        "coding": [ {
          "system": "http://terminology.hl7.org/CodeSystem/condition-ver-status",
          "code": "refuted",
          "display": "Refuted"
        } ]
      },
      "category": [ {
        "coding": [ {
          "system": "http://terminology.hl7.org/CodeSystem/condition-category",
          "code": "problem-list-item",
          "display": "Problem List Item"
        } ]
      } ],
      "code": {
        "coding": [ {
          "system": "http://snomed.info/sct",
          "code": "61373006",
          "display": "Urinary tract infection, site not specified"
        }, {
          "system": "urn:oid:1.3.6.1.4.1.22812.18.9.2",
          "code": "N39.0",
          "display": "Urinary tract infection, site not specified"
        }, {
          "system": "urn:oid:2.16.840.1.113883.6.103",
          "code": "791.9",
          "display": "Urinary tract infection, site not specified"
        } ],
        "text": "Bacteriuria"
      },
      "subject": {
        "reference": "Patient/d55f8386-5fbc-4278-b297-703cacccbb20",
        "display": "Kari CCDA Kidd"
      },
      "recordedDate": "2013-05-28T14:29:30+02:00",
      "asserter": {
        "reference": "Practitioner/ec6752a8-d55a-4911-9ac6-1065c34acc68"
      }
    }
  }, {
    "resource": {
      "resourceType": "Practitioner",
      "id": "ec6752a8-d55a-4911-9ac6-1065c34acc68"
    }
  }, {
    "resource": {
      "resourceType": "Condition",
      "id": "aa827e85-5563-4e39-8a10-a4bac205b39c",
      "identifier": [ {
        "use": "official",
        "system": "urn:oid:1.3.6.1.4.1.22812.11.0.100610.4.1.2.1",
        "value": "829900500"
      } ],
      "clinicalStatus": {
        "coding": [ {
          "system": "http://terminology.hl7.org/CodeSystem/condition-clinical",
          "code": "active",
          "display": "Active"
        } ]
      },
      "verificationStatus": {
        "coding": [ {
          "system": "http://terminology.hl7.org/CodeSystem/condition-ver-status",
          "code": "refuted",
          "display": "Refuted"
        } ]
      },
      "category": [ {
        "coding": [ {
          "system": "http://terminology.hl7.org/CodeSystem/condition-category",
          "code": "problem-list-item",
          "display": "Problem List Item"
        } ]
      } ],
      "code": {
        "coding": [ {
          "system": "http://snomed.info/sct",
          "code": "95891005",
          "display": "Flu-like symptoms"
        }, {
          "system": "urn:oid:2.16.840.1.113883.6.103",
          "code": "487.1",
          "display": "Flu-like symptoms"
        }, {
          "system": "urn:oid:2.16.840.1.113883.6.90",
          "code": "J11.1",
          "display": "Flu-like symptoms"
        } ],
        "text": "Flu-like symptoms"
      },
      "subject": {
        "reference": "Patient/d55f8386-5fbc-4278-b297-703cacccbb20",
        "display": "Kari CCDA Kidd"
      },
      "recordedDate": "2013-05-21T13:01:09+02:00",
      "asserter": {
        "reference": "Practitioner/b54b523c-18c0-4fac-ad21-2a6388ae7aa0"
      }
    }
  }, {
    "resource": {
      "resourceType": "Practitioner",
      "id": "b54b523c-18c0-4fac-ad21-2a6388ae7aa0"
    }
  }, {
    "resource": {
      "resourceType": "Condition",
      "id": "905b8f9b-f8a9-4507-8891-3fda7251eae4",
      "identifier": [ {
        "use": "official",
        "system": "urn:oid:1.3.6.1.4.1.22812.11.0.100610.4.1.2.1",
        "value": "829800500"
      } ],
      "clinicalStatus": {
        "coding": [ {
          "system": "http://terminology.hl7.org/CodeSystem/condition-clinical",
          "code": "active",
          "display": "Active"
        } ]
      },
      "verificationStatus": {
        "coding": [ {
          "system": "http://terminology.hl7.org/CodeSystem/condition-ver-status",
          "code": "refuted",
          "display": "Refuted"
        } ]
      },
      "category": [ {
        "coding": [ {
          "system": "http://terminology.hl7.org/CodeSystem/condition-category",
          "code": "problem-list-item",
          "display": "Problem List Item"
        } ]
      } ],
      "code": {
        "coding": [ {
          "system": "http://snomed.info/sct",
          "code": "195967001",
          "display": "Asthma"
        }, {
          "system": "urn:oid:2.16.840.1.113883.6.103",
          "code": "493.90",
          "display": "Asthma"
        }, {
          "system": "urn:oid:2.16.840.1.113883.6.90",
          "code": "J45.909",
          "display": "Asthma"
        } ],
        "text": "Asthma"
      },
      "subject": {
        "reference": "Patient/d55f8386-5fbc-4278-b297-703cacccbb20",
        "display": "Kari CCDA Kidd"
      },
      "recordedDate": "2013-05-21T13:01:03+02:00",
      "asserter": {
        "reference": "Practitioner/0c02c877-4d65-4ac2-bd02-5ad0186f2808"
      }
    }
  }, {
    "resource": {
      "resourceType": "Practitioner",
      "id": "0c02c877-4d65-4ac2-bd02-5ad0186f2808"
    }
  }, {
    "resource": {
      "resourceType": "Condition",
      "id": "af88d085-62dc-4cc6-b68b-60c87a340998",
      "identifier": [ {
        "use": "official",
        "system": "urn:oid:1.3.6.1.4.1.22812.11.0.100610.4.1.2.1",
        "value": "830000500"
      } ],
      "clinicalStatus": {
        "coding": [ {
          "system": "http://terminology.hl7.org/CodeSystem/condition-clinical",
          "code": "active",
          "display": "Active"
        } ]
      },
      "verificationStatus": {
        "coding": [ {
          "system": "http://terminology.hl7.org/CodeSystem/condition-ver-status",
          "code": "refuted",
          "display": "Refuted"
        } ]
      },
      "category": [ {
        "coding": [ {
          "system": "http://terminology.hl7.org/CodeSystem/condition-category",
          "code": "problem-list-item",
          "display": "Problem List Item"
        } ]
      } ],
      "code": {
        "coding": [ {
          "system": "http://snomed.info/sct",
          "code": "95891005",
          "display": "Flu-like symptoms"
        }, {
          "system": "urn:oid:2.16.840.1.113883.6.103",
          "code": "487.1",
          "display": "Flu-like symptoms"
        }, {
          "system": "urn:oid:2.16.840.1.113883.6.90",
          "code": "J11.1",
          "display": "Flu-like symptoms"
        } ],
        "text": "Flu-like symptoms"
      },
      "subject": {
        "reference": "Patient/d55f8386-5fbc-4278-b297-703cacccbb20",
        "display": "Kari CCDA Kidd"
      },
      "onsetDateTime": "2013-05-13",
      "recordedDate": "2013-05-21T13:01:13+02:00",
      "asserter": {
        "reference": "Practitioner/2faf9263-5684-4fac-a829-cccd1faf42f6"
      }
    }
  }, {
    "resource": {
      "resourceType": "Practitioner",
      "id": "2faf9263-5684-4fac-a829-cccd1faf42f6"
    }
  }, {
    "resource": {
      "resourceType": "Observation",
      "id": "6f5085f5-68a0-49e2-87db-22430a43fbe4",
      "status": "final",
      "code": {
        "coding": [ {
          "system": "urn:oid:2.16.840.1.113883.5.4",
          "code": "ASSERTION",
          "display": "Assertion"
        } ]
      },
      "subject": {
        "reference": "Patient/d55f8386-5fbc-4278-b297-703cacccbb20",
        "display": "Kari CCDA Kidd"
      },
      "valueCodeableConcept": {
        "coding": [ {
          "system": "http://snomed.info/sct",
          "code": "266927001",
          "display": "Unknown if ever smoked"
        } ]
      }
    }
  }, {
    "resource": {
      "resourceType": "Observation",
      "id": "6e83eb81-fc2a-4d29-a728-518422c3df6c",
      "status": "final",
      "code": {
        "coding": [ {
          "system": "urn:oid:2.16.840.1.113883.5.4",
          "code": "ASSERTION",
          "display": "Assertion"
        } ]
      },
      "subject": {
        "reference": "Patient/d55f8386-5fbc-4278-b297-703cacccbb20",
        "display": "Kari CCDA Kidd"
      },
      "valueCodeableConcept": {
        "coding": [ {
          "system": "http://snomed.info/sct",
          "code": "8517006",
          "display": "Former smoker"
        } ]
      }
    }
  }, {
    "resource": {
      "resourceType": "Observation",
      "id": "b78689cf-5cad-4781-aad0-62e5d6e0137f",
      "status": "final",
      "code": {
        "coding": [ {
          "system": "urn:oid:2.16.840.1.113883.5.4",
          "code": "ASSERTION",
          "display": "Assertion"
        } ]
      },
      "subject": {
        "reference": "Patient/d55f8386-5fbc-4278-b297-703cacccbb20",
        "display": "Kari CCDA Kidd"
      },
      "valueCodeableConcept": {
        "coding": [ {
          "system": "http://snomed.info/sct",
          "code": "266919005",
          "display": "Never smoker"
        } ]
      }
    }
  }, {
    "resource": {
      "resourceType": "ClinicalImpression",
      "id": "07569f60-db52-442a-97d7-acb908d59b7f",
      "status": "completed",
      "code": {
        "coding": [ {
          "system": "http://loinc.org",
          "code": "51848-0",
          "display": "Assessments"
        } ]
      },
      "subject": {
        "reference": "Patient/d55f8386-5fbc-4278-b297-703cacccbb20",
        "display": "Kari CCDA Kidd"
      }
    }
  }, {
    "resource": {
      "resourceType": "Procedure",
      "id": "0e3f13b0-d677-4e73-a1a1-1c52b68311de",
      "identifier": [ {
        "use": "official",
        "system": "urn:oid:1.3.6.1.4.1.22812.11.0.100610.4.7",
        "value": "1898101"
      } ],
      "status": "in-progress",
      "subject": {
        "reference": "Patient/d55f8386-5fbc-4278-b297-703cacccbb20",
        "display": "Kari CCDA Kidd"
      }
    }
  }, {
    "resource": {
      "resourceType": "AllergyIntolerance",
      "id": "ef930f2b-0d03-425f-84dd-16d57b01e440",
      "identifier": [ {
        "use": "official",
        "system": "urn:oid:1.3.6.1.4.1.22812.11.0.100610.4.10",
        "value": "37900060"
      } ],
      "clinicalStatus": {
        "coding": [ {
          "system": "http://terminology.hl7.org/CodeSystem/allergyintolerance-clinical",
          "code": "active",
          "display": "Active"
        } ]
      },
      "verificationStatus": {
        "coding": [ {
          "system": "http://terminology.hl7.org/CodeSystem/allergyintolerance-verification",
          "code": "confirmed",
          "display": "Confirmed"
        } ]
      },
      "type": "allergy",
      "category": [ "medication" ],
      "code": {
        "coding": [ {
          "system": "http://www.nlm.nih.gov/research/umls/rxnorm",
          "code": "7982",
          "display": "penicillin G benzathine"
        } ],
        "text": "penicillin G benzathine"
      },
      "patient": {
        "reference": "Patient/d55f8386-5fbc-4278-b297-703cacccbb20",
        "display": "Kari CCDA Kidd"
      },
      "recorder": {
        "reference": "Practitioner/b4031d37-26b0-4f4a-9d1b-90cba380a238"
      },
      "reaction": [ {
        "manifestation": [ {
          "text": "Hives"
        } ]
      } ]
    }
  }, {
    "resource": {
      "resourceType": "Practitioner",
      "id": "b4031d37-26b0-4f4a-9d1b-90cba380a238"
    }
  } ]
}