{
  "resourceType": "Bundle",
  "entry": [ {
    "resource": {
      "resourceType": "Composition",
      "id": "dcdef99a-fafa-4a30-bf34-03344a094714",
      "identifier": {
        "use": "official",
        "system": "urn:oid:1.3.6.1.4.1.22812.11.0.100610.1",
        "value": "0"
      },
      "status": "preliminary",
      "type": {
        "coding": [ {
          "system": "http://loinc.org",
          "code": "34133-9",
          "display": "SUMMARIZATION OF EPISODE NOTE"
        } ]
      },
      "category": [ {
        "coding": [ {
          "system": "http://hl7.org/fhir/ValueSet/doc-classcodes",
          "code": "LP173421-7",
          "display": "Note"
        } ]
      } ],
      "subject": {
        "reference": "Patient/c0c419e6-5e81-44d5-8b28-0b6c44af7a65",
        "display": "Adam Everyman"
      },
      "date": "2013-06-17T11:44:50-04:00",
      "author": [ {
        "reference": "Practitioner/7abb44bb-1a2b-46fb-9167-4b593906d89a",
        "display": "Aaron Admit"
      }, {
        "reference": "Device/82e06d16-b94a-464a-af09-6acfa10236db"
      } ],
      "title": "Visit Summary",
      "confidentiality": "N",
      "custodian": {
        "reference": "Organization/7a980516-95a0-4395-8e0f-4ad4db3cb3c8",
        "display": "Family Practice Clinic S2V"
      },
      "event": [ {
        "period": {
          "start": "2012-03-30T13:32:00+02:00",
          "end": "0001-01-01T00:00:00+01:00"
        },
        "detail": [ {
          "reference": "Practitioner/94c794a6-2b0f-44ef-839d-e0147f151747",
          "display": "Henry Seven"
        }, {
          "reference": "Practitioner/a60958fe-f449-4731-a588-4f4f1aefff38",
          "display": "Robert Alexander"
        } ]
      } ],
      "section": [ {
        "title": "Results",
        "code": {
          "coding": [ {
            "system": "http://loinc.org",
            "code": "30954-2",
            "display": "Relevant diagnostic tests and/or laboratory data"
          } ]
        },
        "text": {
          "status": "additional",
          "div": "<div xmlns=\"http://www.w3.org/1999/xhtml\">            <table>              <thead>                <tr>                  <th>Date</th>                  <th>Description</th>                  <th>Value</th>                  <th>Details</th>                </tr>              </thead>              <tbody>                <tr>                  <td>                    <span>                      <span/>                    </span>                    <span>                      <br/>                    </span>                    <span/>                  </td>                  <td>                    <span>Result excluded/not available</span>                  </td>                  <td>                    <span>                    </span>                  </td>                  <td/>                </tr>                <tr>                  <td/>                  <td/>                  <td/>                  <td/>                </tr>              </tbody>            </table>          </div>"
        },
        "mode": "snapshot",
        "entry": [ {
          "reference": "DiagnosticReport/2f6af09b-15f1-4a0c-9fff-9290066bb6d8"
        } ]
      }, {
        "title": "Immunization",
        "code": {
          "coding": [ {
            "system": "http://loinc.org",
            "code": "11369-6",
            "display": "Immunizations"
          } ]
        },
        "text": {
          "status": "additional",
          "div": "<div xmlns=\"http://www.w3.org/1999/xhtml\">            <table>              <thead>                <tr>                  <th>Name</th>                  <th>Dates</th>                  <th>Details</th>                </tr>              </thead>              <tbody>                <tr>                  <td>                    <span>                      <span>Influenza, seasonal, injectable, preservative free</span>                    </span>                    <span>                      <br/>                    </span>                    <span>Lot #: </span>                    <span>Z0860BB</span>                  </td>                  <td>                    <span>                      <span>Administered on<span>:</span></span>                      <span>30-Mar-2012</span>                    </span>                  </td>                  <td>                    <span>                      <span> Site: </span>                      <span>                        <span>Left arm</span>                      </span>                    </span>                    <span>                      <br/>                    </span>                    <span>                      <span>                      </span>                    </span>                    <span>                      <br/>                    </span>                  </td>                </tr>              </tbody>            </table>          </div>"
        },
        "mode": "snapshot",
        "entry": [ {
          "reference": "Immunization/4858f89f-2ea0-4813-bb9d-6b3aea35b9ce",
          "display": "Influenza, seasonal, injectable, preservative free"
        } ]
      }, {
        "title": "Medications",
        "code": {
          "coding": [ {
            "system": "http://loinc.org",
            "code": "10160-0",
            "display": "History of medication use"
          } ]
        },
        "text": {
          "status": "additional",
          "div": "<div xmlns=\"http://www.w3.org/1999/xhtml\">            <table>              <thead>                <tr>                  <th>Name</th>                  <th>Dates</th>                  <th>Details</th>                </tr>              </thead>              <tbody>                <tr>                  <td>                    <span>                      <span>Medication excluded/not available</span>                    </span>                    <span>                      <br/>                    </span>                    <span>                      <span/>                    </span>                  </td>                  <td/>                  <td>                    <span>                      <span/>                      <span>                      </span>                    </span>                  </td>                </tr>              </tbody>            </table>          </div>"
        },
        "mode": "snapshot"
      }, {
        "title": "Assessments",
        "code": {
          "coding": [ {
            "system": "http://loinc.org",
            "code": "51848-0",
            "display": "Assessments"
          } ]
        },
        "text": {
          "status": "additional",
          "div": "<div xmlns=\"http://www.w3.org/1999/xhtml\">            <ul>              <li>                <span>Assessment excluded/not available</span>              </li>            </ul>          </div>"
        },
        "mode": "snapshot",
        "entry": [ {
          "reference": "ClinicalImpression/90b00330-076c-4e99-a40d-82a1927234ba",
          "display": "Assessments"
        } ]
      }, {
        "title": "Problems",
        "code": {
          "coding": [ {
            "system": "http://loinc.org",
            "code": "11450-4",
            "display": "Problem List"
          } ]
        },
        "text": {
          "status": "additional",
          "div": "<div xmlns=\"http://www.w3.org/1999/xhtml\">            <table>              <thead>                <tr>                  <th>Name</th>                  <th>Dates</th>                  <th>Details</th>                </tr>              </thead>              <tbody>                <tr>                  <td>                    <span>                      <span>Essential hypertension</span>                    </span>                    <span>                      <span/>                    </span>                    <span>                      <br/>                    </span>                  </td>                  <td>                    <span>                      <span>Onset<span>:</span></span>                      <span>30-Mar-2012</span>                    </span>                  </td>                  <td>                    <span>                      <span>                      </span>                    </span>                    <span>                      <br/>                    </span>                    <span>                      <span>                        <span>Status: </span>                        <span>Active</span>                      </span>                    </span>                  </td>                </tr>              </tbody>            </table>          </div>"
        },
        "mode": "snapshot",
        "entry": [ {
          "reference": "Condition/d2aa1412-3553-4649-84ab-b8e5e26a1213",
          "display": "Essential hypertension"
        } ]
      }, {
        "title": "Plan of Care",
        "code": {
          "coding": [ {
            "system": "http://loinc.org",
            "code": "18776-5",
            "display": "Plan of Care"
          } ]
        },
        "text": {
          "status": "additional",
          "div": "<div xmlns=\"http://www.w3.org/1999/xhtml\">            <ul>              <caption>Planned Acts</caption>              <li>                <table>                  <thead>                    <tr>                      <th>Name</th>                      <th>Dates</th>                      <th>Details</th>                    </tr>                  </thead>                  <tbody>                    <tr>                      <td>                        <span>                          <span>                            <span>Smoking cessation, Weight loss</span>                          </span>                        </span>                      </td>                      <td/>                      <td>                        <span>                          <span>Intent</span>                        </span>                      </td>                    </tr>                  </tbody>                </table>              </li>            </ul>            <ul>              <caption>Planned Observations</caption>              <li>                <table>                  <thead>                    <tr>                      <th>Name</th>                      <th>Dates</th>                      <th>Details</th>                    </tr>                  </thead>                  <tbody>                    <tr>                      <td>                        <span>                          <span>                            <span>Plan Of Care Entry excluded/not available</span>                          </span>                        </span>                      </td>                      <td/>                      <td>                        <span>                          <span>Goal</span>                        </span>                      </td>                    </tr>                  </tbody>                </table>              </li>            </ul>          </div>"
        },
        "mode": "snapshot",
        "entry": [ {
          "reference": "CarePlan/4936cb6f-29bd-41d8-a343-8db33732e7a5"
        } ]
      }, {
        "title": "Social History",
        "code": {
          "coding": [ {
            "system": "http://loinc.org",
            "code": "29762-2",
            "display": "Social History"
          } ]
        },
        "text": {
          "status": "additional",
          "div": "<div xmlns=\"http://www.w3.org/1999/xhtml\">            <ul>              <caption>Smoking Status</caption>              <li>                <span>Smoker. current stants unknown</span>                <span> Started 9-Mar-2011</span>              </li>            </ul>          </div>"
        },
        "mode": "snapshot",
        "entry": [ {
          "reference": "Observation/fc570f34-183e-416f-b97b-3035dfa2aff8",
          "display": "Assertion"
        } ]
      }, {
        "title": "Procedures",
        "code": {
          "coding": [ {
            "system": "http://loinc.org",
            "code": "47519-4",
            "display": "History of Procedures"
          } ]
        },
        "text": {
          "status": "additional",
          "div": "<div xmlns=\"http://www.w3.org/1999/xhtml\">            <table>              <thead>                <tr>                  <th>Procedure</th>                  <th>Dates</th>                  <th>Details</th>                </tr>              </thead>              <tbody>                <tr>                  <td>                    <span>Procedure excluded/not available</span>                  </td>                  <td/>                  <td/>                </tr>              </tbody>            </table>          </div>"
        },
        "mode": "snapshot",
        "entry": [ {
          "reference": "Procedure/c11e7f9f-8a00-4281-95ff-0e7f2dc577f0"
        } ]
      }, {
        "title": "Encounters",
        "code": {
          "coding": [ {
            "system": "http://loinc.org",
            "code": "46240-8",
            "display": "Encounters"
          } ]
        },
        "text": {
          "status": "additional",
          "div": "<div xmlns=\"http://www.w3.org/1999/xhtml\">            <table>              <tbody>                <tr>                  <td>                    <span>                      <span>Outpatient</span>                    </span>                    <span>                      <br/>                    </span>                    <span>                      <span>Encounter Diagnosis: </span>                      <span>Essential hypertension</span>                    </span>                    <span>                      <span>                      </span>                      <span>                        <span>Active</span>                      </span>                    </span>                    <span>                      <span>Family Practice Clinic S2V</span>                    </span>                    <span>                      <br/>                    </span>                    <span>                      <br/>                    </span>                    <span>                      <span> Alexander</span>, Robert </span>                  </td>                  <td>                    <span>                      <span>30-Mar-2012</span>                      <span> to </span>                      <span>1-Jan-0001</span>                    </span>                  </td>                </tr>                <tr>                  <td>                    <span>                      <span>Outpatient</span>                    </span>                    <span>                      <br/>                    </span>                    <span>                      <span>Encounter Diagnosis: </span>                      <span>Asthma</span>                    </span>                    <span>                      <span>                      </span>                      <span>                        <span>Active</span>                      </span>                    </span>                    <span>                      <br/>                    </span>                    <span>                      <span> Seven</span>, Henry </span>                  </td>                  <td>                    <span>                      <span>On </span>                      <span>25-Sep-2011</span>                    </span>                    <span>                      <br/>                    </span>                    <span>                      <span>1:16 PM</span>                      <span> to </span>                      <span>4:16 PM</span>                    </span>                  </td>                </tr>              </tbody>            </table>          </div>"
        },
        "mode": "snapshot",
        "entry": [ {
          "reference": "Encounter/e7f12e35-5f6e-4c4f-b0cf-c26147f89f5a",
          "display": "Outpatient"
        }, {
          "reference": "Encounter/63dd517f-bfc9-426f-b120-0b939f559b62",
          "display": "Outpatient"
        } ]
      }, {
        "title": "Allergies and Adverse Reactions",
        "code": {
          "coding": [ {
            "system": "http://loinc.org",
            "code": "48765-2",
            "display": "Allergies, adverse reactions, alerts"
          } ]
        },
        "text": {
          "status": "additional",
          "div": "<div xmlns=\"http://www.w3.org/1999/xhtml\">            <table>              <thead>                <tr>                  <th>Name</th>                  <th>Dates</th>                  <th>Details</th>                </tr>              </thead>              <tbody>                <tr>                  <td>                    <span>                      <span>Allergy excluded/not available</span>                    </span>                  </td>                  <td>                    <span/>                  </td>                  <td>                    <span>                      <span>Status: </span>                      <span>                      </span>                    </span>                  </td>                </tr>              </tbody>            </table>          </div>"
        },
        "mode": "snapshot",
        "entry": [ {
          "reference": "AllergyIntolerance/5d00cff5-132e-45b9-a840-909d53a4fd3b"
        } ]
      } ]
    }
  }, {
    "resource": {
      "resourceType": "Patient",
      "id": "c0c419e6-5e81-44d5-8b28-0b6c44af7a65",
      "extension": [ {
        "url": "http://hl7.org/fhir/us/core/StructureDefinition/us-core-race",
        "extension": [ {
          "url": "text",
          "valueString": "White"
        }, {
          "url": "ombCategory",
          "valueCoding": {
            "system": "urn:oid:2.16.840.1.113883.6.238",
            "code": "2106-3",
            "display": "White"
          }
        } ]
      }, {
        "url": "http://hl7.org/fhir/us/core/StructureDefinition/us-core-ethnicity",
        "extension": [ {
          "url": "text",
          "valueString": "Not Hispanic or Latino"
        }, {
          "url": "ombCategory",
          "valueCoding": {
            "system": "urn:oid:2.16.840.1.113883.6.238",
            "code": "2186-5",
            "display": "Not Hispanic or Latino"
          }
        } ]
      } ],
      "identifier": [ {
        "use": "official",
        "system": "urn:oid:1.3.6.1.4.1.22812.11.0.100610",
        "value": "101646"
      } ],
      "name": [ {
        "use": "usual",
        "family": "Everyman",
        "given": [ "Adam" ]
      } ],
      "gender": "male",
      "birthDate": "1962-10-22",
      "communication": [ {
        "language": {
          "coding": [ {
            "system": "urn:ietf:bcp:47",
            "code": "eng"
          } ]
        },
        "preferred": true
      } ],
      "managingOrganization": {
        "reference": "Organization/7a980516-95a0-4395-8e0f-4ad4db3cb3c8",
        "display": "Family Practice Clinic S2V"
      }
    }
  }, {
    "resource": {
      "resourceType": "Organization",
      "id": "7a980516-95a0-4395-8e0f-4ad4db3cb3c8",
      "identifier": [ {
        "use": "official",
        "system": "urn:oid:1.3.6.1.4.1.22812.11.0.100610",
        "value": "100610"
      } ],
      "name": "Family Practice Clinic S2V",
      "telecom": [ {
        "system": "phone",
        "value": "+1-(555)777-0"
      } ],
      "address": [ {
        "line": [ "1230 West Boulevard", "Building 1" ],
        "city": "Harrisburg",
        "postalCode": "17102",
        "country": "US"
      } ]
    }
  }, {
    "resource": {
      "resourceType": "Practitioner",
      "id": "7abb44bb-1a2b-46fb-9167-4b593906d89a",
      "identifier": [ {
        "use": "official",
        "system": "urn:oid:2.16.840.1.113883.4.6",
        "value": "1108434006"
      }, {
        "use": "official",
        "system": "urn:oid:1.3.6.1.4.1.22812.11.0.100610",
        "value": "118301190"
      } ],
      "name": [ {
        "family": "Admit",
        "given": [ "Aaron" ]
      } ],
      "telecom": [ {
        "system": "email",
        "value": "Aaron.Admit@direct.medalliesdirect.com"
      } ],
      "address": [ {
        "line": [ "1006 Healthcare Drive" ],
        "city": "Portland",
        "postalCode": "97005-0001"
      } ]
    }
  }, {
    "resource": {
      "resourceType": "Device",
      "id": "82e06d16-b94a-464a-af09-6acfa10236db",
      "identifier": [ {
        "use": "official",
        "system": "urn:oid:1.3.6.1.4.1.22812.11.0.100610.3.3",
        "value": "100610"
      } ],
      "manufacturer": "Sunrise Clinical Manager ",
      "type": {
        "coding": [ {
          "display": "Sunrise Clinical Manager "
        } ]
      },
      "version": [ {
        "value": "Sunrise Clinical Manager ; Transform 4.1.1.17"
      } ],
      "owner": {
        "reference": "Organization/7a980516-95a0-4395-8e0f-4ad4db3cb3c8"
      }
    }
  }, {
    "resource": {
      "resourceType": "Practitioner",
      "id": "94c794a6-2b0f-44ef-839d-e0147f151747",
      "identifier": [ {
        "use": "official",
        "system": "http://hl7.org/fhir/sid/us-npi",
        "value": "1768234506"
      } ],
      "name": [ {
        "family": "Seven",
        "given": [ "Henry" ]
      } ],
      "telecom": [ {
        "system": "phone",
        "value": "+1-(555)555-1002",
        "use": "work"
      }, {
        "system": "email",
        "value": "seven.henry@direct.medalliesdirect.com"
      } ],
      "address": [ {
        "use": "work",
        "line": [ "Get Well Clinic", "1002 Healthcare Dr." ],
        "city": "Portland",
        "postalCode": "97005-2187",
        "country": "US"
      } ]
    }
  }, {
    "resource": {
      "resourceType": "Practitioner",
      "id": "a60958fe-f449-4731-a588-4f4f1aefff38",
      "identifier": [ {
        "use": "official",
        "system": "http://hl7.org/fhir/sid/us-npi",
        "value": "1972815777"
      } ],
      "name": [ {
        "family": "Alexander",
        "given": [ "Robert" ]
      } ],
      "telecom": [ {
        "system": "phone",
        "value": "+1-(770)456-4567",
        "use": "work"
      }, {
        "system": "email",
        "value": "glenn.jenkins@allscripts.com"
      } ],
      "address": [ {
        "use": "work",
        "line": [ "allscripts Rd", "123 maine st" ],
        "city": "atlanta",
        "postalCode": "30303-0000",
        "country": "US"
      } ]
    }
  }, {
    "resource": {
      "resourceType": "DiagnosticReport",
      "id": "2f6af09b-15f1-4a0c-9fff-9290066bb6d8",
      "identifier": [ {
        "use": "official",
        "system": "urn:oid:1.3.6.1.4.1.22812.11.0.100610.4.5",
        "value": "18981711"
      } ],
      "status": "final",
      "category": [ {
        "coding": [ {
          "system": "http://terminology.hl7.org/CodeSystem/v2-0074",
          "code": "LAB",
          "display": "Laboratory"
        } ]
      } ],
      "subject": {
        "reference": "Patient/c0c419e6-5e81-44d5-8b28-0b6c44af7a65",
        "display": "Adam Everyman"
      },
      "effectivePeriod": {
        "start": "0001-01-01T00:00:00+01:00"
      },
      "issued": "0001-01-01T00:00:00.000+01:00",
      "result": [ {
        "reference": "Observation/5a220fc7-6760-46f7-b2c2-81fc3a493072"
      } ]
    }
  }, {
    "resource": {
      "resourceType": "Observation",
      "id": "5a220fc7-6760-46f7-b2c2-81fc3a493072",
      "identifier": [ {
        "use": "official",
        "system": "urn:oid:1.3.6.1.4.1.22812.11.0.100610.4.5",
        "value": "1898171"
      } ],
      "status": "final",
      "category": [ {
        "coding": [ {
          "system": "http://terminology.hl7.org/CodeSystem/observation-category",
          "code": "laboratory"
        } ]
      } ],
      "subject": {
        "reference": "Patient/c0c419e6-5e81-44d5-8b28-0b6c44af7a65",
        "display": "Adam Everyman"
      },
      "dataAbsentReason": {
        "coding": [ {
          "system": "http://hl7.org/fhir/data-absent-reason",
          "code": "unknown",
          "display": "Unkown"
        } ]
      },
      "interpretation": [ {
        "coding": [ {
          "system": "http://terminology.hl7.org/CodeSystem/v3-ObservationInterpretation"
        } ]
      } ]
    }
  }, {
    "resource": {
      "resourceType": "Immunization",
      "id": "4858f89f-2ea0-4813-bb9d-6b3aea35b9ce",
      "identifier": [ {
        "use": "official",
        "system": "urn:oid:1.3.6.1.4.1.22812.11.0.100610.4.4",
        "value": "9392"
      } ],
      "status": "completed",
      "vaccineCode": {
        "coding": [ {
          "system": "http://www2a.cdc.gov/vaccines/iis/iisstandards/vaccines.asp?rpt=cvx",
          "code": "140",
          "display": "Influenza, seasonal, injectable, preservative free"
        } ],
        "text": "Influenza, seasonal, injectable, preservative free"
      },
      "patient": {
        "reference": "Patient/c0c419e6-5e81-44d5-8b28-0b6c44af7a65",
        "display": "Adam Everyman"
      },
      "occurrenceDateTime": "2012-03-30",
      "primarySource": true,
      "manufacturer": {
        "reference": "Organization/842c607d-1e9b-44c7-94f1-09a46d4842ed",
        "display": "CSL Behring, Inc"
      },
      "lotNumber": "Z0860BB",
      "site": {
        "coding": [ {
          "system": "http://snomed.info/sct",
          "code": "368208006",
          "display": "Left arm"
        } ]
      },
      "route": {
        "coding": [ {
          "system": "http://www.nlm.nih.gov/research/umls/nci",
          "code": "C28161",
          "display": "INTRAMUSCULAR"
        } ]
      },
      "doseQuantity": {
        "value": 0.5000,
        "unit": "ml",
        "system": "http://unitsofmeasure.org/ucum.html"
      },
      "performer": [ {
        "function": {
          "coding": [ {
            "system": "http://hl7.org/fhir/v2/0443",
            "code": "AP",
            "display": "Administering Provider"
          } ]
        },
        "actor": {
          "reference": "Practitioner/a0cc53f7-a489-429a-980c-fca0ef4b6b01",
          "display": "Nancy Nightingale"
        }
      } ]
    }
  }, {
    "resource": {
      "resourceType": "Organization",
      "id": "842c607d-1e9b-44c7-94f1-09a46d4842ed",
      "name": "CSL Behring, Inc"
    }
  }, {
    "resource": {
      "resourceType": "Practitioner",
      "id": "a0cc53f7-a489-429a-980c-fca0ef4b6b01",
      "identifier": [ {
        "use": "official",
        "system": "http://hl7.org/fhir/sid/us-npi",
        "value": "1276903451"
      } ],
      "name": [ {
        "family": "Nightingale",
        "given": [ "Nancy" ]
      } ],
      "telecom": [ {
        "system": "email",
        "value": "Nancy.Nightingale@direct.medalliesdirect.com"
      } ],
      "address": [ {
        "line": [ "1004 Healthcare Dr" ],
        "city": "Portland",
        "postalCode": "97005-0000"
      } ]
    }
  }, {
    "resource": {
      "resourceType": "ClinicalImpression",
      "id": "90b00330-076c-4e99-a40d-82a1927234ba",
      "status": "completed",
      "code": {
        "coding": [ {
          "system": "http://loinc.org",
          "code": "51848-0",
          "display": "Assessments"
        } ]
      },
      "subject": {
        "reference": "Patient/c0c419e6-5e81-44d5-8b28-0b6c44af7a65",
        "display": "Adam Everyman"
      }
    }
  }, {
    "resource": {
      "resourceType": "Condition",
      "id": "d2aa1412-3553-4649-84ab-b8e5e26a1213",
      "identifier": [ {
        "use": "official",
        "system": "urn:oid:1.3.6.1.4.1.22812.11.0.100610.4.1.2.1",
        "value": "716800500"
      } ],
      "clinicalStatus": {
        "coding": [ {
          "system": "http://terminology.hl7.org/CodeSystem/condition-clinical",
          "code": "active",
          "display": "Active"
        } ]
      },
      "verificationStatus": {
        "coding": [ {
          "system": "http://terminology.hl7.org/CodeSystem/condition-ver-status",
          "code": "refuted",
          "display": "Refuted"
        } ]
      },
      "category": [ {
        "coding": [ {
          "system": "http://terminology.hl7.org/CodeSystem/condition-category",
          "code": "problem-list-item",
          "display": "Problem List Item"
        } ]
      } ],
      "code": {
        "coding": [ {
          "system": "http://snomed.info/sct",
          "code": "59621000",
          "display": "Essential hypertension"
        }, {
          "system": "urn:oid:2.16.840.1.113883.6.103",
          "code": "401.9",
          "display": "Essential hypertension"
        }, {
          "system": "urn:oid:2.16.840.1.113883.6.90",
          "code": "I10",
          "display": "Essential hypertension"
        } ],
        "text": "Essential hypertension"
      },
      "subject": {
        "reference": "Patient/c0c419e6-5e81-44d5-8b28-0b6c44af7a65",
        "display": "Adam Everyman"
      },
      "onsetDateTime": "2012-03-30",
      "recordedDate": "2013-05-09T13:34:43+02:00",
      "asserter": {
        "reference": "Practitioner/80ba828c-3098-4e31-a04a-40d1d2e93e43"
      }
    }
  }, {
    "resource": {
      "resourceType": "Practitioner",
      "id": "80ba828c-3098-4e31-a04a-40d1d2e93e43"
    }
  }, {
    "resource": {
      "resourceType": "CarePlan",
      "id": "4936cb6f-29bd-41d8-a343-8db33732e7a5",
      "text": {
        "status": "additional",
        "div": "<div xmlns=\"http://www.w3.org/1999/xhtml\">            <ul>              <caption>Planned Acts</caption>              <li>                <table>                  <thead>                    <tr>                      <th>Name</th>                      <th>Dates</th>                      <th>Details</th>                    </tr>                  </thead>                  <tbody>                    <tr>                      <td>                        <span>                          <span>                            <span>Smoking cessation, Weight loss</span>                          </span>                        </span>                      </td>                      <td/>                      <td>                        <span>                          <span>Intent</span>                        </span>                      </td>                    </tr>                  </tbody>                </table>              </li>            </ul>            <ul>              <caption>Planned Observations</caption>              <li>                <table>                  <thead>                    <tr>                      <th>Name</th>                      <th>Dates</th>                      <th>Details</th>                    </tr>                  </thead>                  <tbody>                    <tr>                      <td>                        <span>                          <span>                            <span>Plan Of Care Entry excluded/not available</span>                          </span>                        </span>                      </td>                      <td/>                      <td>                        <span>                          <span>Goal</span>                        </span>                      </td>                    </tr>                  </tbody>                </table>              </li>            </ul>          </div>"
      },
      "status": "active",
      "intent": "plan",
      "category": [ {
        "coding": [ {
          "system": "http://hl7.org/fhir/us/core/CodeSystem/careplan-category",
          "code": "assess-plan"
        } ]
      } ],
      "title": "Plan of Care",
      "description": "<div>            <ul>              <caption>Planned Acts</caption>              <li>                <table>                  <thead>                    <tr>                      <th>Name</th>                      <th>Dates</th>                      <th>Details</th>                    </tr>                  </thead>                  <tbody>                    <tr>                      <td>                        <span>                          <span>                            <span>Smoking cessation, Weight loss</span>                          </span>                        </span>                      </td>                      <td></td>                      <td>                        <span>                          <span>Intent</span>                        </span>                      </td>                    </tr>                  </tbody>                </table>              </li>            </ul>            <ul>              <caption>Planned Observations</caption>              <li>                <table>                  <thead>                    <tr>                      <th>Name</th>                      <th>Dates</th>                      <th>Details</th>                    </tr>                  </thead>                  <tbody>                    <tr>                      <td>                        <span>                          <span>                            <span>Plan Of Care Entry excluded/not available</span>                          </span>                        </span>                      </td>                      <td></td>                      <td>                        <span>                          <span>Goal</span>                        </span>                      </td>                    </tr>                  </tbody>                </table>              </li>            </ul>          </div>",
      "subject": {
        "reference": "Patient/c0c419e6-5e81-44d5-8b28-0b6c44af7a65",
        "display": "Adam Everyman"
      },
      "activity": [ {
        "reference": {
          "reference": "ServiceRequest/da3190ed-b197-4106-9cd2-8eca8e35f91b",
          "display": "Smoking cessation"
        }
      } ]
    }
  }, {
    "resource": {
      "resourceType": "ServiceRequest",
      "id": "da3190ed-b197-4106-9cd2-8eca8e35f91b",
      "text": {
        "status": "additional",
        "div": "<div xmlns=\"http://www.w3.org/1999/xhtml\">Smoking cessation, Weight loss</div>"
      },
      "identifier": [ {
        "use": "official",
        "system": "urn:oid:1.3.6.1.4.1.22812.11.0.100610.4.13.1",
        "value": "INT"
      } ],
      "status": "active",
      "intent": "plan",
      "code": {
        "coding": [ {
          "system": "http://snomed.info/sct",
          "code": "225323000",
          "display": "Smoking cessation"
        } ]
      },
      "subject": {
        "reference": "Patient/c0c419e6-5e81-44d5-8b28-0b6c44af7a65",
        "display": "Adam Everyman"
      }
    }
  }, {
    "resource": {
      "resourceType": "Observation",
      "id": "fc570f34-183e-416f-b97b-3035dfa2aff8",
      "status": "final",
      "code": {
        "coding": [ {
          "system": "urn:oid:2.16.840.1.113883.5.4",
          "code": "ASSERTION",
          "display": "Assertion"
        } ]
      },
      "subject": {
        "reference": "Patient/c0c419e6-5e81-44d5-8b28-0b6c44af7a65",
        "display": "Adam Everyman"
      },
      "effectivePeriod": {
        "start": "2011-03-09T00:00:00+01:00"
      },
      "valueCodeableConcept": {
        "coding": [ {
          "system": "http://snomed.info/sct",
          "code": "77176002",
          "display": "Smoker. current stants unknown"
        } ]
      }
    }
  }, {
    "resource": {
      "resourceType": "Procedure",
      "id": "c11e7f9f-8a00-4281-95ff-0e7f2dc577f0",
      "identifier": [ {
        "use": "official",
        "system": "urn:oid:1.3.6.1.4.1.22812.11.0.100610.4.7",
        "value": "1898101"
      } ],
      "status": "in-progress",
      "subject": {
        "reference": "Patient/c0c419e6-5e81-44d5-8b28-0b6c44af7a65",
        "display": "Adam Everyman"
      }
    }
  }, {
    "resource": {
      "resourceType": "Encounter",
      "id": "e7f12e35-5f6e-4c4f-b0cf-c26147f89f5a",
      "identifier": [ {
        "use": "official",
        "system": "urn:oid:1.3.6.1.4.1.22812.11.0.100610.3.4",
        "value": "202400270"
      } ],
      "status": "finished",
      "type": [ {
        "coding": [ {
          "system": "urn:oid:2.16.840.1.113883.5.4"
        } ],
        "text": "Outpatient"
      } ],
      "subject": {
        "reference": "Patient/c0c419e6-5e81-44d5-8b28-0b6c44af7a65",
        "display": "Adam Everyman"
      },
      "participant": [ {
        "type": [ {
          "coding": [ {
            "system": "http://terminology.hl7.org/CodeSystem/v3-ParticipationType",
            "code": "PART",
            "display": "Participation"
          } ]
        } ],
        "period": {
          "start": "2012-03-30T13:32:00+02:00",
          "end": "0001-01-01T00:00:00+01:00"
        },
        "individual": {
          "reference": "Practitioner/a60958fe-f449-4731-a588-4f4f1aefff38",
          "display": "Robert Alexander"
        }
      } ],
      "period": {
        "start": "2012-03-30T13:32:00+02:00",
        "end": "0001-01-01T00:00:00+01:00"
      },
      "diagnosis": [ {
        "condition": {
          "reference": "Condition/d2aa1412-3553-4649-84ab-b8e5e26a1213",
          "display": "Essential hypertension"
        }
      } ],
      "location": [ {
        "location": {
          "reference": "Location/56dda471-4ca7-4d9b-b1a6-8745e920f1d4",
          "display": "Family Practice Clinic S2V"
        }
      } ]
    }
  }, {
    "resource": {
      "resourceType": "Location",
      "id": "56dda471-4ca7-4d9b-b1a6-8745e920f1d4",
      "name": "Family Practice Clinic S2V"
    }
  }, {
    "resource": {
      "resourceType": "Encounter",
      "id": "63dd517f-bfc9-426f-b120-0b939f559b62",
      "identifier": [ {
        "use": "official",
        "system": "urn:oid:1.3.6.1.4.1.22812.11.0.100610.3.4",
        "value": "202300270"
      } ],
      "status": "finished",
      "type": [ {
        "coding": [ {
          "system": "urn:oid:2.16.840.1.113883.5.4"
        } ],
        "text": "Outpatient"
      } ],
      "subject": {
        "reference": "Patient/c0c419e6-5e81-44d5-8b28-0b6c44af7a65",
        "display": "Adam Everyman"
      },
      "participant": [ {
        "type": [ {
          "coding": [ {
            "system": "http://terminology.hl7.org/CodeSystem/v3-ParticipationType",
            "code": "PART",
            "display": "Participation"
          } ]
        } ],
        "period": {
          "start": "2011-09-25T13:16:00+02:00",
          "end": "2011-09-25T16:16:00+02:00"
        },
        "individual": {
          "reference": "Practitioner/94c794a6-2b0f-44ef-839d-e0147f151747",
          "display": "Henry Seven"
        }
      } ],
      "period": {
        "start": "2011-09-25T13:16:00+02:00",
        "end": "2011-09-25T16:16:00+02:00"
      },
      "diagnosis": [ {
        "condition": {
          "reference": "Condition/ebf0ff36-5549-428b-b322-2aabcfda7939",
          "display": "Asthma"
        }
      } ],
      "location": [ {
        "location": {
          "reference": "Location/e40a707b-89ee-4ae2-8371-aaf0ccf956d7"
        }
      } ]
    }
  }, {
    "resource": {
      "resourceType": "Condition",
      "id": "ebf0ff36-5549-428b-b322-2aabcfda7939",
      "identifier": [ {
        "use": "official",
        "system": "urn:oid:1.3.6.1.4.1.22812.11.0.100610.4.1.2.1",
        "value": "716700500"
      } ],
      "clinicalStatus": {
        "coding": [ {
          "system": "http://terminology.hl7.org/CodeSystem/condition-clinical",
          "code": "active",
          "display": "Active"
        } ]
      },
      "verificationStatus": {
        "coding": [ {
          "system": "http://terminology.hl7.org/CodeSystem/condition-ver-status",
          "code": "confirmed",
          "display": "Confirmed"
        } ]
      },
      "category": [ {
        "coding": [ {
          "system": "http://terminology.hl7.org/CodeSystem/condition-category",
          "code": "problem-list-item",
          "display": "Problem List Item"
        } ]
      } ],
      "code": {
        "text": "Asthma"
      },
      "subject": {
        "reference": "Patient/c0c419e6-5e81-44d5-8b28-0b6c44af7a65",
        "display": "Adam Everyman"
      },
      "recordedDate": "2013-05-09T13:21:35+02:00",
      "asserter": {
        "reference": "Practitioner/30f1c989-31f6-4ad0-a58e-60dfa1ce272b"
      }
    }
  }, {
    "resource": {
      "resourceType": "Practitioner",
      "id": "30f1c989-31f6-4ad0-a58e-60dfa1ce272b"
    }
  }, {
    "resource": {
      "resourceType": "Location",
      "id": "e40a707b-89ee-4ae2-8371-aaf0ccf956d7"
    }
  }, {
    "resource": {
      "resourceType": "AllergyIntolerance",
      "id": "5d00cff5-132e-45b9-a840-909d53a4fd3b",
      "identifier": [ {
        "use": "official",
        "system": "urn:oid:1.3.6.1.4.1.22812.11.0.100610.4.10",
        "value": "1898111"
      } ],
      "clinicalStatus": {
        "coding": [ {
          "system": "http://terminology.hl7.org/CodeSystem/allergyintolerance-clinical",
          "code": "active",
          "display": "Active"
        } ]
      },
      "verificationStatus": {
        "coding": [ {
          "system": "http://terminology.hl7.org/CodeSystem/allergyintolerance-verification",
          "code": "confirmed",
          "display": "Confirmed"
        } ]
      },
      "type": "allergy",
      "category": [ "environment" ],
      "patient": {
        "reference": "Patient/c0c419e6-5e81-44d5-8b28-0b6c44af7a65",
        "display": "Adam Everyman"
      }
    }
  } ]
}