{
  "resourceType": "Bundle",
  "entry": [ {
    "resource": {
      "resourceType": "Composition",
      "id": "a0bfe95e-4d9c-4a70-81ed-14b483493e87",
      "identifier": {
        "use": "official",
        "value": "db734647-fc99-424c-a864-7e3cda82e703"
      },
      "status": "preliminary",
      "type": {
        "coding": [ {
          "system": "http://loinc.org",
          "code": "34133-9",
          "display": "Summarization of Episode Note"
        } ]
      },
      "category": [ {
        "coding": [ {
          "system": "http://hl7.org/fhir/ValueSet/doc-classcodes",
          "code": "LP173421-7",
          "display": "Note"
        } ]
      } ],
      "subject": {
        "reference": "Patient/f30ef668-ad0d-4bca-9f7c-a74318819777",
        "display": "Dale Saunders"
      },
      "date": "2014-04-16T11:55:12+02:00",
      "author": [ {
        "reference": "Practitioner/db5e3f5a-9f0a-4385-91c1-5989dada0191",
        "display": "Henry Seven MD"
      } ],
      "title": "Community Health and Hospitals: Health Summary",
      "confidentiality": "N",
      "attester": [ {
        "mode": "legal",
        "time": "2013-04-18T09:00:00+05:00",
        "party": {
          "reference": "Practitioner/600aa31f-b88b-493e-9916-ce038cb5fdc6",
          "display": "Henry Seven"
        }
      }, {
        "mode": "professional",
        "time": "2014-04-16T11:55:12+02:00",
        "party": {
          "reference": "Practitioner/600aa31f-b88b-493e-9916-ce038cb5fdc6",
          "display": "Henry Seven"
        }
      } ],
      "custodian": {
        "reference": "Organization/56de3c26-f49c-4c80-a570-8ca299fe90d6",
        "display": "Community Health and Hospitals"
      },
      "event": [ {
        "period": {
          "start": "2010-08-05T10:00:00+02:00",
          "end": "2010-10-10T10:00:00+02:00"
        },
        "detail": [ {
          "reference": "Practitioner/71ba8886-c5bf-416e-9cf4-e24a61e555e7",
          "display": "Henry Seven MD"
        } ]
      } ],
      "section": [ {
        "title": "Vital Signs",
        "code": {
          "coding": [ {
            "system": "http://loinc.org",
            "code": "8716-3",
            "display": "Vital Signs"
          } ]
        },
        "text": {
          "status": "additional",
          "div": "<div xmlns=\"http://www.w3.org/1999/xhtml\"><table><thead><tr><th>Group Description</th><th>Code System</th><th>Code</th><th>Code Description</th><th>Value</th><th>Unit</th><th>Date and Time</th><th>Status</th></tr></thead><tbody><tr><td>BMI</td><td>LOINC</td><td>39156-5</td><td><span/>BMI</td><td>23.7</td><td>kg/m2</td><td>08-05-2010 10:00:00</td><td>Finding</td></tr><tr><td>Diastolic Blood Pressure</td><td>LOINC</td><td>8462-4</td><td><span/>BP Diastolic</td><td>58</td><td>mm[Hg]</td><td>08-05-2010 10:00:00</td><td>Finding</td></tr><tr><td>Systolic Blood Pressure</td><td>LOINC</td><td>8480-6</td><td><span/>BP Systolic</td><td>100</td><td>mm[Hg]</td><td>08-05-2010 10:00:00</td><td>Finding</td></tr><tr><td>BMI</td><td>LOINC</td><td>39156-5</td><td><span/>BMI</td><td>23.7</td><td>kg/m2</td><td>08-10-2010 10:00:00</td><td>Finding</td></tr><tr><td>Diastolic Blood Pressure</td><td>LOINC</td><td>8462-4</td><td><span/>BP Diastolic</td><td>60</td><td>mm[Hg]</td><td>08-10-2010 10:00:00</td><td>Finding</td></tr><tr><td>Systolic Blood Pressure</td><td>LOINC</td><td>8480-6</td><td><span/>BP Systolic</td><td>106</td><td>mm[Hg]</td><td>08-10-2010 10:00:00</td><td>Finding</td></tr><tr><td>BMI</td><td>LOINC</td><td>39156-5</td><td><span/>BMI</td><td>23.4</td><td>kg/m2</td><td>08-20-2010 10:00:00</td><td>Finding</td></tr><tr><td>Diastolic Blood Pressure</td><td>LOINC</td><td>8462-4</td><td><span/>BP Diastolic</td><td>76</td><td>mm[Hg]</td><td>08-20-2010 10:00:00</td><td>Finding</td></tr><tr><td>Systolic Blood Pressure</td><td>LOINC</td><td>8480-6</td><td><span/>BP Systolic</td><td>120</td><td>mm[Hg]</td><td>08-20-2010 10:00:00</td><td>Finding</td></tr><tr><td>BMI</td><td>LOINC</td><td>39156-5</td><td><span/>BMI</td><td>23</td><td>kg/m2</td><td>08-26-2010 10:00:00</td><td>Finding</td></tr><tr><td>Diastolic Blood Pressure</td><td>LOINC</td><td>8462-4</td><td><span/>BP Diastolic</td><td>68</td><td>mm[Hg]</td><td>08-26-2010 10:00:00</td><td>Finding</td></tr><tr><td>Systolic Blood Pressure</td><td>LOINC</td><td>8480-6</td><td><span/>BP Systolic</td><td>114</td><td>mm[Hg]</td><td>08-26-2010 10:00:00</td><td>Finding</td></tr><tr><td>BMI</td><td>LOINC</td><td>39156-5</td><td><span/>BMI</td><td>23.7</td><td>kg/m2</td><td>09-01-2010 10:00:00</td><td>Finding</td></tr><tr><td>Diastolic Blood Pressure</td><td>LOINC</td><td>8462-4</td><td><span/>BP Diastolic</td><td>64</td><td>mm[Hg]</td><td>09-01-2010 10:00:00</td><td>Finding</td></tr><tr><td>Systolic Blood Pressure</td><td>LOINC</td><td>8480-6</td><td><span/>BP Systolic</td><td>110</td><td>mm[Hg]</td><td>09-01-2010 10:00:00</td><td>Finding</td></tr></tbody></table></div>"
        },
        "mode": "snapshot",
        "entry": [ {
          "reference": "Observation/141e7f85-c85f-4088-88d9-16a284d43624",
          "display": "BP Diastolic"
        }, {
          "reference": "Observation/a289cd90-c9d1-4bd4-ba42-8976aaeae653",
          "display": "BP Systolic"
        }, {
          "reference": "Observation/4e90b24d-67a8-411f-a44d-47ad85595f32",
          "display": "BMI"
        }, {
          "reference": "Observation/3387e306-a075-4744-b53b-dff7ca5fee75",
          "display": "BP Diastolic"
        }, {
          "reference": "Observation/c9ef1395-7461-4828-89d6-bc3579920ee7",
          "display": "BP Systolic"
        }, {
          "reference": "Observation/04569246-b683-4533-97ba-9c8c96d3c8df",
          "display": "BMI"
        }, {
          "reference": "Observation/78531a82-a271-4541-9508-3a78fd3d4b51",
          "display": "BP Diastolic"
        }, {
          "reference": "Observation/962fe171-10e4-4a92-8ede-edadf3cfeb50",
          "display": "BP Systolic"
        }, {
          "reference": "Observation/4b27d500-e88d-40dd-b604-6822169c1027",
          "display": "BMI"
        }, {
          "reference": "Observation/2dd7764f-f0b4-49ca-9935-2479d69fc6a4",
          "display": "BMI"
        }, {
          "reference": "Observation/34aa184e-74b8-4981-a898-dfb254dce5b0",
          "display": "BP Diastolic"
        }, {
          "reference": "Observation/6675f91e-2436-4bf6-8776-1b330cfe6931",
          "display": "BP Systolic"
        }, {
          "reference": "Observation/70f0c78f-a244-4d0b-90a4-72ed4e61dbe9",
          "display": "BP Diastolic"
        }, {
          "reference": "Observation/f790f20a-f687-49d5-b440-8339bd72f17c",
          "display": "BP Systolic"
        }, {
          "reference": "Observation/2058205b-db05-440b-a72e-199659509073",
          "display": "BMI"
        } ]
      }, {
        "title": "Medications",
        "code": {
          "coding": [ {
            "system": "http://loinc.org",
            "code": "10160-0",
            "display": "History of Medication Use"
          } ]
        },
        "text": {
          "status": "additional",
          "div": "<div xmlns=\"http://www.w3.org/1999/xhtml\"><table><thead><tr><th>Group Description</th><th>Code System</th><th>Code</th><th>Code Description</th><th>Date and Time</th><th>Status</th></tr></thead><tbody><tr><td>Antihypertensive combinations</td><td>RxNorm</td><td>858828</td><td><span/>Enalapril Maleate 10 MG / Hydrochlorothiazide 25 MG Oral Tablet</td><td>08-05-2010 10:00:00</td><td>Active</td></tr></tbody></table></div>"
        },
        "mode": "snapshot",
        "entry": [ {
          "reference": "MedicationStatement/e7b93b10-7ee5-4934-9f5f-3a9d38697d19",
          "display": "Enalapril Maleate 10 MG / Hydrochlorothiazide 25 MG Oral Tablet"
        } ]
      }, {
        "title": "Social History",
        "code": {
          "coding": [ {
            "system": "http://loinc.org",
            "code": "29762-2",
            "display": "Social History"
          } ]
        },
        "text": {
          "status": "additional",
          "div": "<div xmlns=\"http://www.w3.org/1999/xhtml\"><table><thead><tr><th>Group Description</th><th>Code System</th><th>Code</th><th>Code Description</th><th>Date and Time</th><th>Status</th></tr></thead><tbody><tr><td>Tobacco Use</td><td>SNOMED-CT</td><td>266919005</td><td><span/>Never smoker (Never Smoked)</td><td>08-05-2010 10:00:00</td><td>Active</td></tr><tr><td/><td>SNOMED-CT</td><td>449868002</td><td>Current every day smoker</td><td/><td/></tr></tbody></table></div>"
        },
        "mode": "snapshot",
        "entry": [ {
          "reference": "Observation/6bd7e02b-d1aa-4065-87ca-ec6788201233"
        } ]
      }, {
        "title": "Procedures",
        "code": {
          "coding": [ {
            "system": "http://loinc.org",
            "code": "47519-4",
            "display": "HISTORY OF PROCEDURES"
          } ]
        },
        "text": {
          "status": "additional",
          "div": "<div xmlns=\"http://www.w3.org/1999/xhtml\"><table><thead><tr><th>Group Description</th><th>Code System</th><th>Code</th><th>Code Description</th><th>Date and Time</th><th>Status</th></tr></thead><tbody><tr><td>Tobacco Use Cessation Counseling</td><td>CPT</td><td>99406</td><td><span/>Behav chng smoking 3-10 min</td><td>08-05-2010 10:00:00</td><td>Performed</td></tr><tr><td/><td>SNOMED-CT</td><td>384742004</td><td>Smoking cessation assistance</td><td/><td/></tr><tr><td>Colonoscopy</td><td>CPT</td><td>45378</td><td><span/>Diagnostic colonoscopy</td><td>08-10-2010 10:00:00</td><td>Performed</td></tr><tr><td/><td>HCPCS</td><td>G0121</td><td>Colon ca scrn not hi rsk ind</td><td/><td/></tr><tr><td/><td>ICD-10-CM</td><td>Z12.11</td><td>Encounter for screening for malignant neoplasm of colon</td><td/><td/></tr><tr><td/><td>ICD-9-CM</td><td>45.23</td><td>Colonoscopy</td><td/><td/></tr><tr><td/><td>SNOMED-CT</td><td>174184006</td><td>Diagnostic endoscopic examination on colon</td><td/><td/></tr><tr><td>Colorectal Cancer</td><td>HCPCS</td><td>G0213</td><td><span/>PET img whbd ring dx colorec</td><td>08-10-2010 10:00:00</td><td>Performed</td></tr><tr><td/><td>ICD-10-CM</td><td>C18</td><td>Malignant neoplasm of colon</td><td/><td/></tr><tr><td/><td>ICD-9-CM</td><td>153.9</td><td>Malignant neoplasm of colon, unspecified site</td><td/><td/></tr><tr><td/><td>SNOMED-CT</td><td>241443006</td><td>Positron emission tomography study for localization of tumor</td><td/><td/></tr></tbody></table></div>"
        },
        "mode": "snapshot"
      }, {
        "title": "Results",
        "code": {
          "coding": [ {
            "system": "http://loinc.org",
            "code": "30954-2",
            "display": "Results"
          } ]
        },
        "text": {
          "status": "additional",
          "div": "<div xmlns=\"http://www.w3.org/1999/xhtml\"><table><thead><tr><th>Group Description</th><th>Code System</th><th>Code</th><th>Code Description</th><th>Value</th><th>Unit</th><th>Reference Range</th><th>Date and Time</th><th>Status</th></tr></thead><tbody><tr><td>FOBT</td><td>LOINC</td><td>2335-8</td><td><span/>Hemoccult Stl Ql</td><td>negative</td><td/><td>NA</td><td>08-05-2010 10:00:00</td><td>Completed</td></tr><tr><td/><td>CPT</td><td>82274</td><td>Assay test for blood, fecal</td><td/><td/><td/><td/><td/></tr><tr><td/><td>HCPCS</td><td>G0328</td><td>Fecal blood scrn immunoassay</td><td/><td/><td/><td/><td/></tr><tr><td/><td>ICD-9-CM</td><td>V76.51</td><td>Special screening for malignant neoplasms of colon</td><td/><td/><td/><td/><td/></tr><tr><td/><td>SNOMED-CT</td><td>252156002</td><td>Occult blood screening</td><td/><td/><td/><td/><td/></tr></tbody></table></div>"
        },
        "mode": "snapshot",
        "entry": [ {
          "reference": "DiagnosticReport/bd9fefc9-73f5-49f6-bdb4-57d07c3d06d2",
          "display": "FOBT"
        } ]
      }, {
        "title": "Problems",
        "code": {
          "coding": [ {
            "system": "http://loinc.org",
            "code": "11450-4",
            "display": "PROBLEM LIST"
          } ]
        },
        "text": {
          "status": "additional",
          "div": "<div xmlns=\"http://www.w3.org/1999/xhtml\"><table><thead><tr><th>Group Description</th><th>Code System</th><th>Code</th><th>Code Description</th><th>Date and Time</th><th>Status</th></tr></thead><tbody><tr><td>Hypertension</td><td>SNOMED-CT</td><td>59621000</td><td><span/>Essential hypertension</td><td>08-05-2010 10:00:00</td><td>Active</td></tr><tr><td/><td>ICD-10-CM</td><td>I10</td><td>Essential (primary) hypertension</td><td/><td/></tr><tr><td/><td>ICD-9-CM</td><td>401.9</td><td>Unspecified essential hypertension</td><td/><td/></tr></tbody></table></div>"
        },
        "mode": "snapshot",
        "entry": [ {
          "reference": "Condition/b637da00-1fbd-42e4-a1fa-df5fcc195c5e",
          "display": "Essential hypertension"
        } ]
      }, {
        "title": "Encounters",
        "code": {
          "coding": [ {
            "system": "http://loinc.org",
            "code": "46240-8",
            "display": "History of encounters"
          } ]
        },
        "text": {
          "status": "additional",
          "div": "<div xmlns=\"http://www.w3.org/1999/xhtml\"><table><thead><tr><th>Group Description</th><th>Code System</th><th>Code</th><th>Code Description</th><th>Date and Time</th><th>Status</th></tr></thead><tbody><tr><td>Encounter Outpatient</td><td>CPT</td><td>99213</td><td><span/>Office/outpatient visit, est</td><td>08-05-2010 10:00:00</td><td>Performed</td></tr><tr><td/><td>ICD-9-CM</td><td>V70.0</td><td>Routine general medical examination at a health care facility</td><td/><td/></tr><tr><td>Encounter Outpatient</td><td>CPT</td><td>99213</td><td><span/>Office/outpatient visit, est</td><td>08-10-2010 10:00:00</td><td>Performed</td></tr><tr><td/><td>ICD-9-CM</td><td>V70.0</td><td>Routine general medical examination at a health care facility</td><td/><td/></tr><tr><td>Encounter Outpatient</td><td>CPT</td><td>99213</td><td><span/>Office/outpatient visit, est</td><td>08-20-2010 10:00:00</td><td>Performed</td></tr><tr><td/><td>ICD-9-CM</td><td>V70.0</td><td>Routine general medical examination at a health care facility</td><td/><td/></tr><tr><td>Encounter Acute Inpt</td><td>CPT</td><td>99251</td><td><span/>Initial inpatient consult</td><td>08-26-2010 10:00:00</td><td>Performed</td></tr><tr><td>Encounter Inpatient Discharge</td><td>CPT</td><td>99238</td><td><span/>Hospital discharge day</td><td>09-01-2010 10:00:00</td><td>Performed</td></tr><tr><td>Encounter Outpatient</td><td>CPT</td><td>99213</td><td><span/>Office/outpatient visit, est</td><td>10-10-2010 10:00:00</td><td>Performed</td></tr><tr><td/><td>ICD-9-CM</td><td>V70.0</td><td>Routine general medical examination at a health care facility</td><td/><td/></tr></tbody></table></div>"
        },
        "mode": "snapshot",
        "entry": [ {
          "reference": "Encounter/5140b107-2251-4094-9da4-056b6c280d9c",
          "display": "Initial inpatient consult"
        }, {
          "reference": "Encounter/82525604-525b-4d6c-9830-d2e30e2d62df",
          "display": "Office/outpatient visit, est"
        }, {
          "reference": "Encounter/c2cdc2dc-9dc7-4945-bfb5-56f035f67614",
          "display": "Office/outpatient visit, est"
        }, {
          "reference": "Encounter/31ebc46c-f4fa-45ef-b4b6-75ef5d9562d9",
          "display": "Hospital discharge day"
        }, {
          "reference": "Encounter/564f8f4d-c8a6-4a65-8422-dd01472839e3",
          "display": "Office/outpatient visit, est"
        }, {
          "reference": "Encounter/18759cf5-b2c1-450f-9b2f-9cb4339215b9",
          "display": "Office/outpatient visit, est"
        } ]
      }, {
        "title": "Allergies,  Adverse Reactions & Alerts",
        "code": {
          "coding": [ {
            "system": "http://loinc.org",
            "code": "48765-2",
            "display": "Allergies, adverse reactions, alerts"
          } ]
        },
        "text": {
          "status": "additional",
          "div": "<div xmlns=\"http://www.w3.org/1999/xhtml\"><table><thead><tr><th>Group Description</th><th>Code System</th><th>Code</th><th>Code Description</th><th>Severity</th><th>Susceptibility</th><th>Date and Time</th><th>Status</th></tr></thead><tbody><tr><td>Allergy to Eggs</td><td>UNII</td><td>291P45F896</td><td><span/>Eggs</td><td><span/>Fatal</td><td>Moderately Susceptible</td><td>08-05-2010 10:00:00</td><td>Active</td></tr><tr><td/><td>ICD-9-CM</td><td>V15.03</td><td>Allergy to eggs</td><td/><td/><td/><td/></tr><tr><td>Neomycin</td><td>RxNorm</td><td>866041</td><td><span/>Neomycin Sulfate 500 MG</td><td><span/>Moderate</td><td>Moderately Susceptible</td><td>08-05-2010 10:00:00</td><td>Active</td></tr><tr><td>Penicillin V</td><td>NDF-RT</td><td>N0000011298</td><td><span/>Penicillin V</td><td><span/>Mild to moderate</td><td>Moderately Susceptible</td><td>08-05-2010 10:00:00</td><td>Active</td></tr></tbody></table></div>"
        },
        "mode": "snapshot",
        "entry": [ {
          "reference": "AllergyIntolerance/e72ca8a9-272a-40e8-b16f-bf4b08264f44",
          "display": "Neomycin + Neomycin Sulfate 500 MG"
        }, {
          "reference": "AllergyIntolerance/68914b5a-8a6d-4f22-89c9-b7eac88acfd0",
          "display": "Allergy to Eggs + Eggs"
        }, {
          "reference": "AllergyIntolerance/8df1d158-642d-4809-b5d7-45687572dc4b",
          "display": "Penicillin V + Penicillin V"
        } ]
      } ]
    }
  }, {
    "resource": {
      "resourceType": "Patient",
      "id": "f30ef668-ad0d-4bca-9f7c-a74318819777",
      "extension": [ {
        "url": "http://hl7.org/fhir/StructureDefinition/patient-religion",
        "valueCodeableConcept": {
          "coding": [ {
            "system": "urn:oid:2.16.840.1.113883.5.1076",
            "code": "1007",
            "display": "Atheism"
          } ]
        }
      }, {
        "url": "http://hl7.org/fhir/us/core/StructureDefinition/us-core-race",
        "extension": [ {
          "url": "text",
          "valueString": "White"
        }, {
          "url": "ombCategory",
          "valueCoding": {
            "system": "urn:oid:2.16.840.1.113883.6.238",
            "code": "2106-3",
            "display": "White"
          }
        } ]
      }, {
        "url": "http://hl7.org/fhir/us/core/StructureDefinition/us-core-ethnicity",
        "extension": [ {
          "url": "text",
          "valueString": "Not Hispanic or Latino"
        }, {
          "url": "ombCategory",
          "valueCoding": {
            "system": "urn:oid:2.16.840.1.113883.6.238",
            "code": "2186-5",
            "display": "Not Hispanic or Latino"
          }
        } ]
      }, {
        "url": "http://hl7.org/fhir/StructureDefinition/patient-birthPlace",
        "valueAddress": {
          "city": "Holly Springs",
          "state": "MS",
          "postalCode": "38635",
          "country": "US"
        }
      } ],
      "identifier": [ {
        "use": "official",
        "system": "urn:oid:2.16.840.1.113883.19.5.99999.2",
        "value": "998991"
      }, {
        "use": "official",
        "system": "urn:oid:2.16.840.1.113883.4.1",
        "value": "111-00-2330"
      } ],
      "name": [ {
        "use": "usual",
        "family": "Saunders",
        "given": [ "Dale" ]
      } ],
      "telecom": [ {
        "system": "phone",
        "value": "(206)994-9121",
        "use": "mobile"
      } ],
      "gender": "male",
      "birthDate": "1958-07-10",
      "address": [ {
        "use": "home",
        "line": [ "335 Chipmunk Lane" ],
        "city": "Seattle",
        "state": "WA",
        "postalCode": "98109",
        "country": "US"
      } ],
      "maritalStatus": {
        "coding": [ {
          "system": "http://terminology.hl7.org/CodeSystem/v3-MaritalStatus",
          "code": "M",
          "display": "Married"
        } ]
      },
      "contact": [ {
        "relationship": [ {
          "coding": [ {
            "system": "http://terminology.hl7.org/CodeSystem/v2-0131",
            "code": "C",
            "display": "Emergency Contact"
          } ]
        } ],
        "name": {
          "family": "Goff",
          "given": [ "Jeffrey" ],
          "prefix": [ "Mr." ]
        },
        "telecom": [ {
          "system": "phone",
          "value": "(704)323-1190",
          "use": "home"
        }, {
          "system": "email",
          "value": "JeffreyNGoff@gustr.com",
          "use": "work"
        } ],
        "address": {
          "use": "home",
          "line": [ "3093 Red Dog Road" ],
          "city": "Charlotte",
          "state": "NC",
          "postalCode": "28273",
          "country": "US"
        }
      } ],
      "communication": [ {
        "language": {
          "coding": [ {
            "system": "urn:ietf:bcp:47",
            "code": "spa"
          } ]
        },
        "preferred": true
      } ],
      "managingOrganization": {
        "reference": "Organization/eb5de8cc-6dc6-4b0b-a111-0ad5e9a27ff2",
        "display": "Community Health and Hospitals"
      }
    }
  }, {
    "resource": {
      "resourceType": "Organization",
      "id": "eb5de8cc-6dc6-4b0b-a111-0ad5e9a27ff2",
      "identifier": [ {
        "use": "official",
        "value": "2.16.840.1.113883.4.6"
      } ],
      "name": "Community Health and Hospitals",
      "telecom": [ {
        "system": "phone",
        "value": " 555-555-5000",
        "use": "work"
      } ],
      "address": [ {
        "line": [ "1001 Village Avenue" ],
        "city": "Portland",
        "state": "OR",
        "postalCode": "99123",
        "country": "US"
      } ]
    }
  }, {
    "resource": {
      "resourceType": "Practitioner",
      "id": "db5e3f5a-9f0a-4385-91c1-5989dada0191",
      "identifier": [ {
        "use": "official",
        "system": "urn:oid:2.16.840.1.113883.4.6",
        "value": "99999999"
      } ],
      "name": [ {
        "family": "Seven",
        "given": [ "Henry" ],
        "suffix": [ "MD" ]
      } ],
      "telecom": [ {
        "system": "phone",
        "value": "555-555-1002",
        "use": "work"
      } ],
      "address": [ {
        "line": [ "1002 Healthcare Drive" ],
        "city": "Portland",
        "state": "OR",
        "postalCode": "99123",
        "country": "US"
      } ]
    }
  }, {
    "resource": {
      "resourceType": "Practitioner",
      "id": "600aa31f-b88b-493e-9916-ce038cb5fdc6",
      "identifier": [ {
        "use": "official",
        "system": "http://hl7.org/fhir/sid/us-npi",
        "value": "999999999"
      } ],
      "name": [ {
        "family": "Seven",
        "given": [ "Henry" ]
      } ],
      "telecom": [ {
        "system": "phone",
        "value": "555-555-1002",
        "use": "work"
      } ],
      "address": [ {
        "line": [ "1001 Village Avenue" ],
        "city": "Portland",
        "state": "OR",
        "postalCode": "99123",
        "country": "US"
      } ]
    }
  }, {
    "resource": {
      "resourceType": "Practitioner",
      "id": "71ba8886-c5bf-416e-9cf4-e24a61e555e7",
      "identifier": [ {
        "use": "official",
        "system": "http://hl7.org/fhir/sid/us-npi",
        "value": "PseudoMD-1"
      } ],
      "name": [ {
        "family": "Seven",
        "given": [ "Henry" ],
        "suffix": [ "MD" ]
      } ],
      "telecom": [ {
        "system": "phone",
        "value": "+1-555-555-5000",
        "use": "home"
      } ],
      "address": [ {
        "line": [ "1001 Village Avenue" ],
        "city": "Portland",
        "state": "OR",
        "postalCode": "99123",
        "country": "US"
      } ]
    }
  }, {
    "resource": {
      "resourceType": "Organization",
      "id": "56de3c26-f49c-4c80-a570-8ca299fe90d6",
      "identifier": [ {
        "use": "official",
        "system": "urn:oid:2.16.840.1.113883.4.6",
        "value": "99999999"
      } ],
      "name": "Community Health and Hospitals",
      "telecom": [ {
        "system": "phone",
        "value": " 555-555-1002",
        "use": "work"
      } ],
      "address": [ {
        "use": "work",
        "line": [ "1002 Healthcare Drive" ],
        "city": "Portland",
        "state": "OR",
        "postalCode": "99123",
        "country": "US"
      } ]
    }
  }, {
    "resource": {
      "resourceType": "Observation",
      "id": "141e7f85-c85f-4088-88d9-16a284d43624",
      "identifier": [ {
        "use": "official",
        "value": "c6f88321-67ad-11db-bd13-0800200c9a66"
      } ],
      "status": "final",
      "category": [ {
        "coding": [ {
          "system": "http://terminology.hl7.org/CodeSystem/observation-category",
          "code": "vital-signs",
          "display": "Vital Signs"
        } ]
      } ],
      "code": {
        "coding": [ {
          "system": "http://loinc.org",
          "code": "8462-4",
          "display": "BP Diastolic"
        } ]
      },
      "subject": {
        "reference": "Patient/f30ef668-ad0d-4bca-9f7c-a74318819777",
        "display": "Dale Saunders"
      },
      "effectivePeriod": {
        "start": "2010-08-10T10:00:00+02:00"
      },
      "valueQuantity": {
        "value": 60,
        "unit": "mm[Hg]",
        "system": "http://unitsofmeasure.org",
        "code": "mm[Hg]"
      }
    }
  }, {
    "resource": {
      "resourceType": "Observation",
      "id": "a289cd90-c9d1-4bd4-ba42-8976aaeae653",
      "identifier": [ {
        "use": "official",
        "value": "c6f88321-67ad-11db-bd13-0800200c9a66"
      } ],
      "status": "final",
      "category": [ {
        "coding": [ {
          "system": "http://terminology.hl7.org/CodeSystem/observation-category",
          "code": "vital-signs",
          "display": "Vital Signs"
        } ]
      } ],
      "code": {
        "coding": [ {
          "system": "http://loinc.org",
          "code": "8480-6",
          "display": "BP Systolic"
        } ]
      },
      "subject": {
        "reference": "Patient/f30ef668-ad0d-4bca-9f7c-a74318819777",
        "display": "Dale Saunders"
      },
      "effectivePeriod": {
        "start": "2010-08-10T10:00:00+02:00"
      },
      "valueQuantity": {
        "value": 106,
        "unit": "mm[Hg]",
        "system": "http://unitsofmeasure.org",
        "code": "mm[Hg]"
      }
    }
  }, {
    "resource": {
      "resourceType": "Observation",
      "id": "4e90b24d-67a8-411f-a44d-47ad85595f32",
      "identifier": [ {
        "use": "official",
        "value": "c6f88321-67ad-11db-bd13-0800200c9a66"
      } ],
      "status": "final",
      "category": [ {
        "coding": [ {
          "system": "http://terminology.hl7.org/CodeSystem/observation-category",
          "code": "vital-signs",
          "display": "Vital Signs"
        } ]
      } ],
      "code": {
        "coding": [ {
          "system": "http://loinc.org",
          "code": "39156-5",
          "display": "BMI"
        } ]
      },
      "subject": {
        "reference": "Patient/f30ef668-ad0d-4bca-9f7c-a74318819777",
        "display": "Dale Saunders"
      },
      "effectivePeriod": {
        "start": "2010-08-10T10:00:00+02:00"
      },
      "valueQuantity": {
        "value": 23.7,
        "unit": "kg/m2",
        "system": "http://unitsofmeasure.org",
        "code": "kg/m2"
      }
    }
  }, {
    "resource": {
      "resourceType": "Observation",
      "id": "3387e306-a075-4744-b53b-dff7ca5fee75",
      "identifier": [ {
        "use": "official",
        "value": "c6f88321-67ad-11db-bd13-0800200c9a66"
      } ],
      "status": "final",
      "category": [ {
        "coding": [ {
          "system": "http://terminology.hl7.org/CodeSystem/observation-category",
          "code": "vital-signs",
          "display": "Vital Signs"
        } ]
      } ],
      "code": {
        "coding": [ {
          "system": "http://loinc.org",
          "code": "8462-4",
          "display": "BP Diastolic"
        } ]
      },
      "subject": {
        "reference": "Patient/f30ef668-ad0d-4bca-9f7c-a74318819777",
        "display": "Dale Saunders"
      },
      "effectivePeriod": {
        "start": "2010-09-01T10:00:00+02:00"
      },
      "valueQuantity": {
        "value": 64,
        "unit": "mm[Hg]",
        "system": "http://unitsofmeasure.org",
        "code": "mm[Hg]"
      }
    }
  }, {
    "resource": {
      "resourceType": "Observation",
      "id": "c9ef1395-7461-4828-89d6-bc3579920ee7",
      "identifier": [ {
        "use": "official",
        "value": "c6f88321-67ad-11db-bd13-0800200c9a66"
      } ],
      "status": "final",
      "category": [ {
        "coding": [ {
          "system": "http://terminology.hl7.org/CodeSystem/observation-category",
          "code": "vital-signs",
          "display": "Vital Signs"
        } ]
      } ],
      "code": {
        "coding": [ {
          "system": "http://loinc.org",
          "code": "8480-6",
          "display": "BP Systolic"
        } ]
      },
      "subject": {
        "reference": "Patient/f30ef668-ad0d-4bca-9f7c-a74318819777",
        "display": "Dale Saunders"
      },
      "effectivePeriod": {
        "start": "2010-09-01T10:00:00+02:00"
      },
      "valueQuantity": {
        "value": 110,
        "unit": "mm[Hg]",
        "system": "http://unitsofmeasure.org",
        "code": "mm[Hg]"
      }
    }
  }, {
    "resource": {
      "resourceType": "Observation",
      "id": "04569246-b683-4533-97ba-9c8c96d3c8df",
      "identifier": [ {
        "use": "official",
        "value": "c6f88321-67ad-11db-bd13-0800200c9a66"
      } ],
      "status": "final",
      "category": [ {
        "coding": [ {
          "system": "http://terminology.hl7.org/CodeSystem/observation-category",
          "code": "vital-signs",
          "display": "Vital Signs"
        } ]
      } ],
      "code": {
        "coding": [ {
          "system": "http://loinc.org",
          "code": "39156-5",
          "display": "BMI"
        } ]
      },
      "subject": {
        "reference": "Patient/f30ef668-ad0d-4bca-9f7c-a74318819777",
        "display": "Dale Saunders"
      },
      "effectivePeriod": {
        "start": "2010-09-01T10:00:00+02:00"
      },
      "valueQuantity": {
        "value": 23.7,
        "unit": "kg/m2",
        "system": "http://unitsofmeasure.org",
        "code": "kg/m2"
      }
    }
  }, {
    "resource": {
      "resourceType": "Observation",
      "id": "78531a82-a271-4541-9508-3a78fd3d4b51",
      "identifier": [ {
        "use": "official",
        "value": "c6f88321-67ad-11db-bd13-0800200c9a66"
      } ],
      "status": "final",
      "category": [ {
        "coding": [ {
          "system": "http://terminology.hl7.org/CodeSystem/observation-category",
          "code": "vital-signs",
          "display": "Vital Signs"
        } ]
      } ],
      "code": {
        "coding": [ {
          "system": "http://loinc.org",
          "code": "8462-4",
          "display": "BP Diastolic"
        } ]
      },
      "subject": {
        "reference": "Patient/f30ef668-ad0d-4bca-9f7c-a74318819777",
        "display": "Dale Saunders"
      },
      "effectivePeriod": {
        "start": "2010-08-20T10:00:00+02:00"
      },
      "valueQuantity": {
        "value": 76,
        "unit": "mm[Hg]",
        "system": "http://unitsofmeasure.org",
        "code": "mm[Hg]"
      }
    }
  }, {
    "resource": {
      "resourceType": "Observation",
      "id": "962fe171-10e4-4a92-8ede-edadf3cfeb50",
      "identifier": [ {
        "use": "official",
        "value": "c6f88321-67ad-11db-bd13-0800200c9a66"
      } ],
      "status": "final",
      "category": [ {
        "coding": [ {
          "system": "http://terminology.hl7.org/CodeSystem/observation-category",
          "code": "vital-signs",
          "display": "Vital Signs"
        } ]
      } ],
      "code": {
        "coding": [ {
          "system": "http://loinc.org",
          "code": "8480-6",
          "display": "BP Systolic"
        } ]
      },
      "subject": {
        "reference": "Patient/f30ef668-ad0d-4bca-9f7c-a74318819777",
        "display": "Dale Saunders"
      },
      "effectivePeriod": {
        "start": "2010-08-20T10:00:00+02:00"
      },
      "valueQuantity": {
        "value": 120,
        "unit": "mm[Hg]",
        "system": "http://unitsofmeasure.org",
        "code": "mm[Hg]"
      }
    }
  }, {
    "resource": {
      "resourceType": "Observation",
      "id": "4b27d500-e88d-40dd-b604-6822169c1027",
      "identifier": [ {
        "use": "official",
        "value": "c6f88321-67ad-11db-bd13-0800200c9a66"
      } ],
      "status": "final",
      "category": [ {
        "coding": [ {
          "system": "http://terminology.hl7.org/CodeSystem/observation-category",
          "code": "vital-signs",
          "display": "Vital Signs"
        } ]
      } ],
      "code": {
        "coding": [ {
          "system": "http://loinc.org",
          "code": "39156-5",
          "display": "BMI"
        } ]
      },
      "subject": {
        "reference": "Patient/f30ef668-ad0d-4bca-9f7c-a74318819777",
        "display": "Dale Saunders"
      },
      "effectivePeriod": {
        "start": "2010-08-20T10:00:00+02:00"
      },
      "valueQuantity": {
        "value": 23.4,
        "unit": "kg/m2",
        "system": "http://unitsofmeasure.org",
        "code": "kg/m2"
      }
    }
  }, {
    "resource": {
      "resourceType": "Observation",
      "id": "2dd7764f-f0b4-49ca-9935-2479d69fc6a4",
      "identifier": [ {
        "use": "official",
        "value": "c6f88321-67ad-11db-bd13-0800200c9a66"
      } ],
      "status": "final",
      "category": [ {
        "coding": [ {
          "system": "http://terminology.hl7.org/CodeSystem/observation-category",
          "code": "vital-signs",
          "display": "Vital Signs"
        } ]
      } ],
      "code": {
        "coding": [ {
          "system": "http://loinc.org",
          "code": "39156-5",
          "display": "BMI"
        } ]
      },
      "subject": {
        "reference": "Patient/f30ef668-ad0d-4bca-9f7c-a74318819777",
        "display": "Dale Saunders"
      },
      "effectivePeriod": {
        "start": "2010-08-26T10:00:00+02:00"
      },
      "valueQuantity": {
        "value": 23,
        "unit": "kg/m2",
        "system": "http://unitsofmeasure.org",
        "code": "kg/m2"
      }
    }
  }, {
    "resource": {
      "resourceType": "Observation",
      "id": "34aa184e-74b8-4981-a898-dfb254dce5b0",
      "identifier": [ {
        "use": "official",
        "value": "c6f88321-67ad-11db-bd13-0800200c9a66"
      } ],
      "status": "final",
      "category": [ {
        "coding": [ {
          "system": "http://terminology.hl7.org/CodeSystem/observation-category",
          "code": "vital-signs",
          "display": "Vital Signs"
        } ]
      } ],
      "code": {
        "coding": [ {
          "system": "http://loinc.org",
          "code": "8462-4",
          "display": "BP Diastolic"
        } ]
      },
      "subject": {
        "reference": "Patient/f30ef668-ad0d-4bca-9f7c-a74318819777",
        "display": "Dale Saunders"
      },
      "effectivePeriod": {
        "start": "2010-08-26T10:00:00+02:00"
      },
      "valueQuantity": {
        "value": 68,
        "unit": "mm[Hg]",
        "system": "http://unitsofmeasure.org",
        "code": "mm[Hg]"
      }
    }
  }, {
    "resource": {
      "resourceType": "Observation",
      "id": "6675f91e-2436-4bf6-8776-1b330cfe6931",
      "identifier": [ {
        "use": "official",
        "value": "c6f88321-67ad-11db-bd13-0800200c9a66"
      } ],
      "status": "final",
      "category": [ {
        "coding": [ {
          "system": "http://terminology.hl7.org/CodeSystem/observation-category",
          "code": "vital-signs",
          "display": "Vital Signs"
        } ]
      } ],
      "code": {
        "coding": [ {
          "system": "http://loinc.org",
          "code": "8480-6",
          "display": "BP Systolic"
        } ]
      },
      "subject": {
        "reference": "Patient/f30ef668-ad0d-4bca-9f7c-a74318819777",
        "display": "Dale Saunders"
      },
      "effectivePeriod": {
        "start": "2010-08-26T10:00:00+02:00"
      },
      "valueQuantity": {
        "value": 114,
        "unit": "mm[Hg]",
        "system": "http://unitsofmeasure.org",
        "code": "mm[Hg]"
      }
    }
  }, {
    "resource": {
      "resourceType": "Observation",
      "id": "70f0c78f-a244-4d0b-90a4-72ed4e61dbe9",
      "identifier": [ {
        "use": "official",
        "value": "c6f88321-67ad-11db-bd13-0800200c9a66"
      } ],
      "status": "final",
      "category": [ {
        "coding": [ {
          "system": "http://terminology.hl7.org/CodeSystem/observation-category",
          "code": "vital-signs",
          "display": "Vital Signs"
        } ]
      } ],
      "code": {
        "coding": [ {
          "system": "http://loinc.org",
          "code": "8462-4",
          "display": "BP Diastolic"
        } ]
      },
      "subject": {
        "reference": "Patient/f30ef668-ad0d-4bca-9f7c-a74318819777",
        "display": "Dale Saunders"
      },
      "effectivePeriod": {
        "start": "2010-08-05T10:00:00+02:00"
      },
      "valueQuantity": {
        "value": 58,
        "unit": "mm[Hg]",
        "system": "http://unitsofmeasure.org",
        "code": "mm[Hg]"
      }
    }
  }, {
    "resource": {
      "resourceType": "Observation",
      "id": "f790f20a-f687-49d5-b440-8339bd72f17c",
      "identifier": [ {
        "use": "official",
        "value": "c6f88321-67ad-11db-bd13-0800200c9a66"
      } ],
      "status": "final",
      "category": [ {
        "coding": [ {
          "system": "http://terminology.hl7.org/CodeSystem/observation-category",
          "code": "vital-signs",
          "display": "Vital Signs"
        } ]
      } ],
      "code": {
        "coding": [ {
          "system": "http://loinc.org",
          "code": "8480-6",
          "display": "BP Systolic"
        } ]
      },
      "subject": {
        "reference": "Patient/f30ef668-ad0d-4bca-9f7c-a74318819777",
        "display": "Dale Saunders"
      },
      "effectivePeriod": {
        "start": "2010-08-05T10:00:00+02:00"
      },
      "valueQuantity": {
        "value": 100,
        "unit": "mm[Hg]",
        "system": "http://unitsofmeasure.org",
        "code": "mm[Hg]"
      }
    }
  }, {
    "resource": {
      "resourceType": "Observation",
      "id": "2058205b-db05-440b-a72e-199659509073",
      "identifier": [ {
        "use": "official",
        "value": "c6f88321-67ad-11db-bd13-0800200c9a66"
      } ],
      "status": "final",
      "category": [ {
        "coding": [ {
          "system": "http://terminology.hl7.org/CodeSystem/observation-category",
          "code": "vital-signs",
          "display": "Vital Signs"
        } ]
      } ],
      "code": {
        "coding": [ {
          "system": "http://loinc.org",
          "code": "39156-5",
          "display": "BMI"
        } ]
      },
      "subject": {
        "reference": "Patient/f30ef668-ad0d-4bca-9f7c-a74318819777",
        "display": "Dale Saunders"
      },
      "effectivePeriod": {
        "start": "2010-08-05T10:00:00+02:00"
      },
      "valueQuantity": {
        "value": 23.7,
        "unit": "kg/m2",
        "system": "http://unitsofmeasure.org",
        "code": "kg/m2"
      }
    }
  }, {
    "resource": {
      "resourceType": "MedicationStatement",
      "id": "e7b93b10-7ee5-4934-9f5f-3a9d38697d19",
      "extension": [ {
        "url": "http://hl7.org/fhir/3.0/StructureDefinition/extension-MedicationStatement.status",
        "valueCode": "UNKNOWN"
      } ],
      "identifier": [ {
        "use": "official",
        "value": "cdbd33f0-6cde-11db-9fe1-0800200c9a66"
      } ],
      "status": "completed",
      "medicationReference": {
        "reference": "Medication/f7e07c4e-100a-42cd-bc0e-c998dc43884f",
        "display": "Enalapril Maleate 10 MG / Hydrochlorothiazide 25 MG Oral Tablet"
      },
      "subject": {
        "reference": "Patient/f30ef668-ad0d-4bca-9f7c-a74318819777",
        "display": "Dale Saunders"
      },
      "effectivePeriod": {
        "start": "2010-08-05T10:00:00+02:00"
      }
    }
  }, {
    "resource": {
      "resourceType": "Medication",
      "id": "f7e07c4e-100a-42cd-bc0e-c998dc43884f",
      "code": {
        "coding": [ {
          "system": "http://www.nlm.nih.gov/research/umls/rxnorm",
          "code": "858828",
          "display": "Enalapril Maleate 10 MG / Hydrochlorothiazide 25 MG Oral Tablet"
        } ]
      }
    }
  }, {
    "resource": {
      "resourceType": "Observation",
      "id": "6bd7e02b-d1aa-4065-87ca-ec6788201233",
      "identifier": [ {
        "use": "official",
        "system": "urn:oid:2.16.840.1.113883.19",
        "value": "123456789"
      } ],
      "status": "final",
      "code": {
        "coding": [ {
          "system": "urn:oid:2.16.840.1.113883.5.4",
          "code": "ASSERTION"
        } ]
      },
      "subject": {
        "reference": "Patient/f30ef668-ad0d-4bca-9f7c-a74318819777",
        "display": "Dale Saunders"
      },
      "effectivePeriod": {
        "start": "2010-08-05T10:00:00+02:00"
      },
      "valueCodeableConcept": {
        "coding": [ {
          "system": "http://snomed.info/sct",
          "code": "266919005",
          "display": "Never smoker (Never Smoked)"
        }, {
          "system": "http://snomed.info/sct",
          "code": "449868002",
          "display": "Current every day smoker"
        } ]
      }
    }
  }, {
    "resource": {
      "resourceType": "DiagnosticReport",
      "id": "bd9fefc9-73f5-49f6-bdb4-57d07c3d06d2",
      "identifier": [ {
        "use": "official",
        "value": "7d5a02b0-67a4-11db-bd13-0800200c9a66"
      } ],
      "status": "final",
      "category": [ {
        "coding": [ {
          "system": "http://terminology.hl7.org/CodeSystem/v2-0074",
          "code": "LAB",
          "display": "Laboratory"
        } ]
      } ],
      "code": {
        "coding": [ {
          "system": "http://snomed.info/sct",
          "code": "167670005",
          "display": "FOBT"
        } ]
      },
      "subject": {
        "reference": "Patient/f30ef668-ad0d-4bca-9f7c-a74318819777",
        "display": "Dale Saunders"
      },
      "result": [ {
        "reference": "Observation/56026542-238b-441f-bcb3-47b9dedc2f95",
        "display": "Hemoccult Stl Ql"
      } ]
    }
  }, {
    "resource": {
      "resourceType": "Observation",
      "id": "56026542-238b-441f-bcb3-47b9dedc2f95",
      "identifier": [ {
        "use": "official",
        "value": "107c2dc0-67a5-11db-bd13-0800200c9a66"
      } ],
      "status": "final",
      "category": [ {
        "coding": [ {
          "system": "http://terminology.hl7.org/CodeSystem/observation-category",
          "code": "laboratory"
        } ]
      } ],
      "code": {
        "coding": [ {
          "system": "http://loinc.org",
          "code": "2335-8",
          "display": "Hemoccult Stl Ql"
        }, {
          "system": "http://www.ama-assn.org/go/cpt",
          "code": "82274",
          "display": "Assay test for blood, fecal"
        }, {
          "system": "urn:oid:2.16.840.1.113883.6.13",
          "code": "G0328",
          "display": "Fecal blood scrn immunoassay"
        }, {
          "system": "urn:oid:2.16.840.1.113883.6.103",
          "code": "V76.51",
          "display": "Special screening for malignant neoplasms of colon"
        }, {
          "system": "http://snomed.info/sct",
          "code": "252156002",
          "display": "Occult blood screening"
        } ]
      },
      "subject": {
        "reference": "Patient/f30ef668-ad0d-4bca-9f7c-a74318819777",
        "display": "Dale Saunders"
      },
      "effectivePeriod": {
        "start": "2010-08-05T10:00:00+02:00"
      },
      "valueCodeableConcept": {
        "coding": [ {
          "system": "http://snomed.info/sct",
          "code": "260385009",
          "display": "negative"
        } ]
      },
      "interpretation": [ {
        "coding": [ {
          "system": "http://terminology.hl7.org/CodeSystem/v3-ObservationInterpretation",
          "code": "N"
        } ]
      } ],
      "referenceRange": [ {
        "text": "NA"
      } ]
    }
  }, {
    "resource": {
      "resourceType": "Condition",
      "id": "b637da00-1fbd-42e4-a1fa-df5fcc195c5e",
      "identifier": [ {
        "use": "official",
        "value": "9d3d416d-45ab-4da1-912f-4583e0632000"
      } ],
      "clinicalStatus": {
        "coding": [ {
          "system": "http://terminology.hl7.org/CodeSystem/condition-clinical",
          "code": "active",
          "display": "Active"
        } ]
      },
      "verificationStatus": {
        "coding": [ {
          "system": "http://terminology.hl7.org/CodeSystem/condition-ver-status",
          "code": "confirmed",
          "display": "Confirmed"
        } ]
      },
      "category": [ {
        "coding": [ {
          "system": "http://terminology.hl7.org/CodeSystem/condition-category",
          "code": "problem-list-item",
          "display": "Problem List Item"
        } ]
      } ],
      "code": {
        "coding": [ {
          "system": "http://snomed.info/sct",
          "code": "59621000",
          "display": "Essential hypertension"
        }, {
          "system": "urn:oid:2.16.840.1.113883.6.90",
          "code": "I10",
          "display": "Essential (primary) hypertension"
        }, {
          "system": "urn:oid:2.16.840.1.113883.6.103",
          "code": "401.9",
          "display": "Unspecified essential hypertension"
        } ]
      },
      "subject": {
        "reference": "Patient/f30ef668-ad0d-4bca-9f7c-a74318819777",
        "display": "Dale Saunders"
      },
      "onsetDateTime": "2010-08-05T10:00:00+02:00"
    }
  }, {
    "resource": {
      "resourceType": "Encounter",
      "id": "5140b107-2251-4094-9da4-056b6c280d9c",
      "identifier": [ {
        "use": "official",
        "value": "2a620155-9d11-439e-92b3-5d9815ff4de8"
      } ],
      "status": "finished",
      "type": [ {
        "coding": [ {
          "system": "http://www.ama-assn.org/go/cpt",
          "code": "99251",
          "display": "Initial inpatient consult"
        } ]
      } ],
      "subject": {
        "reference": "Patient/f30ef668-ad0d-4bca-9f7c-a74318819777",
        "display": "Dale Saunders"
      },
      "period": {
        "start": "2010-08-26T10:00:00+02:00"
      }
    }
  }, {
    "resource": {
      "resourceType": "Encounter",
      "id": "82525604-525b-4d6c-9830-d2e30e2d62df",
      "identifier": [ {
        "use": "official",
        "value": "2a620155-9d11-439e-92b3-5d9815ff4de8"
      } ],
      "status": "finished",
      "type": [ {
        "coding": [ {
          "system": "http://www.ama-assn.org/go/cpt",
          "code": "99213",
          "display": "Office/outpatient visit, est"
        }, {
          "system": "urn:oid:2.16.840.1.113883.6.103",
          "code": "V70.0",
          "display": "Routine general medical examination at a health care facility"
        } ]
      } ],
      "subject": {
        "reference": "Patient/f30ef668-ad0d-4bca-9f7c-a74318819777",
        "display": "Dale Saunders"
      },
      "period": {
        "start": "2010-10-10T10:00:00+02:00"
      }
    }
  }, {
    "resource": {
      "resourceType": "Encounter",
      "id": "c2cdc2dc-9dc7-4945-bfb5-56f035f67614",
      "identifier": [ {
        "use": "official",
        "value": "2a620155-9d11-439e-92b3-5d9815ff4de8"
      } ],
      "status": "finished",
      "type": [ {
        "coding": [ {
          "system": "http://www.ama-assn.org/go/cpt",
          "code": "99213",
          "display": "Office/outpatient visit, est"
        }, {
          "system": "urn:oid:2.16.840.1.113883.6.103",
          "code": "V70.0",
          "display": "Routine general medical examination at a health care facility"
        } ]
      } ],
      "subject": {
        "reference": "Patient/f30ef668-ad0d-4bca-9f7c-a74318819777",
        "display": "Dale Saunders"
      },
      "period": {
        "start": "2010-08-05T10:00:00+02:00"
      },
      "reasonCode": [ {
        "coding": [ {
          "system": "http://snomed.info/sct",
          "code": "59621000",
          "display": "Hypertension"
        } ]
      } ],
      "reasonReference": [ {
        "reference": "Condition/a385918b-1b6c-4f96-9a83-3d2bedcd03bf",
        "display": "Hypertension"
      } ]
    }
  }, {
    "resource": {
      "resourceType": "Condition",
      "id": "a385918b-1b6c-4f96-9a83-3d2bedcd03bf",
      "identifier": [ {
        "use": "official",
        "system": "urn:uuid:db734647-fc99-424c-a864-7e3cda82e703",
        "value": "45665"
      } ],
      "clinicalStatus": {
        "coding": [ {
          "system": "http://terminology.hl7.org/CodeSystem/condition-clinical",
          "code": "active",
          "display": "Active"
        } ]
      },
      "category": [ {
        "coding": [ {
          "system": "http://hl7.org/fhir/condition-category",
          "code": "encounter-diagnosis",
          "display": "Encounter Diagnosis"
        } ]
      } ],
      "code": {
        "coding": [ {
          "system": "http://snomed.info/sct",
          "code": "59621000",
          "display": "Hypertension"
        }, {
          "system": "urn:oid:2.16.840.1.113883.6.90",
          "code": "I10",
          "display": "Essential (primary) hypertension"
        }, {
          "system": "urn:oid:2.16.840.1.113883.6.103",
          "code": "401.9",
          "display": "Unspecified essential hypertension"
        } ]
      },
      "subject": {
        "reference": "Patient/f30ef668-ad0d-4bca-9f7c-a74318819777",
        "display": "Dale Saunders"
      },
      "onsetDateTime": "2010-08-05T10:00:00+02:00"
    }
  }, {
    "resource": {
      "resourceType": "Encounter",
      "id": "31ebc46c-f4fa-45ef-b4b6-75ef5d9562d9",
      "identifier": [ {
        "use": "official",
        "value": "2a620155-9d11-439e-92b3-5d9815ff4de8"
      } ],
      "status": "finished",
      "type": [ {
        "coding": [ {
          "system": "http://www.ama-assn.org/go/cpt",
          "code": "99238",
          "display": "Hospital discharge day"
        } ]
      } ],
      "subject": {
        "reference": "Patient/f30ef668-ad0d-4bca-9f7c-a74318819777",
        "display": "Dale Saunders"
      },
      "period": {
        "start": "2010-09-01T10:00:00+02:00"
      }
    }
  }, {
    "resource": {
      "resourceType": "Encounter",
      "id": "564f8f4d-c8a6-4a65-8422-dd01472839e3",
      "identifier": [ {
        "use": "official",
        "value": "2a620155-9d11-439e-92b3-5d9815ff4de8"
      } ],
      "status": "finished",
      "type": [ {
        "coding": [ {
          "system": "http://www.ama-assn.org/go/cpt",
          "code": "99213",
          "display": "Office/outpatient visit, est"
        }, {
          "system": "urn:oid:2.16.840.1.113883.6.103",
          "code": "V70.0",
          "display": "Routine general medical examination at a health care facility"
        } ]
      } ],
      "subject": {
        "reference": "Patient/f30ef668-ad0d-4bca-9f7c-a74318819777",
        "display": "Dale Saunders"
      },
      "period": {
        "start": "2010-08-10T10:00:00+02:00"
      }
    }
  }, {
    "resource": {
      "resourceType": "Encounter",
      "id": "18759cf5-b2c1-450f-9b2f-9cb4339215b9",
      "identifier": [ {
        "use": "official",
        "value": "2a620155-9d11-439e-92b3-5d9815ff4de8"
      } ],
      "status": "finished",
      "type": [ {
        "coding": [ {
          "system": "http://www.ama-assn.org/go/cpt",
          "code": "99213",
          "display": "Office/outpatient visit, est"
        }, {
          "system": "urn:oid:2.16.840.1.113883.6.103",
          "code": "V70.0",
          "display": "Routine general medical examination at a health care facility"
        } ]
      } ],
      "subject": {
        "reference": "Patient/f30ef668-ad0d-4bca-9f7c-a74318819777",
        "display": "Dale Saunders"
      },
      "period": {
        "start": "2010-08-20T10:00:00+02:00"
      }
    }
  }, {
    "resource": {
      "resourceType": "AllergyIntolerance",
      "id": "e72ca8a9-272a-40e8-b16f-bf4b08264f44",
      "identifier": [ {
        "use": "official",
        "value": "36e3e930-7b14-11db-9fe1-0800200c9a66"
      } ],
      "clinicalStatus": {
        "coding": [ {
          "system": "http://terminology.hl7.org/CodeSystem/allergyintolerance-clinical",
          "code": "active",
          "display": "Active"
        } ]
      },
      "verificationStatus": {
        "coding": [ {
          "system": "http://terminology.hl7.org/CodeSystem/allergyintolerance-verification",
          "code": "confirmed",
          "display": "Confirmed"
        } ]
      },
      "type": "allergy",
      "category": [ "medication" ],
      "code": {
        "coding": [ {
          "system": "http://www.nlm.nih.gov/research/umls/rxnorm",
          "code": "866041",
          "display": "Neomycin Sulfate 500 MG"
        } ],
        "text": "Neomycin + Neomycin Sulfate 500 MG"
      },
      "patient": {
        "reference": "Patient/f30ef668-ad0d-4bca-9f7c-a74318819777",
        "display": "Dale Saunders"
      },
      "recordedDate": "2010-08-05T10:00:00+02:00"
    }
  }, {
    "resource": {
      "resourceType": "AllergyIntolerance",
      "id": "68914b5a-8a6d-4f22-89c9-b7eac88acfd0",
      "identifier": [ {
        "use": "official",
        "value": "36e3e930-7b14-11db-9fe1-0800200c9a66"
      } ],
      "clinicalStatus": {
        "coding": [ {
          "system": "http://terminology.hl7.org/CodeSystem/allergyintolerance-clinical",
          "code": "active",
          "display": "Active"
        } ]
      },
      "verificationStatus": {
        "coding": [ {
          "system": "http://terminology.hl7.org/CodeSystem/allergyintolerance-verification",
          "code": "confirmed",
          "display": "Confirmed"
        } ]
      },
      "type": "allergy",
      "category": [ "food" ],
      "code": {
        "coding": [ {
          "system": "http://fdasis.nlm.nih.gov",
          "code": "291P45F896",
          "display": "Eggs"
        }, {
          "system": "urn:oid:2.16.840.1.113883.6.103",
          "code": "V15.03",
          "display": "Allergy to eggs"
        } ],
        "text": "Allergy to Eggs + Eggs"
      },
      "patient": {
        "reference": "Patient/f30ef668-ad0d-4bca-9f7c-a74318819777",
        "display": "Dale Saunders"
      },
      "recordedDate": "2010-08-05T10:00:00+02:00"
    }
  }, {
    "resource": {
      "resourceType": "AllergyIntolerance",
      "id": "8df1d158-642d-4809-b5d7-45687572dc4b",
      "identifier": [ {
        "use": "official",
        "value": "36e3e930-7b14-11db-9fe1-0800200c9a66"
      } ],
      "clinicalStatus": {
        "coding": [ {
          "system": "http://terminology.hl7.org/CodeSystem/allergyintolerance-clinical",
          "code": "active",
          "display": "Active"
        } ]
      },
      "verificationStatus": {
        "coding": [ {
          "system": "http://terminology.hl7.org/CodeSystem/allergyintolerance-verification",
          "code": "confirmed",
          "display": "Confirmed"
        } ]
      },
      "type": "allergy",
      "category": [ "medication" ],
      "code": {
        "coding": [ {
          "system": "urn:oid:2.16.840.1.113883.3.26.1.5",
          "code": "N0000011298",
          "display": "Penicillin V"
        } ],
        "text": "Penicillin V + Penicillin V"
      },
      "patient": {
        "reference": "Patient/f30ef668-ad0d-4bca-9f7c-a74318819777",
        "display": "Dale Saunders"
      },
      "recordedDate": "2010-08-05T10:00:00+02:00"
    }
  } ]
}