{
  "resourceType": "Bundle",
  "entry": [ {
    "resource": {
      "resourceType": "Composition",
      "id": "99388986-1a46-461d-906a-d8a7d2d41959",
      "identifier": {
        "use": "official",
        "value": "db734647-fc99-424c-a864-7e3cda82e703"
      },
      "status": "preliminary",
      "type": {
        "coding": [ {
          "system": "http://loinc.org",
          "code": "34133-9",
          "display": "Summarization of Episode Note"
        } ]
      },
      "category": [ {
        "coding": [ {
          "system": "http://hl7.org/fhir/ValueSet/doc-classcodes",
          "code": "LP173421-7",
          "display": "Note"
        } ]
      } ],
      "subject": {
        "reference": "Patient/0b45eeaf-7e69-4a07-b643-1e6a8d45ac49",
        "display": "Leroy Wood"
      },
      "date": "2014-04-16T11:54:57+02:00",
      "author": [ {
        "reference": "Practitioner/7c548486-f4a8-4d78-ac48-c18773cb6f93",
        "display": "Henry Seven MD"
      } ],
      "title": "Community Health and Hospitals: Health Summary",
      "confidentiality": "N",
      "attester": [ {
        "mode": "legal",
        "time": "2013-04-18T09:00:00+05:00",
        "party": {
          "reference": "Practitioner/5e89f390-f30f-4828-a362-3cdaf866449a",
          "display": "Henry Seven"
        }
      }, {
        "mode": "professional",
        "time": "2014-04-16T11:54:57+02:00",
        "party": {
          "reference": "Practitioner/5e89f390-f30f-4828-a362-3cdaf866449a",
          "display": "Henry Seven"
        }
      } ],
      "custodian": {
        "reference": "Organization/ca7fb54e-5b64-45ca-8b20-7dc7a8ca7df8",
        "display": "Community Health and Hospitals"
      },
      "event": [ {
        "period": {
          "start": "2010-06-05T10:00:00+02:00",
          "end": "2010-10-31T10:00:00+01:00"
        },
        "detail": [ {
          "reference": "Practitioner/cf7a7a06-3e16-4589-9e5b-56e3c14bf69e",
          "display": "Henry Seven MD"
        } ]
      } ],
      "section": [ {
        "title": "Results",
        "code": {
          "coding": [ {
            "system": "http://loinc.org",
            "code": "30954-2",
            "display": "Results"
          } ]
        },
        "text": {
          "status": "additional",
          "div": "<div xmlns=\"http://www.w3.org/1999/xhtml\"><table><thead><tr><th>Group Description</th><th>Code System</th><th>Code</th><th>Code Description</th><th>Value</th><th>Unit</th><th>Date and Time</th><th>Status</th></tr></thead><tbody><tr><td>No data</td></tr></tbody></table></div>"
        },
        "mode": "snapshot"
      }, {
        "title": "Vital Signs",
        "code": {
          "coding": [ {
            "system": "http://loinc.org",
            "code": "8716-3",
            "display": "Vital Signs"
          } ]
        },
        "text": {
          "status": "additional",
          "div": "<div xmlns=\"http://www.w3.org/1999/xhtml\"><table><thead><tr><th>Group Description</th><th>Code System</th><th>Code</th><th>Code Description</th><th>Value</th><th>Unit</th><th>Date and Time</th><th>Status</th></tr></thead><tbody><tr><td>Diastolic Blood Pressure</td><td>LOINC</td><td>8462-4</td><td><span/>BP Diastolic</td><td>74</td><td>mm[Hg]</td><td>06-05-2010 10:00:00</td><td>Finding</td></tr><tr><td>Heart Rate</td><td>LOINC</td><td>8867-4</td><td><span/>Heart Rate</td><td>74</td><td>/min</td><td>06-05-2010 10:00:00</td><td>Finding</td></tr><tr><td>Systolic Blood Pressure</td><td>LOINC</td><td>8480-6</td><td><span/>BP Systolic</td><td>132</td><td>mm[Hg]</td><td>06-05-2010 10:00:00</td><td>Finding</td></tr><tr><td>BMI</td><td>LOINC</td><td>39156-5</td><td><span/>BMI</td><td>30.1</td><td>kg/m2</td><td>06-10-2010 10:00:00</td><td>Finding</td></tr><tr><td>BMI</td><td>LOINC</td><td>39156-5</td><td><span/>BMI</td><td>28.6</td><td>kg/m2</td><td>10-31-2010 10:00:00</td><td>Finding</td></tr><tr><td>Diastolic Blood Pressure</td><td>LOINC</td><td>8462-4</td><td><span/>BP Diastolic</td><td>76</td><td>mm[Hg]</td><td>10-31-2010 10:00:00</td><td>Finding</td></tr><tr><td>Heart Rate</td><td>LOINC</td><td>8867-4</td><td><span/>Heart Rate</td><td>78</td><td>/min</td><td>10-31-2010 10:00:00</td><td>Finding</td></tr><tr><td>Systolic Blood Pressure</td><td>LOINC</td><td>8480-6</td><td><span/>BP Systolic</td><td>134</td><td>mm[Hg]</td><td>10-31-2010 10:00:00</td><td>Finding</td></tr></tbody></table></div>"
        },
        "mode": "snapshot",
        "entry": [ {
          "reference": "Observation/d17a7ad7-683b-4f68-8ad1-ad17fc56cc3b",
          "display": "BMI"
        }, {
          "reference": "Observation/f627e743-ad27-4ce5-91f3-d3559145374d",
          "display": "BP Systolic"
        }, {
          "reference": "Observation/cfba30f4-24ce-4aa2-b38f-587419f7deec",
          "display": "Heart Rate"
        }, {
          "reference": "Observation/b2fdde8a-bb22-41aa-8d4a-f0b829b25223",
          "display": "BP Diastolic"
        }, {
          "reference": "Observation/6799acaa-b3e8-43f9-9df4-42d229cbb221",
          "display": "BP Diastolic"
        }, {
          "reference": "Observation/07d10be7-eda9-4ab9-9ff8-b2fdc82c57f0",
          "display": "Heart Rate"
        }, {
          "reference": "Observation/a0930b09-0054-42b8-9c53-2447b812bdd8",
          "display": "BP Systolic"
        }, {
          "reference": "Observation/b9a8b2a5-91d0-4bd1-909f-f23d255947d3",
          "display": "BMI"
        } ]
      }, {
        "title": "Encounters",
        "code": {
          "coding": [ {
            "system": "http://loinc.org",
            "code": "46240-8",
            "display": "History of encounters"
          } ]
        },
        "text": {
          "status": "additional",
          "div": "<div xmlns=\"http://www.w3.org/1999/xhtml\"><table><thead><tr><th>Group Description</th><th>Code System</th><th>Code</th><th>Code Description</th><th>Date and Time</th><th>Status</th></tr></thead><tbody><tr><td>Encounter Outpatient</td><td>CPT</td><td>99213</td><td><span/>Office/outpatient visit, est</td><td>06-05-2010 10:00:00</td><td>Performed</td></tr><tr><td/><td>ICD-9-CM</td><td>V70.0</td><td>Routine general medical examination at a health care facility</td><td/><td/></tr><tr><td>Encounter Outpatient</td><td>CPT</td><td>99213</td><td><span/>Office/outpatient visit, est</td><td>07-31-2010 10:00:00</td><td>Performed</td></tr><tr><td/><td>ICD-9-CM</td><td>V70.0</td><td>Routine general medical examination at a health care facility</td><td/><td/></tr><tr><td>Encounter Outpatient</td><td>CPT</td><td>99213</td><td><span/>Office/outpatient visit, est</td><td>10-31-2010 10:00:00</td><td>Performed</td></tr><tr><td/><td>ICD-9-CM</td><td>V70.0</td><td>Routine general medical examination at a health care facility</td><td/><td/></tr></tbody></table></div>"
        },
        "mode": "snapshot",
        "entry": [ {
          "reference": "Encounter/5c0d855c-a947-41e3-8638-0e6e34ee1820",
          "display": "Office/outpatient visit, est"
        }, {
          "reference": "Encounter/ef01cff6-ab08-4de7-9601-536c1a315f41",
          "display": "Office/outpatient visit, est"
        }, {
          "reference": "Encounter/776744b4-a5ac-449d-87d0-eae74f88d5aa",
          "display": "Office/outpatient visit, est"
        } ]
      }, {
        "title": "Social History",
        "code": {
          "coding": [ {
            "system": "http://loinc.org",
            "code": "29762-2",
            "display": "Social History"
          } ]
        },
        "text": {
          "status": "additional",
          "div": "<div xmlns=\"http://www.w3.org/1999/xhtml\"><table><thead><tr><th>Group Description</th><th>Code System</th><th>Code</th><th>Code Description</th><th>Date and Time</th><th>Status</th></tr></thead><tbody><tr><td>Tobacco Use</td><td>SNOMED-CT</td><td>266919005</td><td><span/>Never smoker (Never Smoked)</td><td>06-05-2010 10:00:00</td><td>Active</td></tr><tr><td/><td>SNOMED-CT</td><td>449868002</td><td>Current every day smoker</td><td/><td/></tr></tbody></table></div>"
        },
        "mode": "snapshot",
        "entry": [ {
          "reference": "Observation/a738767d-15a4-4e56-a868-1c19499ec12f"
        } ]
      }, {
        "title": "Problems",
        "code": {
          "coding": [ {
            "system": "http://loinc.org",
            "code": "11450-4",
            "display": "PROBLEM LIST"
          } ]
        },
        "text": {
          "status": "additional",
          "div": "<div xmlns=\"http://www.w3.org/1999/xhtml\"><table><thead><tr><th>Group Description</th><th>Code System</th><th>Code</th><th>Code Description</th><th>Date and Time</th><th>Status</th></tr></thead><tbody><tr><td>Hypertension</td><td>SNOMED-CT</td><td>59621000</td><td><span/>Essential hypertension</td><td>06-05-2010 10:00:00</td><td>Active</td></tr><tr><td/><td>ICD-10-CM</td><td>I10</td><td>Essential (primary) hypertension</td><td/><td/></tr><tr><td/><td>ICD-9-CM</td><td>401.9</td><td>Unspecified essential hypertension</td><td/><td/></tr><tr><td>Heart Failure</td><td>SNOMED-CT</td><td>84114007</td><td><span/>Heart failure</td><td>07-31-2010 10:00:00</td><td>Active</td></tr><tr><td/><td>ICD-10-CM</td><td>I50.9</td><td>Heart failure, unspecified</td><td/><td/></tr><tr><td/><td>ICD-9-CM</td><td>428.9</td><td>Heart failure, unspecified</td><td/><td/></tr></tbody></table></div>"
        },
        "mode": "snapshot",
        "entry": [ {
          "reference": "Condition/1babb21b-3167-47e5-a146-aa99834fed9e",
          "display": "Heart failure"
        } ]
      }, {
        "title": "Medications",
        "code": {
          "coding": [ {
            "system": "http://loinc.org",
            "code": "10160-0",
            "display": "History of Medication Use"
          } ]
        },
        "text": {
          "status": "additional",
          "div": "<div xmlns=\"http://www.w3.org/1999/xhtml\"><table><thead><tr><th>Group Description</th><th>Code System</th><th>Code</th><th>Code Description</th><th>Date and Time</th><th>Status</th></tr></thead><tbody><tr><td>Antihypertensive combinations</td><td>RxNorm</td><td>858828</td><td><span/>Enalapril Maleate 10 MG / Hydrochlorothiazide 25 MG Oral Tablet</td><td>06-05-2010 10:00:00</td><td>Active</td></tr><tr><td>ACE inhibitor or ARB</td><td>RxNorm</td><td>314076</td><td><span/>Lisinopril 10 MG Oral Tablet</td><td>07-31-2010 10:00:00</td><td>Active</td></tr><tr><td>Beta Blocker Therapy</td><td>RxNorm</td><td>866924</td><td><span/>Metoprolol Tartrate 25 MG Oral Tablet</td><td>07-31-2010 10:00:00</td><td>Active</td></tr></tbody></table></div>"
        },
        "mode": "snapshot",
        "entry": [ {
          "reference": "MedicationStatement/2ccd5ff8-f15f-432f-93ea-9d38fe57717f",
          "display": "Enalapril Maleate 10 MG / Hydrochlorothiazide 25 MG Oral Tablet"
        }, {
          "reference": "MedicationStatement/eb53da00-a630-4f96-8e9c-e07fc7db3f9f",
          "display": "Metoprolol Tartrate 25 MG Oral Tablet"
        }, {
          "reference": "MedicationStatement/74c2c65f-2c88-41a8-96ea-f87c91315291",
          "display": "Lisinopril 10 MG Oral Tablet"
        } ]
      }, {
        "title": "Procedures",
        "code": {
          "coding": [ {
            "system": "http://loinc.org",
            "code": "47519-4",
            "display": "HISTORY OF PROCEDURES"
          } ]
        },
        "text": {
          "status": "additional",
          "div": "<div xmlns=\"http://www.w3.org/1999/xhtml\"><table><thead><tr><th>Group Description</th><th>Code System</th><th>Code</th><th>Code Description</th><th>Date and Time</th><th>Status</th></tr></thead><tbody><tr><td>Counseling For Nutrition</td><td>CPT</td><td>97802</td><td><span/>Medical nutrition, indiv, in</td><td>06-10-2010 10:00:00</td><td>Performed</td></tr><tr><td/><td>HCPCS</td><td>S9470</td><td>Nutritional counseling, diet</td><td/><td/></tr><tr><td/><td>ICD-10-CM</td><td>Z00.8</td><td>Encounter for other general examination</td><td/><td/></tr><tr><td/><td>ICD-9-CM</td><td>V65.3</td><td>Dietary surveillance and counseling</td><td/><td/></tr><tr><td>Counseling For Physical Activity</td><td>HCPCS</td><td>S9451</td><td><span/>Exercise class</td><td>06-10-2010 10:00:00</td><td>Performed</td></tr><tr><td/><td>ICD-10-CM</td><td>Z71.3</td><td>Dietary counseling and surveillance</td><td/><td/></tr><tr><td/><td>ICD-9-CM</td><td>V65.41</td><td>Exercise counseling</td><td/><td/></tr><tr><td>Ejection Fraction</td><td>SNOMED-CT</td><td>70822001</td><td><span/>Cardiac ejection fraction, function</td><td>07-31-2010 10:00:00</td><td>Performed</td></tr></tbody></table></div>"
        },
        "mode": "snapshot"
      }, {
        "title": "Allergies,  Adverse Reactions & Alerts",
        "code": {
          "coding": [ {
            "system": "http://loinc.org",
            "code": "48765-2",
            "display": "Allergies, adverse reactions, alerts"
          } ]
        },
        "text": {
          "status": "additional",
          "div": "<div xmlns=\"http://www.w3.org/1999/xhtml\"><table><thead><tr><th>Group Description</th><th>Code System</th><th>Code</th><th>Code Description</th><th>Severity</th><th>Susceptibility</th><th>Date and Time</th><th>Status</th></tr></thead><tbody><tr><td>Allergy to Eggs</td><td>UNII</td><td>291P45F896</td><td><span/>Eggs</td><td><span/>Severe</td><td>Susceptible</td><td>06-05-2010 10:00:00</td><td>Active</td></tr><tr><td/><td>ICD-9-CM</td><td>V15.03</td><td>Allergy to eggs</td><td/><td/><td/><td/></tr><tr><td>Neomycin</td><td>RxNorm</td><td>866041</td><td><span/>Neomycin Sulfate 500 MG</td><td><span/>Mild</td><td>Susceptible</td><td>06-05-2010 10:00:00</td><td>Active</td></tr><tr><td>Penicillin V</td><td>NDF-RT</td><td>N0000011298</td><td><span/>Penicillin V</td><td><span/>Moderate to severe</td><td>Very susceptible</td><td>06-05-2010 10:00:00</td><td>Active</td></tr></tbody></table></div>"
        },
        "mode": "snapshot",
        "entry": [ {
          "reference": "AllergyIntolerance/980d2da3-7b49-46b1-bd4a-f9434b1efd3a",
          "display": "Allergy to Eggs + Eggs"
        }, {
          "reference": "AllergyIntolerance/96cb4f86-3ab1-4ba7-9bd2-45555f432b36",
          "display": "Penicillin V + Penicillin V"
        }, {
          "reference": "AllergyIntolerance/d7d1f5ab-26a0-4e8b-b5fa-3d609667009f",
          "display": "Neomycin + Neomycin Sulfate 500 MG"
        } ]
      } ]
    }
  }, {
    "resource": {
      "resourceType": "Patient",
      "id": "0b45eeaf-7e69-4a07-b643-1e6a8d45ac49",
      "extension": [ {
        "url": "http://hl7.org/fhir/StructureDefinition/patient-religion",
        "valueCodeableConcept": {
          "coding": [ {
            "system": "urn:oid:2.16.840.1.113883.5.1076",
            "code": "1077",
            "display": "Protestant"
          } ]
        }
      }, {
        "url": "http://hl7.org/fhir/us/core/StructureDefinition/us-core-race",
        "extension": [ {
          "url": "text",
          "valueString": "White"
        }, {
          "url": "ombCategory",
          "valueCoding": {
            "system": "urn:oid:2.16.840.1.113883.6.238",
            "code": "2106-3",
            "display": "White"
          }
        } ]
      }, {
        "url": "http://hl7.org/fhir/us/core/StructureDefinition/us-core-ethnicity",
        "extension": [ {
          "url": "text",
          "valueString": "Not Hispanic or Latino"
        }, {
          "url": "ombCategory",
          "valueCoding": {
            "system": "urn:oid:2.16.840.1.113883.6.238",
            "code": "2186-5",
            "display": "Not Hispanic or Latino"
          }
        } ]
      }, {
        "url": "http://hl7.org/fhir/StructureDefinition/patient-birthPlace",
        "valueAddress": {
          "city": "Nashville",
          "state": "TN",
          "postalCode": "37210",
          "country": "US"
        }
      } ],
      "identifier": [ {
        "use": "official",
        "system": "urn:oid:2.16.840.1.113883.19.5.99999.2",
        "value": "998991"
      }, {
        "use": "official",
        "system": "urn:oid:2.16.840.1.113883.4.1",
        "value": "111-00-2330"
      } ],
      "name": [ {
        "use": "usual",
        "family": "Wood",
        "given": [ "Leroy" ]
      } ],
      "telecom": [ {
        "system": "phone",
        "value": "(413)263-1258",
        "use": "mobile"
      } ],
      "gender": "male",
      "birthDate": "1940-05-08",
      "address": [ {
        "use": "home",
        "line": [ "2210 Frank Avenue" ],
        "city": "Springfield",
        "state": "MA",
        "postalCode": "1103",
        "country": "US"
      } ],
      "maritalStatus": {
        "coding": [ {
          "system": "http://terminology.hl7.org/CodeSystem/v3-MaritalStatus",
          "code": "M",
          "display": "Married"
        } ]
      },
      "contact": [ {
        "relationship": [ {
          "coding": [ {
            "system": "http://terminology.hl7.org/CodeSystem/v2-0131",
            "code": "C",
            "display": "Emergency Contact"
          } ]
        } ],
        "name": {
          "family": "Perry",
          "given": [ "Sandy" ],
          "prefix": [ "Mr." ]
        },
        "telecom": [ {
          "system": "phone",
          "value": "(859)842-2681",
          "use": "home"
        }, {
          "system": "email",
          "value": "SandyAPerry@armyspy.com",
          "use": "work"
        } ],
        "address": {
          "use": "home",
          "line": [ "4430 Counts Lane" ],
          "city": "Winchester",
          "state": "KY",
          "postalCode": "40391",
          "country": "US"
        }
      } ],
      "communication": [ {
        "language": {
          "coding": [ {
            "system": "urn:ietf:bcp:47",
            "code": "spa"
          } ]
        },
        "preferred": true
      } ],
      "managingOrganization": {
        "reference": "Organization/918c491a-5bf8-41e0-8821-0d1ff991f6f8",
        "display": "Community Health and Hospitals"
      }
    }
  }, {
    "resource": {
      "resourceType": "Organization",
      "id": "918c491a-5bf8-41e0-8821-0d1ff991f6f8",
      "identifier": [ {
        "use": "official",
        "value": "2.16.840.1.113883.4.6"
      } ],
      "name": "Community Health and Hospitals",
      "telecom": [ {
        "system": "phone",
        "value": " 555-555-5000",
        "use": "work"
      } ],
      "address": [ {
        "line": [ "1001 Village Avenue" ],
        "city": "Portland",
        "state": "OR",
        "postalCode": "99123",
        "country": "US"
      } ]
    }
  }, {
    "resource": {
      "resourceType": "Practitioner",
      "id": "7c548486-f4a8-4d78-ac48-c18773cb6f93",
      "identifier": [ {
        "use": "official",
        "system": "urn:oid:2.16.840.1.113883.4.6",
        "value": "99999999"
      } ],
      "name": [ {
        "family": "Seven",
        "given": [ "Henry" ],
        "suffix": [ "MD" ]
      } ],
      "telecom": [ {
        "system": "phone",
        "value": "555-555-1002",
        "use": "work"
      } ],
      "address": [ {
        "line": [ "1002 Healthcare Drive" ],
        "city": "Portland",
        "state": "OR",
        "postalCode": "99123",
        "country": "US"
      } ]
    }
  }, {
    "resource": {
      "resourceType": "Practitioner",
      "id": "5e89f390-f30f-4828-a362-3cdaf866449a",
      "identifier": [ {
        "use": "official",
        "system": "http://hl7.org/fhir/sid/us-npi",
        "value": "999999999"
      } ],
      "name": [ {
        "family": "Seven",
        "given": [ "Henry" ]
      } ],
      "telecom": [ {
        "system": "phone",
        "value": "555-555-1002",
        "use": "work"
      } ],
      "address": [ {
        "line": [ "1001 Village Avenue" ],
        "city": "Portland",
        "state": "OR",
        "postalCode": "99123",
        "country": "US"
      } ]
    }
  }, {
    "resource": {
      "resourceType": "Practitioner",
      "id": "cf7a7a06-3e16-4589-9e5b-56e3c14bf69e",
      "identifier": [ {
        "use": "official",
        "system": "http://hl7.org/fhir/sid/us-npi",
        "value": "PseudoMD-1"
      } ],
      "name": [ {
        "family": "Seven",
        "given": [ "Henry" ],
        "suffix": [ "MD" ]
      } ],
      "telecom": [ {
        "system": "phone",
        "value": "+1-555-555-5000",
        "use": "home"
      } ],
      "address": [ {
        "line": [ "1001 Village Avenue" ],
        "city": "Portland",
        "state": "OR",
        "postalCode": "99123",
        "country": "US"
      } ]
    }
  }, {
    "resource": {
      "resourceType": "Organization",
      "id": "ca7fb54e-5b64-45ca-8b20-7dc7a8ca7df8",
      "identifier": [ {
        "use": "official",
        "system": "urn:oid:2.16.840.1.113883.4.6",
        "value": "99999999"
      } ],
      "name": "Community Health and Hospitals",
      "telecom": [ {
        "system": "phone",
        "value": " 555-555-1002",
        "use": "work"
      } ],
      "address": [ {
        "use": "work",
        "line": [ "1002 Healthcare Drive" ],
        "city": "Portland",
        "state": "OR",
        "postalCode": "99123",
        "country": "US"
      } ]
    }
  }, {
    "resource": {
      "resourceType": "Observation",
      "id": "d17a7ad7-683b-4f68-8ad1-ad17fc56cc3b",
      "identifier": [ {
        "use": "official",
        "value": "c6f88321-67ad-11db-bd13-0800200c9a66"
      } ],
      "status": "final",
      "category": [ {
        "coding": [ {
          "system": "http://terminology.hl7.org/CodeSystem/observation-category",
          "code": "vital-signs",
          "display": "Vital Signs"
        } ]
      } ],
      "code": {
        "coding": [ {
          "system": "http://loinc.org",
          "code": "39156-5",
          "display": "BMI"
        } ]
      },
      "subject": {
        "reference": "Patient/0b45eeaf-7e69-4a07-b643-1e6a8d45ac49",
        "display": "Leroy Wood"
      },
      "effectivePeriod": {
        "start": "2010-10-31T10:00:00+01:00"
      },
      "valueQuantity": {
        "value": 28.6,
        "unit": "kg/m2",
        "system": "http://unitsofmeasure.org",
        "code": "kg/m2"
      }
    }
  }, {
    "resource": {
      "resourceType": "Observation",
      "id": "f627e743-ad27-4ce5-91f3-d3559145374d",
      "identifier": [ {
        "use": "official",
        "value": "c6f88321-67ad-11db-bd13-0800200c9a66"
      } ],
      "status": "final",
      "category": [ {
        "coding": [ {
          "system": "http://terminology.hl7.org/CodeSystem/observation-category",
          "code": "vital-signs",
          "display": "Vital Signs"
        } ]
      } ],
      "code": {
        "coding": [ {
          "system": "http://loinc.org",
          "code": "8480-6",
          "display": "BP Systolic"
        } ]
      },
      "subject": {
        "reference": "Patient/0b45eeaf-7e69-4a07-b643-1e6a8d45ac49",
        "display": "Leroy Wood"
      },
      "effectivePeriod": {
        "start": "2010-10-31T10:00:00+01:00"
      },
      "valueQuantity": {
        "value": 134,
        "unit": "mm[Hg]",
        "system": "http://unitsofmeasure.org",
        "code": "mm[Hg]"
      }
    }
  }, {
    "resource": {
      "resourceType": "Observation",
      "id": "cfba30f4-24ce-4aa2-b38f-587419f7deec",
      "identifier": [ {
        "use": "official",
        "value": "c6f88321-67ad-11db-bd13-0800200c9a66"
      } ],
      "status": "final",
      "category": [ {
        "coding": [ {
          "system": "http://terminology.hl7.org/CodeSystem/observation-category",
          "code": "vital-signs",
          "display": "Vital Signs"
        } ]
      } ],
      "code": {
        "coding": [ {
          "system": "http://loinc.org",
          "code": "8867-4",
          "display": "Heart Rate"
        } ]
      },
      "subject": {
        "reference": "Patient/0b45eeaf-7e69-4a07-b643-1e6a8d45ac49",
        "display": "Leroy Wood"
      },
      "effectivePeriod": {
        "start": "2010-10-31T10:00:00+01:00"
      },
      "valueQuantity": {
        "value": 78,
        "unit": "/min",
        "system": "http://unitsofmeasure.org",
        "code": "/min"
      }
    }
  }, {
    "resource": {
      "resourceType": "Observation",
      "id": "b2fdde8a-bb22-41aa-8d4a-f0b829b25223",
      "identifier": [ {
        "use": "official",
        "value": "c6f88321-67ad-11db-bd13-0800200c9a66"
      } ],
      "status": "final",
      "category": [ {
        "coding": [ {
          "system": "http://terminology.hl7.org/CodeSystem/observation-category",
          "code": "vital-signs",
          "display": "Vital Signs"
        } ]
      } ],
      "code": {
        "coding": [ {
          "system": "http://loinc.org",
          "code": "8462-4",
          "display": "BP Diastolic"
        } ]
      },
      "subject": {
        "reference": "Patient/0b45eeaf-7e69-4a07-b643-1e6a8d45ac49",
        "display": "Leroy Wood"
      },
      "effectivePeriod": {
        "start": "2010-10-31T10:00:00+01:00"
      },
      "valueQuantity": {
        "value": 76,
        "unit": "mm[Hg]",
        "system": "http://unitsofmeasure.org",
        "code": "mm[Hg]"
      }
    }
  }, {
    "resource": {
      "resourceType": "Observation",
      "id": "6799acaa-b3e8-43f9-9df4-42d229cbb221",
      "identifier": [ {
        "use": "official",
        "value": "c6f88321-67ad-11db-bd13-0800200c9a66"
      } ],
      "status": "final",
      "category": [ {
        "coding": [ {
          "system": "http://terminology.hl7.org/CodeSystem/observation-category",
          "code": "vital-signs",
          "display": "Vital Signs"
        } ]
      } ],
      "code": {
        "coding": [ {
          "system": "http://loinc.org",
          "code": "8462-4",
          "display": "BP Diastolic"
        } ]
      },
      "subject": {
        "reference": "Patient/0b45eeaf-7e69-4a07-b643-1e6a8d45ac49",
        "display": "Leroy Wood"
      },
      "effectivePeriod": {
        "start": "2010-06-05T10:00:00+02:00"
      },
      "valueQuantity": {
        "value": 74,
        "unit": "mm[Hg]",
        "system": "http://unitsofmeasure.org",
        "code": "mm[Hg]"
      }
    }
  }, {
    "resource": {
      "resourceType": "Observation",
      "id": "07d10be7-eda9-4ab9-9ff8-b2fdc82c57f0",
      "identifier": [ {
        "use": "official",
        "value": "c6f88321-67ad-11db-bd13-0800200c9a66"
      } ],
      "status": "final",
      "category": [ {
        "coding": [ {
          "system": "http://terminology.hl7.org/CodeSystem/observation-category",
          "code": "vital-signs",
          "display": "Vital Signs"
        } ]
      } ],
      "code": {
        "coding": [ {
          "system": "http://loinc.org",
          "code": "8867-4",
          "display": "Heart Rate"
        } ]
      },
      "subject": {
        "reference": "Patient/0b45eeaf-7e69-4a07-b643-1e6a8d45ac49",
        "display": "Leroy Wood"
      },
      "effectivePeriod": {
        "start": "2010-06-05T10:00:00+02:00"
      },
      "valueQuantity": {
        "value": 74,
        "unit": "/min",
        "system": "http://unitsofmeasure.org",
        "code": "/min"
      }
    }
  }, {
    "resource": {
      "resourceType": "Observation",
      "id": "a0930b09-0054-42b8-9c53-2447b812bdd8",
      "identifier": [ {
        "use": "official",
        "value": "c6f88321-67ad-11db-bd13-0800200c9a66"
      } ],
      "status": "final",
      "category": [ {
        "coding": [ {
          "system": "http://terminology.hl7.org/CodeSystem/observation-category",
          "code": "vital-signs",
          "display": "Vital Signs"
        } ]
      } ],
      "code": {
        "coding": [ {
          "system": "http://loinc.org",
          "code": "8480-6",
          "display": "BP Systolic"
        } ]
      },
      "subject": {
        "reference": "Patient/0b45eeaf-7e69-4a07-b643-1e6a8d45ac49",
        "display": "Leroy Wood"
      },
      "effectivePeriod": {
        "start": "2010-06-05T10:00:00+02:00"
      },
      "valueQuantity": {
        "value": 132,
        "unit": "mm[Hg]",
        "system": "http://unitsofmeasure.org",
        "code": "mm[Hg]"
      }
    }
  }, {
    "resource": {
      "resourceType": "Observation",
      "id": "b9a8b2a5-91d0-4bd1-909f-f23d255947d3",
      "identifier": [ {
        "use": "official",
        "value": "c6f88321-67ad-11db-bd13-0800200c9a66"
      } ],
      "status": "final",
      "category": [ {
        "coding": [ {
          "system": "http://terminology.hl7.org/CodeSystem/observation-category",
          "code": "vital-signs",
          "display": "Vital Signs"
        } ]
      } ],
      "code": {
        "coding": [ {
          "system": "http://loinc.org",
          "code": "39156-5",
          "display": "BMI"
        } ]
      },
      "subject": {
        "reference": "Patient/0b45eeaf-7e69-4a07-b643-1e6a8d45ac49",
        "display": "Leroy Wood"
      },
      "effectivePeriod": {
        "start": "2010-06-10T10:00:00+02:00"
      },
      "valueQuantity": {
        "value": 30.1,
        "unit": "kg/m2",
        "system": "http://unitsofmeasure.org",
        "code": "kg/m2"
      }
    }
  }, {
    "resource": {
      "resourceType": "Encounter",
      "id": "5c0d855c-a947-41e3-8638-0e6e34ee1820",
      "identifier": [ {
        "use": "official",
        "value": "2a620155-9d11-439e-92b3-5d9815ff4de8"
      } ],
      "status": "finished",
      "type": [ {
        "coding": [ {
          "system": "http://www.ama-assn.org/go/cpt",
          "code": "99213",
          "display": "Office/outpatient visit, est"
        }, {
          "system": "urn:oid:2.16.840.1.113883.6.103",
          "code": "V70.0",
          "display": "Routine general medical examination at a health care facility"
        } ]
      } ],
      "subject": {
        "reference": "Patient/0b45eeaf-7e69-4a07-b643-1e6a8d45ac49",
        "display": "Leroy Wood"
      },
      "period": {
        "start": "2010-07-31T10:00:00+02:00"
      },
      "reasonCode": [ {
        "coding": [ {
          "system": "http://snomed.info/sct",
          "code": "84114007",
          "display": "Heart Failure"
        } ]
      } ],
      "reasonReference": [ {
        "reference": "Condition/cb50b67c-2edb-4f22-bc20-d0a049795730",
        "display": "Heart Failure"
      } ]
    }
  }, {
    "resource": {
      "resourceType": "Condition",
      "id": "cb50b67c-2edb-4f22-bc20-d0a049795730",
      "identifier": [ {
        "use": "official",
        "system": "urn:uuid:db734647-fc99-424c-a864-7e3cda82e703",
        "value": "45665"
      } ],
      "clinicalStatus": {
        "coding": [ {
          "system": "http://terminology.hl7.org/CodeSystem/condition-clinical",
          "code": "active",
          "display": "Active"
        } ]
      },
      "category": [ {
        "coding": [ {
          "system": "http://hl7.org/fhir/condition-category",
          "code": "encounter-diagnosis",
          "display": "Encounter Diagnosis"
        } ]
      } ],
      "code": {
        "coding": [ {
          "system": "http://snomed.info/sct",
          "code": "84114007",
          "display": "Heart Failure"
        }, {
          "system": "urn:oid:2.16.840.1.113883.6.90",
          "code": "I50.9",
          "display": "Heart failure, unspecified"
        }, {
          "system": "urn:oid:2.16.840.1.113883.6.103",
          "code": "428.9",
          "display": "Heart failure, unspecified"
        } ]
      },
      "subject": {
        "reference": "Patient/0b45eeaf-7e69-4a07-b643-1e6a8d45ac49",
        "display": "Leroy Wood"
      },
      "onsetDateTime": "2010-07-31T10:00:00+02:00"
    }
  }, {
    "resource": {
      "resourceType": "Encounter",
      "id": "ef01cff6-ab08-4de7-9601-536c1a315f41",
      "identifier": [ {
        "use": "official",
        "value": "2a620155-9d11-439e-92b3-5d9815ff4de8"
      } ],
      "status": "finished",
      "type": [ {
        "coding": [ {
          "system": "http://www.ama-assn.org/go/cpt",
          "code": "99213",
          "display": "Office/outpatient visit, est"
        }, {
          "system": "urn:oid:2.16.840.1.113883.6.103",
          "code": "V70.0",
          "display": "Routine general medical examination at a health care facility"
        } ]
      } ],
      "subject": {
        "reference": "Patient/0b45eeaf-7e69-4a07-b643-1e6a8d45ac49",
        "display": "Leroy Wood"
      },
      "period": {
        "start": "2010-10-31T10:00:00+01:00"
      }
    }
  }, {
    "resource": {
      "resourceType": "Encounter",
      "id": "776744b4-a5ac-449d-87d0-eae74f88d5aa",
      "identifier": [ {
        "use": "official",
        "value": "2a620155-9d11-439e-92b3-5d9815ff4de8"
      } ],
      "status": "finished",
      "type": [ {
        "coding": [ {
          "system": "http://www.ama-assn.org/go/cpt",
          "code": "99213",
          "display": "Office/outpatient visit, est"
        }, {
          "system": "urn:oid:2.16.840.1.113883.6.103",
          "code": "V70.0",
          "display": "Routine general medical examination at a health care facility"
        } ]
      } ],
      "subject": {
        "reference": "Patient/0b45eeaf-7e69-4a07-b643-1e6a8d45ac49",
        "display": "Leroy Wood"
      },
      "period": {
        "start": "2010-06-05T10:00:00+02:00"
      },
      "reasonCode": [ {
        "coding": [ {
          "system": "http://snomed.info/sct",
          "code": "59621000",
          "display": "Hypertension"
        } ]
      } ],
      "reasonReference": [ {
        "reference": "Condition/cb50b67c-2edb-4f22-bc20-d0a049795730",
        "display": "Heart Failure"
      } ]
    }
  }, {
    "resource": {
      "resourceType": "Observation",
      "id": "a738767d-15a4-4e56-a868-1c19499ec12f",
      "identifier": [ {
        "use": "official",
        "system": "urn:oid:2.16.840.1.113883.19",
        "value": "123456789"
      } ],
      "status": "final",
      "code": {
        "coding": [ {
          "system": "urn:oid:2.16.840.1.113883.5.4",
          "code": "ASSERTION"
        } ]
      },
      "subject": {
        "reference": "Patient/0b45eeaf-7e69-4a07-b643-1e6a8d45ac49",
        "display": "Leroy Wood"
      },
      "effectivePeriod": {
        "start": "2010-06-05T10:00:00+02:00"
      },
      "valueCodeableConcept": {
        "coding": [ {
          "system": "http://snomed.info/sct",
          "code": "266919005",
          "display": "Never smoker (Never Smoked)"
        }, {
          "system": "http://snomed.info/sct",
          "code": "449868002",
          "display": "Current every day smoker"
        } ]
      }
    }
  }, {
    "resource": {
      "resourceType": "Condition",
      "id": "1babb21b-3167-47e5-a146-aa99834fed9e",
      "identifier": [ {
        "use": "official",
        "value": "9d3d416d-45ab-4da1-912f-4583e0632000"
      } ],
      "clinicalStatus": {
        "coding": [ {
          "system": "http://terminology.hl7.org/CodeSystem/condition-clinical",
          "code": "active",
          "display": "Active"
        } ]
      },
      "verificationStatus": {
        "coding": [ {
          "system": "http://terminology.hl7.org/CodeSystem/condition-ver-status",
          "code": "confirmed",
          "display": "Confirmed"
        } ]
      },
      "category": [ {
        "coding": [ {
          "system": "http://terminology.hl7.org/CodeSystem/condition-category",
          "code": "problem-list-item",
          "display": "Problem List Item"
        } ]
      } ],
      "code": {
        "coding": [ {
          "system": "http://snomed.info/sct",
          "code": "84114007",
          "display": "Heart failure"
        }, {
          "system": "urn:oid:2.16.840.1.113883.6.90",
          "code": "I50.9",
          "display": "Heart failure, unspecified"
        }, {
          "system": "urn:oid:2.16.840.1.113883.6.103",
          "code": "428.9",
          "display": "Heart failure, unspecified"
        } ]
      },
      "subject": {
        "reference": "Patient/0b45eeaf-7e69-4a07-b643-1e6a8d45ac49",
        "display": "Leroy Wood"
      },
      "onsetDateTime": "2010-07-31T10:00:00+02:00"
    }
  }, {
    "resource": {
      "resourceType": "MedicationStatement",
      "id": "2ccd5ff8-f15f-432f-93ea-9d38fe57717f",
      "extension": [ {
        "url": "http://hl7.org/fhir/3.0/StructureDefinition/extension-MedicationStatement.status",
        "valueCode": "UNKNOWN"
      } ],
      "identifier": [ {
        "use": "official",
        "value": "cdbd33f0-6cde-11db-9fe1-0800200c9a66"
      } ],
      "status": "completed",
      "medicationReference": {
        "reference": "Medication/05b9dee8-923f-4d30-8d2b-434801222470",
        "display": "Enalapril Maleate 10 MG / Hydrochlorothiazide 25 MG Oral Tablet"
      },
      "subject": {
        "reference": "Patient/0b45eeaf-7e69-4a07-b643-1e6a8d45ac49",
        "display": "Leroy Wood"
      },
      "effectivePeriod": {
        "start": "2010-06-05T10:00:00+02:00"
      }
    }
  }, {
    "resource": {
      "resourceType": "Medication",
      "id": "05b9dee8-923f-4d30-8d2b-434801222470",
      "code": {
        "coding": [ {
          "system": "http://www.nlm.nih.gov/research/umls/rxnorm",
          "code": "858828",
          "display": "Enalapril Maleate 10 MG / Hydrochlorothiazide 25 MG Oral Tablet"
        } ]
      }
    }
  }, {
    "resource": {
      "resourceType": "MedicationStatement",
      "id": "eb53da00-a630-4f96-8e9c-e07fc7db3f9f",
      "extension": [ {
        "url": "http://hl7.org/fhir/3.0/StructureDefinition/extension-MedicationStatement.status",
        "valueCode": "UNKNOWN"
      } ],
      "identifier": [ {
        "use": "official",
        "value": "cdbd33f0-6cde-11db-9fe1-0800200c9a66"
      } ],
      "status": "completed",
      "medicationReference": {
        "reference": "Medication/a490e853-5ac2-4ba4-b93b-63aa19b825b1",
        "display": "Metoprolol Tartrate 25 MG Oral Tablet"
      },
      "subject": {
        "reference": "Patient/0b45eeaf-7e69-4a07-b643-1e6a8d45ac49",
        "display": "Leroy Wood"
      },
      "effectivePeriod": {
        "start": "2010-07-31T10:00:00+02:00"
      }
    }
  }, {
    "resource": {
      "resourceType": "Medication",
      "id": "a490e853-5ac2-4ba4-b93b-63aa19b825b1",
      "code": {
        "coding": [ {
          "system": "http://www.nlm.nih.gov/research/umls/rxnorm",
          "code": "866924",
          "display": "Metoprolol Tartrate 25 MG Oral Tablet"
        } ]
      }
    }
  }, {
    "resource": {
      "resourceType": "MedicationStatement",
      "id": "74c2c65f-2c88-41a8-96ea-f87c91315291",
      "extension": [ {
        "url": "http://hl7.org/fhir/3.0/StructureDefinition/extension-MedicationStatement.status",
        "valueCode": "UNKNOWN"
      } ],
      "identifier": [ {
        "use": "official",
        "value": "cdbd33f0-6cde-11db-9fe1-0800200c9a66"
      } ],
      "status": "completed",
      "medicationReference": {
        "reference": "Medication/b55acda7-3abd-4636-9506-493ec0c1459a",
        "display": "Lisinopril 10 MG Oral Tablet"
      },
      "subject": {
        "reference": "Patient/0b45eeaf-7e69-4a07-b643-1e6a8d45ac49",
        "display": "Leroy Wood"
      },
      "effectivePeriod": {
        "start": "2010-07-31T10:00:00+02:00"
      }
    }
  }, {
    "resource": {
      "resourceType": "Medication",
      "id": "b55acda7-3abd-4636-9506-493ec0c1459a",
      "code": {
        "coding": [ {
          "system": "http://www.nlm.nih.gov/research/umls/rxnorm",
          "code": "314076",
          "display": "Lisinopril 10 MG Oral Tablet"
        } ]
      }
    }
  }, {
    "resource": {
      "resourceType": "AllergyIntolerance",
      "id": "980d2da3-7b49-46b1-bd4a-f9434b1efd3a",
      "identifier": [ {
        "use": "official",
        "value": "36e3e930-7b14-11db-9fe1-0800200c9a66"
      } ],
      "clinicalStatus": {
        "coding": [ {
          "system": "http://terminology.hl7.org/CodeSystem/allergyintolerance-clinical",
          "code": "active",
          "display": "Active"
        } ]
      },
      "verificationStatus": {
        "coding": [ {
          "system": "http://terminology.hl7.org/CodeSystem/allergyintolerance-verification",
          "code": "confirmed",
          "display": "Confirmed"
        } ]
      },
      "type": "allergy",
      "category": [ "food" ],
      "code": {
        "coding": [ {
          "system": "http://fdasis.nlm.nih.gov",
          "code": "291P45F896",
          "display": "Eggs"
        }, {
          "system": "urn:oid:2.16.840.1.113883.6.103",
          "code": "V15.03",
          "display": "Allergy to eggs"
        } ],
        "text": "Allergy to Eggs + Eggs"
      },
      "patient": {
        "reference": "Patient/0b45eeaf-7e69-4a07-b643-1e6a8d45ac49",
        "display": "Leroy Wood"
      },
      "recordedDate": "2010-06-05T10:00:00+02:00"
    }
  }, {
    "resource": {
      "resourceType": "AllergyIntolerance",
      "id": "96cb4f86-3ab1-4ba7-9bd2-45555f432b36",
      "identifier": [ {
        "use": "official",
        "value": "36e3e930-7b14-11db-9fe1-0800200c9a66"
      } ],
      "clinicalStatus": {
        "coding": [ {
          "system": "http://terminology.hl7.org/CodeSystem/allergyintolerance-clinical",
          "code": "active",
          "display": "Active"
        } ]
      },
      "verificationStatus": {
        "coding": [ {
          "system": "http://terminology.hl7.org/CodeSystem/allergyintolerance-verification",
          "code": "confirmed",
          "display": "Confirmed"
        } ]
      },
      "type": "allergy",
      "category": [ "medication" ],
      "code": {
        "coding": [ {
          "system": "urn:oid:2.16.840.1.113883.3.26.1.5",
          "code": "N0000011298",
          "display": "Penicillin V"
        } ],
        "text": "Penicillin V + Penicillin V"
      },
      "patient": {
        "reference": "Patient/0b45eeaf-7e69-4a07-b643-1e6a8d45ac49",
        "display": "Leroy Wood"
      },
      "recordedDate": "2010-06-05T10:00:00+02:00"
    }
  }, {
    "resource": {
      "resourceType": "AllergyIntolerance",
      "id": "d7d1f5ab-26a0-4e8b-b5fa-3d609667009f",
      "identifier": [ {
        "use": "official",
        "value": "36e3e930-7b14-11db-9fe1-0800200c9a66"
      } ],
      "clinicalStatus": {
        "coding": [ {
          "system": "http://terminology.hl7.org/CodeSystem/allergyintolerance-clinical",
          "code": "active",
          "display": "Active"
        } ]
      },
      "verificationStatus": {
        "coding": [ {
          "system": "http://terminology.hl7.org/CodeSystem/allergyintolerance-verification",
          "code": "confirmed",
          "display": "Confirmed"
        } ]
      },
      "type": "allergy",
      "category": [ "medication" ],
      "code": {
        "coding": [ {
          "system": "http://www.nlm.nih.gov/research/umls/rxnorm",
          "code": "866041",
          "display": "Neomycin Sulfate 500 MG"
        } ],
        "text": "Neomycin + Neomycin Sulfate 500 MG"
      },
      "patient": {
        "reference": "Patient/0b45eeaf-7e69-4a07-b643-1e6a8d45ac49",
        "display": "Leroy Wood"
      },
      "recordedDate": "2010-06-05T10:00:00+02:00"
    }
  } ]
}