{
  "resourceType": "Bundle",
  "entry": [ {
    "resource": {
      "resourceType": "Composition",
      "id": "fe0fd168-9608-4115-980b-d1aece3047d5",
      "identifier": {
        "use": "official",
        "value": "db734647-fc99-424c-a864-7e3cda82e703"
      },
      "status": "preliminary",
      "type": {
        "coding": [ {
          "system": "http://loinc.org",
          "code": "34133-9",
          "display": "Summarization of Episode Note"
        } ]
      },
      "category": [ {
        "coding": [ {
          "system": "http://hl7.org/fhir/ValueSet/doc-classcodes",
          "code": "LP173421-7",
          "display": "Note"
        } ]
      } ],
      "subject": {
        "reference": "Patient/f0f79010-3435-4efc-b477-7a7ea8c5b3f4",
        "display": "Olga Fletcher"
      },
      "date": "2014-04-16T11:55:28+02:00",
      "author": [ {
        "reference": "Practitioner/f5f3f2c6-74d6-45e5-aef3-174bf17bdb61",
        "display": "Henry Seven MD"
      } ],
      "title": "Community Health and Hospitals: Health Summary",
      "confidentiality": "N",
      "attester": [ {
        "mode": "legal",
        "time": "2013-04-18T09:00:00+05:00",
        "party": {
          "reference": "Practitioner/ba856811-1c13-4d56-98b2-cc655251ad0d",
          "display": "Henry Seven"
        }
      }, {
        "mode": "professional",
        "time": "2014-04-16T11:55:28+02:00",
        "party": {
          "reference": "Practitioner/ba856811-1c13-4d56-98b2-cc655251ad0d",
          "display": "Henry Seven"
        }
      } ],
      "custodian": {
        "reference": "Organization/4343e838-e95a-475d-80df-3a95a620d523",
        "display": "Community Health and Hospitals"
      },
      "event": [ {
        "period": {
          "start": "2010-02-21T10:00:00+01:00",
          "end": "2011-03-31T10:00:00+02:00"
        },
        "detail": [ {
          "reference": "Practitioner/6cae6f1a-ce90-4aca-8280-6bdd7146ea48",
          "display": "Henry Seven MD"
        } ]
      } ],
      "section": [ {
        "title": "Results",
        "code": {
          "coding": [ {
            "system": "http://loinc.org",
            "code": "30954-2",
            "display": "Results"
          } ]
        },
        "text": {
          "status": "additional",
          "div": "<div xmlns=\"http://www.w3.org/1999/xhtml\"><table><thead><tr><th>Group Description</th><th>Code System</th><th>Code</th><th>Code Description</th><th>Value</th><th>Unit</th><th>Reference Range</th><th>Date and Time</th><th>Status</th></tr></thead><tbody><tr><td>Pregnancy Test</td><td>LOINC</td><td>2119-6</td><td><span/>HCG SerPl-sCnc</td><td>positive</td><td/><td>NA</td><td>04-01-2010 10:00:00</td><td>Completed</td></tr><tr><td/><td>CPT</td><td>84702</td><td>Chorionic gonadotropin test</td><td/><td/><td/><td/><td/></tr><tr><td>HIV Screening</td><td>LOINC</td><td>73906-0</td><td><span/>HIV1+2 IgG Bld Ql EIA.rapid</td><td>non-reactive</td><td/><td>NA</td><td>05-10-2010 10:00:00</td><td>Completed</td></tr><tr><td/><td>CPT</td><td>87389</td><td>Hiv-1 ag w/hiv-1 &amp; hiv-2 ab</td><td/><td/><td/><td/><td/></tr><tr><td/><td>SNOMED-CT</td><td>171121004</td><td>Human immunodeficiency virus screening</td><td/><td/><td/><td/><td/></tr></tbody></table></div>"
        },
        "mode": "snapshot",
        "entry": [ {
          "reference": "DiagnosticReport/4ec7c077-e25b-4ca4-8f8e-48a69cc216e1",
          "display": "Serology"
        }, {
          "reference": "DiagnosticReport/88a4d465-41a5-4c7c-97dc-cbe51ce07722",
          "display": "Serology"
        } ]
      }, {
        "title": "Social History",
        "code": {
          "coding": [ {
            "system": "http://loinc.org",
            "code": "29762-2",
            "display": "Social History"
          } ]
        },
        "text": {
          "status": "additional",
          "div": "<div xmlns=\"http://www.w3.org/1999/xhtml\"><table><thead><tr><th>Group Description</th><th>Code System</th><th>Code</th><th>Code Description</th><th>Date and Time</th><th>Status</th></tr></thead><tbody><tr><td>Tobacco Use</td><td>SNOMED-CT</td><td>266919005</td><td><span/>Never smoker (Never Smoked)</td><td>03-31-2010 10:00:00</td><td>Active</td></tr><tr><td/><td>SNOMED-CT</td><td>449868002</td><td>Current every day smoker</td><td/><td/></tr></tbody></table></div>"
        },
        "mode": "snapshot",
        "entry": [ {
          "reference": "Observation/f6b4aca9-da55-4385-9697-1e7cad14e943"
        } ]
      }, {
        "title": "Procedures",
        "code": {
          "coding": [ {
            "system": "http://loinc.org",
            "code": "47519-4",
            "display": "HISTORY OF PROCEDURES"
          } ]
        },
        "text": {
          "status": "additional",
          "div": "<div xmlns=\"http://www.w3.org/1999/xhtml\"><table><thead><tr><th>Group Description</th><th>Code System</th><th>Code</th><th>Code Description</th><th>Date and Time</th><th>Status</th></tr></thead><tbody><tr><td>Asthma Symptom Assessment Tool</td><td>SNOMED-CT</td><td>401011001</td><td><span/>Peak expiratory flow rate monitoring using diary</td><td>03-31-2010 10:00:00</td><td>Performed</td></tr><tr><td>Delivery Live Births-Procedure</td><td>CPT</td><td>59410</td><td><span/>Obstetrical care</td><td>11-30-2010 10:00:00</td><td>Performed</td></tr><tr><td/><td>SNOMED-CT</td><td>169961004</td><td>Normal birth</td><td/><td/></tr></tbody></table></div>"
        },
        "mode": "snapshot",
        "entry": [ {
          "reference": "Procedure/95cc2203-f3c5-4f5b-997b-280b7157659c",
          "display": "Obstetrical care"
        } ]
      }, {
        "title": "Vital Signs",
        "code": {
          "coding": [ {
            "system": "http://loinc.org",
            "code": "8716-3",
            "display": "Vital Signs"
          } ]
        },
        "text": {
          "status": "additional",
          "div": "<div xmlns=\"http://www.w3.org/1999/xhtml\"><table><thead><tr><th>Group Description</th><th>Code System</th><th>Code</th><th>Code Description</th><th>Value</th><th>Unit</th><th>Date and Time</th><th>Status</th></tr></thead><tbody><tr><td>Diastolic Blood Pressure</td><td>LOINC</td><td>8462-4</td><td><span/>BP Diastolic</td><td>68</td><td>mm[Hg]</td><td>05-10-2010 10:00:00</td><td>Finding</td></tr><tr><td>Systolic Blood Pressure</td><td>LOINC</td><td>8480-6</td><td><span/>BP Systolic</td><td>112</td><td>mm[Hg]</td><td>05-10-2010 10:00:00</td><td>Finding</td></tr><tr><td>Diastolic Blood Pressure</td><td>LOINC</td><td>8462-4</td><td><span/>BP Diastolic</td><td>66</td><td>mm[Hg]</td><td>07-10-2010 10:00:00</td><td>Finding</td></tr><tr><td>Systolic Blood Pressure</td><td>LOINC</td><td>8480-6</td><td><span/>BP Systolic</td><td>114</td><td>mm[Hg]</td><td>07-10-2010 10:00:00</td><td>Finding</td></tr><tr><td>Diastolic Blood Pressure</td><td>LOINC</td><td>8462-4</td><td><span/>BP Diastolic</td><td>66</td><td>mm[Hg]</td><td>10-10-2010 10:00:00</td><td>Finding</td></tr><tr><td>Systolic Blood Pressure</td><td>LOINC</td><td>8480-6</td><td><span/>BP Systolic</td><td>112</td><td>mm[Hg]</td><td>10-10-2010 10:00:00</td><td>Finding</td></tr><tr><td>Diastolic Blood Pressure</td><td>LOINC</td><td>8462-4</td><td><span/>BP Diastolic</td><td>68</td><td>mm[Hg]</td><td>11-01-2010 10:00:00</td><td>Finding</td></tr><tr><td>Systolic Blood Pressure</td><td>LOINC</td><td>8480-6</td><td><span/>BP Systolic</td><td>114</td><td>mm[Hg]</td><td>11-01-2010 10:00:00</td><td>Finding</td></tr></tbody></table></div>"
        },
        "mode": "snapshot",
        "entry": [ {
          "reference": "Observation/35c501e6-4f3e-4d36-9189-06d4ee892103",
          "display": "BP Systolic"
        }, {
          "reference": "Observation/872a9ecb-48be-4007-abbf-586945716a8e",
          "display": "BP Diastolic"
        }, {
          "reference": "Observation/17b4fa64-f0fa-4605-92cb-e14af11bec16",
          "display": "BP Systolic"
        }, {
          "reference": "Observation/32fdf145-1dee-49fb-843d-cc9b24af5b1b",
          "display": "BP Diastolic"
        }, {
          "reference": "Observation/3a2a86e4-aa3d-4fcc-8e06-958a71d9ab66",
          "display": "BP Diastolic"
        }, {
          "reference": "Observation/5a0f795f-e302-49c7-8608-891afa3b1b91",
          "display": "BP Systolic"
        }, {
          "reference": "Observation/6e090995-8767-4ea7-b65f-2c0f5943fcc9",
          "display": "BP Systolic"
        }, {
          "reference": "Observation/36837426-9001-4c3f-a18b-79cbed9a7de4",
          "display": "BP Diastolic"
        } ]
      }, {
        "title": "Encounters",
        "code": {
          "coding": [ {
            "system": "http://loinc.org",
            "code": "46240-8",
            "display": "History of encounters"
          } ]
        },
        "text": {
          "status": "additional",
          "div": "<div xmlns=\"http://www.w3.org/1999/xhtml\"><table><thead><tr><th>Group Description</th><th>Code System</th><th>Code</th><th>Code Description</th><th>Date and Time</th><th>Status</th></tr></thead><tbody><tr><td>Encounter Outpatient Including Orthopedics an</td><td>CPT</td><td>98940</td><td><span/>Chiropractic manipulation</td><td>03-31-2010 10:00:00</td><td>Performed</td></tr><tr><td>Encounter Office &amp; Outpatient Consult</td><td>CPT</td><td>99241</td><td><span/>Office consultation</td><td>04-01-2010 10:00:00</td><td>Performed</td></tr><tr><td>Prenatal Visit</td><td>SNOMED-CT</td><td>424619006</td><td><span/>Prenatal visit</td><td>05-10-2010 10:00:00</td><td>Performed</td></tr><tr><td/><td>ICD-10-CM</td><td>Z34.9</td><td>Encounter for supervision of normal pregnancy, unspecified</td><td/><td/></tr><tr><td/><td>ICD-9-CM</td><td>V22.2</td><td>Pregnant state, incidental</td><td/><td/></tr><tr><td>Prenatal Visit</td><td>SNOMED-CT</td><td>424619006</td><td><span/>Prenatal visit</td><td>07-10-2010 10:00:00</td><td>Performed</td></tr><tr><td/><td>ICD-10-CM</td><td>Z34.9</td><td>Encounter for supervision of normal pregnancy, unspecified</td><td/><td/></tr><tr><td/><td>ICD-9-CM</td><td>V22.2</td><td>Pregnant state, incidental</td><td/><td/></tr><tr><td>Prenatal Visit</td><td>SNOMED-CT</td><td>424619006</td><td><span/>Prenatal visit</td><td>09-10-2010 10:00:00</td><td>Performed</td></tr><tr><td/><td>ICD-10-CM</td><td>Z34.9</td><td>Encounter for supervision of normal pregnancy, unspecified</td><td/><td/></tr><tr><td/><td>ICD-9-CM</td><td>V22.2</td><td>Pregnant state, incidental</td><td/><td/></tr><tr><td>Prenatal Visit</td><td>SNOMED-CT</td><td>424619006</td><td><span/>Prenatal visit</td><td>10-10-2010 10:00:00</td><td>Performed</td></tr><tr><td/><td>ICD-10-CM</td><td>Z34.9</td><td>Encounter for supervision of normal pregnancy, unspecified</td><td/><td/></tr><tr><td/><td>ICD-9-CM</td><td>V22.2</td><td>Pregnant state, incidental</td><td/><td/></tr><tr><td>Prenatal Visit</td><td>SNOMED-CT</td><td>424619006</td><td><span/>Prenatal visit</td><td>11-01-2010 10:00:00</td><td>Performed</td></tr><tr><td/><td>ICD-10-CM</td><td>Z34.9</td><td>Encounter for supervision of normal pregnancy, unspecified</td><td/><td/></tr><tr><td/><td>ICD-9-CM</td><td>V22.2</td><td>Pregnant state, incidental</td><td/><td/></tr><tr><td>Encounter Office &amp; Outpatient Consult</td><td>CPT</td><td>99241</td><td><span/>Office consultation</td><td>11-10-2010 10:00:00</td><td>Performed</td></tr><tr><td>Prenatal Visit</td><td>SNOMED-CT</td><td>424619006</td><td><span/>Prenatal visit</td><td>11-15-2010 10:00:00</td><td>Performed</td></tr><tr><td/><td>ICD-10-CM</td><td>Z34.9</td><td>Encounter for supervision of normal pregnancy, unspecified</td><td/><td/></tr><tr><td/><td>ICD-9-CM</td><td>V22.2</td><td>Pregnant state, incidental</td><td/><td/></tr><tr><td>Prenatal Visit</td><td>SNOMED-CT</td><td>424619006</td><td><span/>Prenatal visit</td><td>11-30-2010 10:00:00</td><td>Performed</td></tr><tr><td/><td>ICD-10-CM</td><td>Z34.9</td><td>Encounter for supervision of normal pregnancy, unspecified</td><td/><td/></tr><tr><td/><td>ICD-9-CM</td><td>V22.2</td><td>Pregnant state, incidental</td><td/><td/></tr></tbody></table></div>"
        },
        "mode": "snapshot",
        "entry": [ {
          "reference": "Encounter/912fe20d-48e8-4bde-9702-d7ee89ada71a",
          "display": "Prenatal visit"
        }, {
          "reference": "Encounter/6f5b7459-739a-4dae-8d52-7d04197e84de",
          "display": "Chiropractic manipulation"
        }, {
          "reference": "Encounter/3169cdfb-78b3-42ab-a2d8-60927a75c42c",
          "display": "Prenatal visit"
        }, {
          "reference": "Encounter/873826f8-8656-4d46-a59d-cb1fb1a91c39",
          "display": "Prenatal visit"
        }, {
          "reference": "Encounter/1d935909-b5e8-4863-8848-5cfb6817cefe",
          "display": "Office consultation"
        }, {
          "reference": "Encounter/538dc40c-16cb-4125-bfcb-388475b787f3",
          "display": "Prenatal visit"
        }, {
          "reference": "Encounter/9ab289b8-8d4c-4883-8438-4e56b915f829",
          "display": "Prenatal visit"
        }, {
          "reference": "Encounter/a8f4b8b3-8cb8-45a7-923f-0b4cf7708e55",
          "display": "Prenatal visit"
        }, {
          "reference": "Encounter/04842288-8702-4499-8623-967ab7ff957d",
          "display": "Prenatal visit"
        }, {
          "reference": "Encounter/17734e38-adcd-4ced-acde-a4d8f18665b1",
          "display": "Office consultation"
        } ]
      }, {
        "title": "Medications",
        "code": {
          "coding": [ {
            "system": "http://loinc.org",
            "code": "10160-0",
            "display": "History of Medication Use"
          } ]
        },
        "text": {
          "status": "additional",
          "div": "<div xmlns=\"http://www.w3.org/1999/xhtml\"><table><thead><tr><th>Group Description</th><th>Code System</th><th>Code</th><th>Code Description</th><th>Date and Time</th><th>Status</th></tr></thead><tbody><tr><td>Antihypertensive combinations</td><td>RxNorm</td><td>858828</td><td><span/>Enalapril Maleate 10 MG / Hydrochlorothiazide 25 MG Oral Tablet</td><td>03-31-2010 10:00:00</td><td>Active</td></tr><tr><td>Long acting inhaled beta 2 agonist</td><td>RxNorm</td><td>318142</td><td><span/>salmeterol 0.05 MG/ACTUAT Inhalant Powder</td><td>03-31-2010 10:00:00</td><td>Active</td></tr><tr><td>Short acting beta 2 agonist</td><td>RxNorm</td><td>630208</td><td><span/>Albuterol 0.83 MG/ML Inhalant Solution</td><td>03-31-2010 10:00:00</td><td>Active</td></tr></tbody></table></div>"
        },
        "mode": "snapshot",
        "entry": [ {
          "reference": "MedicationStatement/cda99552-55f0-4ef9-bac5-4dbf9d1ba702",
          "display": "salmeterol 0.05 MG/ACTUAT Inhalant Powder"
        }, {
          "reference": "MedicationStatement/3e0cdce1-3eb5-4728-9a22-a715a928dee7",
          "display": "Albuterol 0.83 MG/ML Inhalant Solution"
        }, {
          "reference": "MedicationStatement/c0142b2c-3f11-4c40-bd47-f13d17cc2eb6",
          "display": "Enalapril Maleate 10 MG / Hydrochlorothiazide 25 MG Oral Tablet"
        } ]
      }, {
        "title": "Allergies,  Adverse Reactions & Alerts",
        "code": {
          "coding": [ {
            "system": "http://loinc.org",
            "code": "48765-2",
            "display": "Allergies, adverse reactions, alerts"
          } ]
        },
        "text": {
          "status": "additional",
          "div": "<div xmlns=\"http://www.w3.org/1999/xhtml\"><table><thead><tr><th>Group Description</th><th>Code System</th><th>Code</th><th>Code Description</th><th>Severity</th><th>Susceptibility</th><th>Date and Time</th><th>Status</th></tr></thead><tbody><tr><td>Allergy to Eggs</td><td>UNII</td><td>291P45F896</td><td><span/>Eggs</td><td><span/>Mild</td><td>Very susceptible</td><td>03-31-2010 10:00:00</td><td>Active</td></tr><tr><td/><td>ICD-9-CM</td><td>V15.03</td><td>Allergy to eggs</td><td/><td/><td/><td/></tr><tr><td>Neomycin</td><td>RxNorm</td><td>866041</td><td><span/>Neomycin Sulfate 500 MG</td><td><span/>Mild to moderate</td><td>Moderately Susceptible</td><td>03-31-2010 10:00:00</td><td>Active</td></tr><tr><td>Tetracyclines</td><td>RxNorm</td><td>406524</td><td><span/>Doxycycline 75 MG Enteric Coated Tablet</td><td><span/>Mild to moderate</td><td>Moderately Susceptible</td><td>03-31-2010 10:00:00</td><td>Active</td></tr><tr><td/><td>NDF-RT</td><td>N0000006275</td><td>Tetracycline</td><td/><td/><td/><td/></tr></tbody></table></div>"
        },
        "mode": "snapshot",
        "entry": [ {
          "reference": "AllergyIntolerance/9327aa56-10e7-46ac-9f6c-6c9af5efcfb4",
          "display": "Allergy to Eggs + Eggs"
        }, {
          "reference": "AllergyIntolerance/bd26fd18-e049-4b10-8358-f2356471a84e",
          "display": "Neomycin + Neomycin Sulfate 500 MG"
        }, {
          "reference": "AllergyIntolerance/ad36f951-5028-45c4-855f-c1b76da6dea7",
          "display": "Tetracyclines + Doxycycline 75 MG Enteric Coated Tablet"
        } ]
      }, {
        "title": "Problems",
        "code": {
          "coding": [ {
            "system": "http://loinc.org",
            "code": "11450-4",
            "display": "PROBLEM LIST"
          } ]
        },
        "text": {
          "status": "additional",
          "div": "<div xmlns=\"http://www.w3.org/1999/xhtml\"><table><thead><tr><th>Group Description</th><th>Code System</th><th>Code</th><th>Code Description</th><th>Date and Time</th><th>Status</th></tr></thead><tbody><tr><td>Estimated Date of Conception</td><td>SNOMED-CT</td><td>248986005</td><td><span/>Estimated date of conception</td><td>02-21-2010 10:00:00</td><td>Active</td></tr><tr><td>Asthma</td><td>SNOMED-CT</td><td>195979001</td><td><span/>Asthma unspecified</td><td>03-31-2010 10:00:00</td><td>Active</td></tr><tr><td/><td>ICD-10-CM</td><td>J45</td><td>Asthma</td><td/><td/></tr><tr><td/><td>ICD-9-CM</td><td>493.92</td><td>Asthma, unspecified type, with (acute) exacerbation</td><td/><td/></tr><tr><td>Asthma Daytime Symptoms</td><td>SNOMED-CT</td><td>373899003</td><td><span/>Asthma daytime symptoms</td><td>03-31-2010 10:00:00</td><td>Active</td></tr><tr><td>Asthma Nighttime Symptoms Quantified</td><td>SNOMED-CT</td><td>370205009</td><td><span/>Asthma causes night symptoms 1 to 2 times per month</td><td>03-31-2010 10:00:00</td><td>Active</td></tr><tr><td>Hypertension</td><td>SNOMED-CT</td><td>59621000</td><td><span/>Essential hypertension</td><td>03-31-2010 10:00:00</td><td>Active</td></tr><tr><td/><td>ICD-10-CM</td><td>I10</td><td>Essential (primary) hypertension</td><td/><td/></tr><tr><td/><td>ICD-9-CM</td><td>401.9</td><td>Unspecified essential hypertension</td><td/><td/></tr><tr><td>Pregnancy-related diagnosis</td><td>SNOMED-CT</td><td>199305006</td><td><span/>Complications specific to multiple gestation</td><td>11-30-2010 10:00:00</td><td>Active</td></tr><tr><td/><td>ICD-10-CM</td><td>O30</td><td>Multiple gestation</td><td/><td/></tr><tr><td/><td>ICD-9-CM</td><td>651.90</td><td>Unspecified multiple gestation, unspecified as to episode of care or not applicable</td><td/><td/></tr><tr><td>low back pain</td><td>SNOMED-CT</td><td>279039007</td><td><span/>Low back pain</td><td>03-31-2011 10:00:00</td><td>Active</td></tr><tr><td/><td>ICD-10-CM</td><td>M54.9</td><td>Dorsalgia, unspecified</td><td/><td/></tr><tr><td/><td>ICD-9-CM</td><td>724.2</td><td>Lumbago</td><td/><td/></tr></tbody></table></div>"
        },
        "mode": "snapshot",
        "entry": [ {
          "reference": "Condition/6c7c1487-8c95-44ae-a848-cdeb8f6a1b9e",
          "display": "Asthma unspecified"
        } ]
      } ]
    }
  }, {
    "resource": {
      "resourceType": "Patient",
      "id": "f0f79010-3435-4efc-b477-7a7ea8c5b3f4",
      "extension": [ {
        "url": "http://hl7.org/fhir/StructureDefinition/patient-religion",
        "valueCodeableConcept": {
          "coding": [ {
            "system": "urn:oid:2.16.840.1.113883.5.1076",
            "code": "1005",
            "display": "Anglican"
          } ]
        }
      }, {
        "url": "http://hl7.org/fhir/us/core/StructureDefinition/us-core-race",
        "extension": [ {
          "url": "text",
          "valueString": "White"
        }, {
          "url": "ombCategory",
          "valueCoding": {
            "system": "urn:oid:2.16.840.1.113883.6.238",
            "code": "2106-3",
            "display": "White"
          }
        } ]
      }, {
        "url": "http://hl7.org/fhir/us/core/StructureDefinition/us-core-ethnicity",
        "extension": [ {
          "url": "text",
          "valueString": "Not Hispanic or Latino"
        }, {
          "url": "ombCategory",
          "valueCoding": {
            "system": "urn:oid:2.16.840.1.113883.6.238",
            "code": "2186-5",
            "display": "Not Hispanic or Latino"
          }
        } ]
      }, {
        "url": "http://hl7.org/fhir/StructureDefinition/patient-birthPlace",
        "valueAddress": {
          "city": "Annapolis Junction",
          "state": "MD",
          "postalCode": "20701",
          "country": "US"
        }
      } ],
      "identifier": [ {
        "use": "official",
        "system": "urn:oid:2.16.840.1.113883.19.5.99999.2",
        "value": "998991"
      }, {
        "use": "official",
        "system": "urn:oid:2.16.840.1.113883.4.1",
        "value": "111-00-2330"
      } ],
      "name": [ {
        "use": "usual",
        "family": "Fletcher",
        "given": [ "Olga" ]
      } ],
      "telecom": [ {
        "system": "phone",
        "value": "(941)214-2817",
        "use": "mobile"
      } ],
      "gender": "female",
      "birthDate": "1972-12-02",
      "address": [ {
        "use": "home",
        "line": [ "514 Lunetta Street" ],
        "city": "Port Charlotte",
        "state": "FL",
        "postalCode": "33954",
        "country": "US"
      } ],
      "maritalStatus": {
        "coding": [ {
          "system": "http://terminology.hl7.org/CodeSystem/v3-MaritalStatus",
          "code": "M",
          "display": "Married"
        } ]
      },
      "contact": [ {
        "relationship": [ {
          "coding": [ {
            "system": "http://terminology.hl7.org/CodeSystem/v2-0131",
            "code": "C",
            "display": "Emergency Contact"
          } ]
        } ],
        "name": {
          "family": "Middleton",
          "given": [ "Chris" ],
          "prefix": [ "Mr." ]
        },
        "telecom": [ {
          "system": "phone",
          "value": "(281)578-5632",
          "use": "home"
        }, {
          "system": "email",
          "value": "ChrisAMiddleton@teleworm.us",
          "use": "work"
        } ],
        "address": {
          "use": "home",
          "line": [ "1145 Bird Spring Lane" ],
          "city": "Katy",
          "state": "TX",
          "postalCode": "77450",
          "country": "US"
        }
      } ],
      "communication": [ {
        "language": {
          "coding": [ {
            "system": "urn:ietf:bcp:47",
            "code": "spa"
          } ]
        },
        "preferred": true
      } ],
      "managingOrganization": {
        "reference": "Organization/7c573921-8518-42a0-a520-b688a088a71f",
        "display": "Community Health and Hospitals"
      }
    }
  }, {
    "resource": {
      "resourceType": "Organization",
      "id": "7c573921-8518-42a0-a520-b688a088a71f",
      "identifier": [ {
        "use": "official",
        "value": "2.16.840.1.113883.4.6"
      } ],
      "name": "Community Health and Hospitals",
      "telecom": [ {
        "system": "phone",
        "value": " 555-555-5000",
        "use": "work"
      } ],
      "address": [ {
        "line": [ "1001 Village Avenue" ],
        "city": "Portland",
        "state": "OR",
        "postalCode": "99123",
        "country": "US"
      } ]
    }
  }, {
    "resource": {
      "resourceType": "Practitioner",
      "id": "f5f3f2c6-74d6-45e5-aef3-174bf17bdb61",
      "identifier": [ {
        "use": "official",
        "system": "urn:oid:2.16.840.1.113883.4.6",
        "value": "99999999"
      } ],
      "name": [ {
        "family": "Seven",
        "given": [ "Henry" ],
        "suffix": [ "MD" ]
      } ],
      "telecom": [ {
        "system": "phone",
        "value": "555-555-1002",
        "use": "work"
      } ],
      "address": [ {
        "line": [ "1002 Healthcare Drive" ],
        "city": "Portland",
        "state": "OR",
        "postalCode": "99123",
        "country": "US"
      } ]
    }
  }, {
    "resource": {
      "resourceType": "Practitioner",
      "id": "ba856811-1c13-4d56-98b2-cc655251ad0d",
      "identifier": [ {
        "use": "official",
        "system": "http://hl7.org/fhir/sid/us-npi",
        "value": "999999999"
      } ],
      "name": [ {
        "family": "Seven",
        "given": [ "Henry" ]
      } ],
      "telecom": [ {
        "system": "phone",
        "value": "555-555-1002",
        "use": "work"
      } ],
      "address": [ {
        "line": [ "1001 Village Avenue" ],
        "city": "Portland",
        "state": "OR",
        "postalCode": "99123",
        "country": "US"
      } ]
    }
  }, {
    "resource": {
      "resourceType": "Practitioner",
      "id": "6cae6f1a-ce90-4aca-8280-6bdd7146ea48",
      "identifier": [ {
        "use": "official",
        "system": "http://hl7.org/fhir/sid/us-npi",
        "value": "PseudoMD-1"
      } ],
      "name": [ {
        "family": "Seven",
        "given": [ "Henry" ],
        "suffix": [ "MD" ]
      } ],
      "telecom": [ {
        "system": "phone",
        "value": "+1-555-555-5000",
        "use": "home"
      } ],
      "address": [ {
        "line": [ "1001 Village Avenue" ],
        "city": "Portland",
        "state": "OR",
        "postalCode": "99123",
        "country": "US"
      } ]
    }
  }, {
    "resource": {
      "resourceType": "Organization",
      "id": "4343e838-e95a-475d-80df-3a95a620d523",
      "identifier": [ {
        "use": "official",
        "system": "urn:oid:2.16.840.1.113883.4.6",
        "value": "99999999"
      } ],
      "name": "Community Health and Hospitals",
      "telecom": [ {
        "system": "phone",
        "value": " 555-555-1002",
        "use": "work"
      } ],
      "address": [ {
        "use": "work",
        "line": [ "1002 Healthcare Drive" ],
        "city": "Portland",
        "state": "OR",
        "postalCode": "99123",
        "country": "US"
      } ]
    }
  }, {
    "resource": {
      "resourceType": "DiagnosticReport",
      "id": "4ec7c077-e25b-4ca4-8f8e-48a69cc216e1",
      "identifier": [ {
        "use": "official",
        "value": "7d5a02b0-67a4-11db-bd13-0800200c9a66"
      } ],
      "status": "final",
      "category": [ {
        "coding": [ {
          "system": "http://terminology.hl7.org/CodeSystem/v2-0074",
          "code": "LAB",
          "display": "Laboratory"
        } ]
      } ],
      "code": {
        "coding": [ {
          "system": "http://snomed.info/sct",
          "code": "275711006",
          "display": "Serology"
        } ]
      },
      "subject": {
        "reference": "Patient/f0f79010-3435-4efc-b477-7a7ea8c5b3f4",
        "display": "Olga Fletcher"
      },
      "result": [ {
        "reference": "Observation/b44c602d-4f9d-4a2d-9fe7-d1f818e673ba",
        "display": "HIV1+2 IgG Bld Ql EIA.rapid"
      } ]
    }
  }, {
    "resource": {
      "resourceType": "Observation",
      "id": "b44c602d-4f9d-4a2d-9fe7-d1f818e673ba",
      "identifier": [ {
        "use": "official",
        "value": "107c2dc0-67a5-11db-bd13-0800200c9a66"
      } ],
      "status": "final",
      "category": [ {
        "coding": [ {
          "system": "http://terminology.hl7.org/CodeSystem/observation-category",
          "code": "laboratory"
        } ]
      } ],
      "code": {
        "coding": [ {
          "system": "http://loinc.org",
          "code": "73906-0",
          "display": "HIV1+2 IgG Bld Ql EIA.rapid"
        }, {
          "system": "http://www.ama-assn.org/go/cpt",
          "code": "87389",
          "display": "Hiv-1 ag w/hiv-1 & hiv-2 ab"
        }, {
          "system": "http://snomed.info/sct",
          "code": "171121004",
          "display": "Human immunodeficiency virus screening"
        } ]
      },
      "subject": {
        "reference": "Patient/f0f79010-3435-4efc-b477-7a7ea8c5b3f4",
        "display": "Olga Fletcher"
      },
      "effectivePeriod": {
        "start": "2010-05-10T10:00:00+02:00"
      },
      "valueCodeableConcept": {
        "coding": [ {
          "system": "http://snomed.info/sct",
          "code": "131194007",
          "display": "non-reactive"
        } ]
      },
      "interpretation": [ {
        "coding": [ {
          "system": "http://terminology.hl7.org/CodeSystem/v3-ObservationInterpretation",
          "code": "N"
        } ]
      } ],
      "referenceRange": [ {
        "text": "NA"
      } ]
    }
  }, {
    "resource": {
      "resourceType": "DiagnosticReport",
      "id": "88a4d465-41a5-4c7c-97dc-cbe51ce07722",
      "identifier": [ {
        "use": "official",
        "value": "7d5a02b0-67a4-11db-bd13-0800200c9a66"
      } ],
      "status": "final",
      "category": [ {
        "coding": [ {
          "system": "http://terminology.hl7.org/CodeSystem/v2-0074",
          "code": "LAB",
          "display": "Laboratory"
        } ]
      } ],
      "code": {
        "coding": [ {
          "system": "http://snomed.info/sct",
          "code": "275711006",
          "display": "Serology"
        } ]
      },
      "subject": {
        "reference": "Patient/f0f79010-3435-4efc-b477-7a7ea8c5b3f4",
        "display": "Olga Fletcher"
      },
      "result": [ {
        "reference": "Observation/ae48c9bc-7bc0-41fc-a7e0-10a989a50af1",
        "display": "HCG SerPl-sCnc"
      } ]
    }
  }, {
    "resource": {
      "resourceType": "Observation",
      "id": "ae48c9bc-7bc0-41fc-a7e0-10a989a50af1",
      "identifier": [ {
        "use": "official",
        "value": "107c2dc0-67a5-11db-bd13-0800200c9a66"
      } ],
      "status": "final",
      "category": [ {
        "coding": [ {
          "system": "http://terminology.hl7.org/CodeSystem/observation-category",
          "code": "laboratory"
        } ]
      } ],
      "code": {
        "coding": [ {
          "system": "http://loinc.org",
          "code": "2119-6",
          "display": "HCG SerPl-sCnc"
        }, {
          "system": "http://www.ama-assn.org/go/cpt",
          "code": "84702",
          "display": "Chorionic gonadotropin test"
        } ]
      },
      "subject": {
        "reference": "Patient/f0f79010-3435-4efc-b477-7a7ea8c5b3f4",
        "display": "Olga Fletcher"
      },
      "effectivePeriod": {
        "start": "2010-04-01T10:00:00+02:00"
      },
      "valueCodeableConcept": {
        "coding": [ {
          "system": "http://snomed.info/sct",
          "code": "10828004",
          "display": "positive"
        } ]
      },
      "interpretation": [ {
        "coding": [ {
          "system": "http://terminology.hl7.org/CodeSystem/v3-ObservationInterpretation",
          "code": "N"
        } ]
      } ],
      "referenceRange": [ {
        "text": "NA"
      } ]
    }
  }, {
    "resource": {
      "resourceType": "Observation",
      "id": "f6b4aca9-da55-4385-9697-1e7cad14e943",
      "identifier": [ {
        "use": "official",
        "system": "urn:oid:2.16.840.1.113883.19",
        "value": "123456789"
      } ],
      "status": "final",
      "code": {
        "coding": [ {
          "system": "urn:oid:2.16.840.1.113883.5.4",
          "code": "ASSERTION"
        } ]
      },
      "subject": {
        "reference": "Patient/f0f79010-3435-4efc-b477-7a7ea8c5b3f4",
        "display": "Olga Fletcher"
      },
      "effectivePeriod": {
        "start": "2010-03-31T10:00:00+02:00"
      },
      "valueCodeableConcept": {
        "coding": [ {
          "system": "http://snomed.info/sct",
          "code": "266919005",
          "display": "Never smoker (Never Smoked)"
        }, {
          "system": "http://snomed.info/sct",
          "code": "449868002",
          "display": "Current every day smoker"
        } ]
      }
    }
  }, {
    "resource": {
      "resourceType": "Procedure",
      "id": "95cc2203-f3c5-4f5b-997b-280b7157659c",
      "identifier": [ {
        "use": "official",
        "value": "e401f340-7be2-11db-9fe1-0800200c9a66"
      } ],
      "status": "completed",
      "code": {
        "coding": [ {
          "system": "http://www.ama-assn.org/go/cpt",
          "code": "59410",
          "display": "Obstetrical care"
        }, {
          "system": "http://snomed.info/sct",
          "code": "169961004",
          "display": "Normal birth"
        } ]
      },
      "subject": {
        "reference": "Patient/f0f79010-3435-4efc-b477-7a7ea8c5b3f4",
        "display": "Olga Fletcher"
      },
      "performedPeriod": {
        "start": "2010-11-30T10:00:00+01:00"
      }
    }
  }, {
    "resource": {
      "resourceType": "Observation",
      "id": "35c501e6-4f3e-4d36-9189-06d4ee892103",
      "identifier": [ {
        "use": "official",
        "value": "c6f88321-67ad-11db-bd13-0800200c9a66"
      } ],
      "status": "final",
      "category": [ {
        "coding": [ {
          "system": "http://terminology.hl7.org/CodeSystem/observation-category",
          "code": "vital-signs",
          "display": "Vital Signs"
        } ]
      } ],
      "code": {
        "coding": [ {
          "system": "http://loinc.org",
          "code": "8480-6",
          "display": "BP Systolic"
        } ]
      },
      "subject": {
        "reference": "Patient/f0f79010-3435-4efc-b477-7a7ea8c5b3f4",
        "display": "Olga Fletcher"
      },
      "effectivePeriod": {
        "start": "2010-11-01T10:00:00+01:00"
      },
      "valueQuantity": {
        "value": 114,
        "unit": "mm[Hg]",
        "system": "http://unitsofmeasure.org",
        "code": "mm[Hg]"
      }
    }
  }, {
    "resource": {
      "resourceType": "Observation",
      "id": "872a9ecb-48be-4007-abbf-586945716a8e",
      "identifier": [ {
        "use": "official",
        "value": "c6f88321-67ad-11db-bd13-0800200c9a66"
      } ],
      "status": "final",
      "category": [ {
        "coding": [ {
          "system": "http://terminology.hl7.org/CodeSystem/observation-category",
          "code": "vital-signs",
          "display": "Vital Signs"
        } ]
      } ],
      "code": {
        "coding": [ {
          "system": "http://loinc.org",
          "code": "8462-4",
          "display": "BP Diastolic"
        } ]
      },
      "subject": {
        "reference": "Patient/f0f79010-3435-4efc-b477-7a7ea8c5b3f4",
        "display": "Olga Fletcher"
      },
      "effectivePeriod": {
        "start": "2010-11-01T10:00:00+01:00"
      },
      "valueQuantity": {
        "value": 68,
        "unit": "mm[Hg]",
        "system": "http://unitsofmeasure.org",
        "code": "mm[Hg]"
      }
    }
  }, {
    "resource": {
      "resourceType": "Observation",
      "id": "17b4fa64-f0fa-4605-92cb-e14af11bec16",
      "identifier": [ {
        "use": "official",
        "value": "c6f88321-67ad-11db-bd13-0800200c9a66"
      } ],
      "status": "final",
      "category": [ {
        "coding": [ {
          "system": "http://terminology.hl7.org/CodeSystem/observation-category",
          "code": "vital-signs",
          "display": "Vital Signs"
        } ]
      } ],
      "code": {
        "coding": [ {
          "system": "http://loinc.org",
          "code": "8480-6",
          "display": "BP Systolic"
        } ]
      },
      "subject": {
        "reference": "Patient/f0f79010-3435-4efc-b477-7a7ea8c5b3f4",
        "display": "Olga Fletcher"
      },
      "effectivePeriod": {
        "start": "2010-05-10T10:00:00+02:00"
      },
      "valueQuantity": {
        "value": 112,
        "unit": "mm[Hg]",
        "system": "http://unitsofmeasure.org",
        "code": "mm[Hg]"
      }
    }
  }, {
    "resource": {
      "resourceType": "Observation",
      "id": "32fdf145-1dee-49fb-843d-cc9b24af5b1b",
      "identifier": [ {
        "use": "official",
        "value": "c6f88321-67ad-11db-bd13-0800200c9a66"
      } ],
      "status": "final",
      "category": [ {
        "coding": [ {
          "system": "http://terminology.hl7.org/CodeSystem/observation-category",
          "code": "vital-signs",
          "display": "Vital Signs"
        } ]
      } ],
      "code": {
        "coding": [ {
          "system": "http://loinc.org",
          "code": "8462-4",
          "display": "BP Diastolic"
        } ]
      },
      "subject": {
        "reference": "Patient/f0f79010-3435-4efc-b477-7a7ea8c5b3f4",
        "display": "Olga Fletcher"
      },
      "effectivePeriod": {
        "start": "2010-05-10T10:00:00+02:00"
      },
      "valueQuantity": {
        "value": 68,
        "unit": "mm[Hg]",
        "system": "http://unitsofmeasure.org",
        "code": "mm[Hg]"
      }
    }
  }, {
    "resource": {
      "resourceType": "Observation",
      "id": "3a2a86e4-aa3d-4fcc-8e06-958a71d9ab66",
      "identifier": [ {
        "use": "official",
        "value": "c6f88321-67ad-11db-bd13-0800200c9a66"
      } ],
      "status": "final",
      "category": [ {
        "coding": [ {
          "system": "http://terminology.hl7.org/CodeSystem/observation-category",
          "code": "vital-signs",
          "display": "Vital Signs"
        } ]
      } ],
      "code": {
        "coding": [ {
          "system": "http://loinc.org",
          "code": "8462-4",
          "display": "BP Diastolic"
        } ]
      },
      "subject": {
        "reference": "Patient/f0f79010-3435-4efc-b477-7a7ea8c5b3f4",
        "display": "Olga Fletcher"
      },
      "effectivePeriod": {
        "start": "2010-10-10T10:00:00+02:00"
      },
      "valueQuantity": {
        "value": 66,
        "unit": "mm[Hg]",
        "system": "http://unitsofmeasure.org",
        "code": "mm[Hg]"
      }
    }
  }, {
    "resource": {
      "resourceType": "Observation",
      "id": "5a0f795f-e302-49c7-8608-891afa3b1b91",
      "identifier": [ {
        "use": "official",
        "value": "c6f88321-67ad-11db-bd13-0800200c9a66"
      } ],
      "status": "final",
      "category": [ {
        "coding": [ {
          "system": "http://terminology.hl7.org/CodeSystem/observation-category",
          "code": "vital-signs",
          "display": "Vital Signs"
        } ]
      } ],
      "code": {
        "coding": [ {
          "system": "http://loinc.org",
          "code": "8480-6",
          "display": "BP Systolic"
        } ]
      },
      "subject": {
        "reference": "Patient/f0f79010-3435-4efc-b477-7a7ea8c5b3f4",
        "display": "Olga Fletcher"
      },
      "effectivePeriod": {
        "start": "2010-10-10T10:00:00+02:00"
      },
      "valueQuantity": {
        "value": 112,
        "unit": "mm[Hg]",
        "system": "http://unitsofmeasure.org",
        "code": "mm[Hg]"
      }
    }
  }, {
    "resource": {
      "resourceType": "Observation",
      "id": "6e090995-8767-4ea7-b65f-2c0f5943fcc9",
      "identifier": [ {
        "use": "official",
        "value": "c6f88321-67ad-11db-bd13-0800200c9a66"
      } ],
      "status": "final",
      "category": [ {
        "coding": [ {
          "system": "http://terminology.hl7.org/CodeSystem/observation-category",
          "code": "vital-signs",
          "display": "Vital Signs"
        } ]
      } ],
      "code": {
        "coding": [ {
          "system": "http://loinc.org",
          "code": "8480-6",
          "display": "BP Systolic"
        } ]
      },
      "subject": {
        "reference": "Patient/f0f79010-3435-4efc-b477-7a7ea8c5b3f4",
        "display": "Olga Fletcher"
      },
      "effectivePeriod": {
        "start": "2010-07-10T10:00:00+02:00"
      },
      "valueQuantity": {
        "value": 114,
        "unit": "mm[Hg]",
        "system": "http://unitsofmeasure.org",
        "code": "mm[Hg]"
      }
    }
  }, {
    "resource": {
      "resourceType": "Observation",
      "id": "36837426-9001-4c3f-a18b-79cbed9a7de4",
      "identifier": [ {
        "use": "official",
        "value": "c6f88321-67ad-11db-bd13-0800200c9a66"
      } ],
      "status": "final",
      "category": [ {
        "coding": [ {
          "system": "http://terminology.hl7.org/CodeSystem/observation-category",
          "code": "vital-signs",
          "display": "Vital Signs"
        } ]
      } ],
      "code": {
        "coding": [ {
          "system": "http://loinc.org",
          "code": "8462-4",
          "display": "BP Diastolic"
        } ]
      },
      "subject": {
        "reference": "Patient/f0f79010-3435-4efc-b477-7a7ea8c5b3f4",
        "display": "Olga Fletcher"
      },
      "effectivePeriod": {
        "start": "2010-07-10T10:00:00+02:00"
      },
      "valueQuantity": {
        "value": 66,
        "unit": "mm[Hg]",
        "system": "http://unitsofmeasure.org",
        "code": "mm[Hg]"
      }
    }
  }, {
    "resource": {
      "resourceType": "Encounter",
      "id": "912fe20d-48e8-4bde-9702-d7ee89ada71a",
      "identifier": [ {
        "use": "official",
        "value": "2a620155-9d11-439e-92b3-5d9815ff4de8"
      } ],
      "status": "finished",
      "type": [ {
        "coding": [ {
          "system": "http://snomed.info/sct",
          "code": "424619006",
          "display": "Prenatal visit"
        }, {
          "system": "urn:oid:2.16.840.1.113883.6.90",
          "code": "Z34.9",
          "display": "Encounter for supervision of normal pregnancy, unspecified"
        }, {
          "system": "urn:oid:2.16.840.1.113883.6.103",
          "code": "V22.2",
          "display": "Pregnant state, incidental"
        } ]
      } ],
      "subject": {
        "reference": "Patient/f0f79010-3435-4efc-b477-7a7ea8c5b3f4",
        "display": "Olga Fletcher"
      },
      "period": {
        "start": "2010-11-01T10:00:00+01:00"
      }
    }
  }, {
    "resource": {
      "resourceType": "Encounter",
      "id": "6f5b7459-739a-4dae-8d52-7d04197e84de",
      "identifier": [ {
        "use": "official",
        "value": "2a620155-9d11-439e-92b3-5d9815ff4de8"
      } ],
      "status": "finished",
      "type": [ {
        "coding": [ {
          "system": "http://www.ama-assn.org/go/cpt",
          "code": "98940",
          "display": "Chiropractic manipulation"
        } ]
      } ],
      "subject": {
        "reference": "Patient/f0f79010-3435-4efc-b477-7a7ea8c5b3f4",
        "display": "Olga Fletcher"
      },
      "period": {
        "start": "2010-03-31T10:00:00+02:00"
      },
      "reasonCode": [ {
        "coding": [ {
          "system": "http://snomed.info/sct",
          "code": "195979001",
          "display": "Asthma"
        } ]
      }, {
        "coding": [ {
          "system": "http://snomed.info/sct",
          "code": "373899003",
          "display": "Asthma Daytime Symptoms"
        } ]
      }, {
        "coding": [ {
          "system": "http://snomed.info/sct",
          "code": "370205009",
          "display": "Asthma Nighttime Symptoms Quantified"
        } ]
      }, {
        "coding": [ {
          "system": "http://snomed.info/sct",
          "code": "59621000",
          "display": "Hypertension"
        } ]
      } ],
      "reasonReference": [ {
        "reference": "Condition/143b09ab-a2d6-4a7d-abe7-06399d38d0ba",
        "display": "Asthma"
      }, {
        "reference": "Condition/024d97b2-9cd4-4a18-a75e-898111690819",
        "display": "Asthma Nighttime Symptoms Quantified"
      }, {
        "reference": "Condition/d53bb201-6801-41ae-ae45-b2fb3bdd7818",
        "display": "Hypertension"
      }, {
        "reference": "Condition/54c94c34-1450-4d6b-b5c9-8ca7ea9805dd",
        "display": "Asthma Daytime Symptoms"
      } ]
    }
  }, {
    "resource": {
      "resourceType": "Condition",
      "id": "143b09ab-a2d6-4a7d-abe7-06399d38d0ba",
      "identifier": [ {
        "use": "official",
        "system": "urn:uuid:db734647-fc99-424c-a864-7e3cda82e703",
        "value": "45665"
      } ],
      "clinicalStatus": {
        "coding": [ {
          "system": "http://terminology.hl7.org/CodeSystem/condition-clinical",
          "code": "active",
          "display": "Active"
        } ]
      },
      "category": [ {
        "coding": [ {
          "system": "http://hl7.org/fhir/condition-category",
          "code": "encounter-diagnosis",
          "display": "Encounter Diagnosis"
        } ]
      } ],
      "code": {
        "coding": [ {
          "system": "http://snomed.info/sct",
          "code": "195979001",
          "display": "Asthma"
        }, {
          "system": "urn:oid:2.16.840.1.113883.6.90",
          "code": "J45",
          "display": "Asthma"
        }, {
          "system": "urn:oid:2.16.840.1.113883.6.103",
          "code": "493.92",
          "display": "Asthma, unspecified type, with (acute) exacerbation"
        } ]
      },
      "subject": {
        "reference": "Patient/f0f79010-3435-4efc-b477-7a7ea8c5b3f4",
        "display": "Olga Fletcher"
      },
      "onsetDateTime": "2010-03-31T10:00:00+02:00"
    }
  }, {
    "resource": {
      "resourceType": "Condition",
      "id": "024d97b2-9cd4-4a18-a75e-898111690819",
      "identifier": [ {
        "use": "official",
        "system": "urn:uuid:db734647-fc99-424c-a864-7e3cda82e703",
        "value": "45665"
      } ],
      "clinicalStatus": {
        "coding": [ {
          "system": "http://terminology.hl7.org/CodeSystem/condition-clinical",
          "code": "active",
          "display": "Active"
        } ]
      },
      "category": [ {
        "coding": [ {
          "system": "http://hl7.org/fhir/condition-category",
          "code": "encounter-diagnosis",
          "display": "Encounter Diagnosis"
        } ]
      } ],
      "code": {
        "coding": [ {
          "system": "http://snomed.info/sct",
          "code": "370205009",
          "display": "Asthma Nighttime Symptoms Quantified"
        } ]
      },
      "subject": {
        "reference": "Patient/f0f79010-3435-4efc-b477-7a7ea8c5b3f4",
        "display": "Olga Fletcher"
      },
      "onsetDateTime": "2010-03-31T10:00:00+02:00"
    }
  }, {
    "resource": {
      "resourceType": "Condition",
      "id": "d53bb201-6801-41ae-ae45-b2fb3bdd7818",
      "identifier": [ {
        "use": "official",
        "system": "urn:uuid:db734647-fc99-424c-a864-7e3cda82e703",
        "value": "45665"
      } ],
      "clinicalStatus": {
        "coding": [ {
          "system": "http://terminology.hl7.org/CodeSystem/condition-clinical",
          "code": "active",
          "display": "Active"
        } ]
      },
      "category": [ {
        "coding": [ {
          "system": "http://hl7.org/fhir/condition-category",
          "code": "encounter-diagnosis",
          "display": "Encounter Diagnosis"
        } ]
      } ],
      "code": {
        "coding": [ {
          "system": "http://snomed.info/sct",
          "code": "59621000",
          "display": "Hypertension"
        }, {
          "system": "urn:oid:2.16.840.1.113883.6.90",
          "code": "I10",
          "display": "Essential (primary) hypertension"
        }, {
          "system": "urn:oid:2.16.840.1.113883.6.103",
          "code": "401.9",
          "display": "Unspecified essential hypertension"
        } ]
      },
      "subject": {
        "reference": "Patient/f0f79010-3435-4efc-b477-7a7ea8c5b3f4",
        "display": "Olga Fletcher"
      },
      "onsetDateTime": "2010-03-31T10:00:00+02:00"
    }
  }, {
    "resource": {
      "resourceType": "Condition",
      "id": "54c94c34-1450-4d6b-b5c9-8ca7ea9805dd",
      "identifier": [ {
        "use": "official",
        "system": "urn:uuid:db734647-fc99-424c-a864-7e3cda82e703",
        "value": "45665"
      } ],
      "clinicalStatus": {
        "coding": [ {
          "system": "http://terminology.hl7.org/CodeSystem/condition-clinical",
          "code": "active",
          "display": "Active"
        } ]
      },
      "category": [ {
        "coding": [ {
          "system": "http://hl7.org/fhir/condition-category",
          "code": "encounter-diagnosis",
          "display": "Encounter Diagnosis"
        } ]
      } ],
      "code": {
        "coding": [ {
          "system": "http://snomed.info/sct",
          "code": "373899003",
          "display": "Asthma Daytime Symptoms"
        } ]
      },
      "subject": {
        "reference": "Patient/f0f79010-3435-4efc-b477-7a7ea8c5b3f4",
        "display": "Olga Fletcher"
      },
      "onsetDateTime": "2010-03-31T10:00:00+02:00"
    }
  }, {
    "resource": {
      "resourceType": "Encounter",
      "id": "3169cdfb-78b3-42ab-a2d8-60927a75c42c",
      "identifier": [ {
        "use": "official",
        "value": "2a620155-9d11-439e-92b3-5d9815ff4de8"
      } ],
      "status": "finished",
      "type": [ {
        "coding": [ {
          "system": "http://snomed.info/sct",
          "code": "424619006",
          "display": "Prenatal visit"
        }, {
          "system": "urn:oid:2.16.840.1.113883.6.90",
          "code": "Z34.9",
          "display": "Encounter for supervision of normal pregnancy, unspecified"
        }, {
          "system": "urn:oid:2.16.840.1.113883.6.103",
          "code": "V22.2",
          "display": "Pregnant state, incidental"
        } ]
      } ],
      "subject": {
        "reference": "Patient/f0f79010-3435-4efc-b477-7a7ea8c5b3f4",
        "display": "Olga Fletcher"
      },
      "period": {
        "start": "2010-11-15T10:00:00+01:00"
      }
    }
  }, {
    "resource": {
      "resourceType": "Encounter",
      "id": "873826f8-8656-4d46-a59d-cb1fb1a91c39",
      "identifier": [ {
        "use": "official",
        "value": "2a620155-9d11-439e-92b3-5d9815ff4de8"
      } ],
      "status": "finished",
      "type": [ {
        "coding": [ {
          "system": "http://snomed.info/sct",
          "code": "424619006",
          "display": "Prenatal visit"
        }, {
          "system": "urn:oid:2.16.840.1.113883.6.90",
          "code": "Z34.9",
          "display": "Encounter for supervision of normal pregnancy, unspecified"
        }, {
          "system": "urn:oid:2.16.840.1.113883.6.103",
          "code": "V22.2",
          "display": "Pregnant state, incidental"
        } ]
      } ],
      "subject": {
        "reference": "Patient/f0f79010-3435-4efc-b477-7a7ea8c5b3f4",
        "display": "Olga Fletcher"
      },
      "period": {
        "start": "2010-11-30T10:00:00+01:00"
      },
      "reasonCode": [ {
        "coding": [ {
          "system": "http://snomed.info/sct",
          "code": "199305006",
          "display": "Pregnancy-related diagnosis"
        } ]
      } ],
      "reasonReference": [ {
        "reference": "Condition/54c94c34-1450-4d6b-b5c9-8ca7ea9805dd",
        "display": "Asthma Daytime Symptoms"
      } ]
    }
  }, {
    "resource": {
      "resourceType": "Encounter",
      "id": "1d935909-b5e8-4863-8848-5cfb6817cefe",
      "identifier": [ {
        "use": "official",
        "value": "2a620155-9d11-439e-92b3-5d9815ff4de8"
      } ],
      "status": "finished",
      "type": [ {
        "coding": [ {
          "system": "http://www.ama-assn.org/go/cpt",
          "code": "99241",
          "display": "Office consultation"
        } ]
      } ],
      "subject": {
        "reference": "Patient/f0f79010-3435-4efc-b477-7a7ea8c5b3f4",
        "display": "Olga Fletcher"
      },
      "period": {
        "start": "2010-11-10T10:00:00+01:00"
      }
    }
  }, {
    "resource": {
      "resourceType": "Encounter",
      "id": "538dc40c-16cb-4125-bfcb-388475b787f3",
      "identifier": [ {
        "use": "official",
        "value": "2a620155-9d11-439e-92b3-5d9815ff4de8"
      } ],
      "status": "finished",
      "type": [ {
        "coding": [ {
          "system": "http://snomed.info/sct",
          "code": "424619006",
          "display": "Prenatal visit"
        }, {
          "system": "urn:oid:2.16.840.1.113883.6.90",
          "code": "Z34.9",
          "display": "Encounter for supervision of normal pregnancy, unspecified"
        }, {
          "system": "urn:oid:2.16.840.1.113883.6.103",
          "code": "V22.2",
          "display": "Pregnant state, incidental"
        } ]
      } ],
      "subject": {
        "reference": "Patient/f0f79010-3435-4efc-b477-7a7ea8c5b3f4",
        "display": "Olga Fletcher"
      },
      "period": {
        "start": "2010-07-10T10:00:00+02:00"
      }
    }
  }, {
    "resource": {
      "resourceType": "Encounter",
      "id": "9ab289b8-8d4c-4883-8438-4e56b915f829",
      "identifier": [ {
        "use": "official",
        "value": "2a620155-9d11-439e-92b3-5d9815ff4de8"
      } ],
      "status": "finished",
      "type": [ {
        "coding": [ {
          "system": "http://snomed.info/sct",
          "code": "424619006",
          "display": "Prenatal visit"
        }, {
          "system": "urn:oid:2.16.840.1.113883.6.90",
          "code": "Z34.9",
          "display": "Encounter for supervision of normal pregnancy, unspecified"
        }, {
          "system": "urn:oid:2.16.840.1.113883.6.103",
          "code": "V22.2",
          "display": "Pregnant state, incidental"
        } ]
      } ],
      "subject": {
        "reference": "Patient/f0f79010-3435-4efc-b477-7a7ea8c5b3f4",
        "display": "Olga Fletcher"
      },
      "period": {
        "start": "2010-05-10T10:00:00+02:00"
      }
    }
  }, {
    "resource": {
      "resourceType": "Encounter",
      "id": "a8f4b8b3-8cb8-45a7-923f-0b4cf7708e55",
      "identifier": [ {
        "use": "official",
        "value": "2a620155-9d11-439e-92b3-5d9815ff4de8"
      } ],
      "status": "finished",
      "type": [ {
        "coding": [ {
          "system": "http://snomed.info/sct",
          "code": "424619006",
          "display": "Prenatal visit"
        }, {
          "system": "urn:oid:2.16.840.1.113883.6.90",
          "code": "Z34.9",
          "display": "Encounter for supervision of normal pregnancy, unspecified"
        }, {
          "system": "urn:oid:2.16.840.1.113883.6.103",
          "code": "V22.2",
          "display": "Pregnant state, incidental"
        } ]
      } ],
      "subject": {
        "reference": "Patient/f0f79010-3435-4efc-b477-7a7ea8c5b3f4",
        "display": "Olga Fletcher"
      },
      "period": {
        "start": "2010-10-10T10:00:00+02:00"
      }
    }
  }, {
    "resource": {
      "resourceType": "Encounter",
      "id": "04842288-8702-4499-8623-967ab7ff957d",
      "identifier": [ {
        "use": "official",
        "value": "2a620155-9d11-439e-92b3-5d9815ff4de8"
      } ],
      "status": "finished",
      "type": [ {
        "coding": [ {
          "system": "http://snomed.info/sct",
          "code": "424619006",
          "display": "Prenatal visit"
        }, {
          "system": "urn:oid:2.16.840.1.113883.6.90",
          "code": "Z34.9",
          "display": "Encounter for supervision of normal pregnancy, unspecified"
        }, {
          "system": "urn:oid:2.16.840.1.113883.6.103",
          "code": "V22.2",
          "display": "Pregnant state, incidental"
        } ]
      } ],
      "subject": {
        "reference": "Patient/f0f79010-3435-4efc-b477-7a7ea8c5b3f4",
        "display": "Olga Fletcher"
      },
      "period": {
        "start": "2010-09-10T10:00:00+02:00"
      }
    }
  }, {
    "resource": {
      "resourceType": "Encounter",
      "id": "17734e38-adcd-4ced-acde-a4d8f18665b1",
      "identifier": [ {
        "use": "official",
        "value": "2a620155-9d11-439e-92b3-5d9815ff4de8"
      } ],
      "status": "finished",
      "type": [ {
        "coding": [ {
          "system": "http://www.ama-assn.org/go/cpt",
          "code": "99241",
          "display": "Office consultation"
        } ]
      } ],
      "subject": {
        "reference": "Patient/f0f79010-3435-4efc-b477-7a7ea8c5b3f4",
        "display": "Olga Fletcher"
      },
      "period": {
        "start": "2010-04-01T10:00:00+02:00"
      }
    }
  }, {
    "resource": {
      "resourceType": "MedicationStatement",
      "id": "cda99552-55f0-4ef9-bac5-4dbf9d1ba702",
      "extension": [ {
        "url": "http://hl7.org/fhir/3.0/StructureDefinition/extension-MedicationStatement.status",
        "valueCode": "UNKNOWN"
      } ],
      "identifier": [ {
        "use": "official",
        "value": "cdbd33f0-6cde-11db-9fe1-0800200c9a66"
      } ],
      "status": "completed",
      "medicationReference": {
        "reference": "Medication/ac0140a3-4996-425d-bf0e-2f7a8824e2f5",
        "display": "salmeterol 0.05 MG/ACTUAT Inhalant Powder"
      },
      "subject": {
        "reference": "Patient/f0f79010-3435-4efc-b477-7a7ea8c5b3f4",
        "display": "Olga Fletcher"
      },
      "effectivePeriod": {
        "start": "2010-03-31T10:00:00+02:00"
      }
    }
  }, {
    "resource": {
      "resourceType": "Medication",
      "id": "ac0140a3-4996-425d-bf0e-2f7a8824e2f5",
      "code": {
        "coding": [ {
          "system": "http://www.nlm.nih.gov/research/umls/rxnorm",
          "code": "318142",
          "display": "salmeterol 0.05 MG/ACTUAT Inhalant Powder"
        } ]
      }
    }
  }, {
    "resource": {
      "resourceType": "MedicationStatement",
      "id": "3e0cdce1-3eb5-4728-9a22-a715a928dee7",
      "extension": [ {
        "url": "http://hl7.org/fhir/3.0/StructureDefinition/extension-MedicationStatement.status",
        "valueCode": "UNKNOWN"
      } ],
      "identifier": [ {
        "use": "official",
        "value": "cdbd33f0-6cde-11db-9fe1-0800200c9a66"
      } ],
      "status": "completed",
      "medicationReference": {
        "reference": "Medication/9a735891-28fa-4de6-8826-5c1407334c40",
        "display": "Albuterol 0.83 MG/ML Inhalant Solution"
      },
      "subject": {
        "reference": "Patient/f0f79010-3435-4efc-b477-7a7ea8c5b3f4",
        "display": "Olga Fletcher"
      },
      "effectivePeriod": {
        "start": "2010-03-31T10:00:00+02:00"
      }
    }
  }, {
    "resource": {
      "resourceType": "Medication",
      "id": "9a735891-28fa-4de6-8826-5c1407334c40",
      "code": {
        "coding": [ {
          "system": "http://www.nlm.nih.gov/research/umls/rxnorm",
          "code": "630208",
          "display": "Albuterol 0.83 MG/ML Inhalant Solution"
        } ]
      }
    }
  }, {
    "resource": {
      "resourceType": "MedicationStatement",
      "id": "c0142b2c-3f11-4c40-bd47-f13d17cc2eb6",
      "extension": [ {
        "url": "http://hl7.org/fhir/3.0/StructureDefinition/extension-MedicationStatement.status",
        "valueCode": "UNKNOWN"
      } ],
      "identifier": [ {
        "use": "official",
        "value": "cdbd33f0-6cde-11db-9fe1-0800200c9a66"
      } ],
      "status": "completed",
      "medicationReference": {
        "reference": "Medication/a5f3f232-5aff-41f0-88be-ebc48ebeed98",
        "display": "Enalapril Maleate 10 MG / Hydrochlorothiazide 25 MG Oral Tablet"
      },
      "subject": {
        "reference": "Patient/f0f79010-3435-4efc-b477-7a7ea8c5b3f4",
        "display": "Olga Fletcher"
      },
      "effectivePeriod": {
        "start": "2010-03-31T10:00:00+02:00"
      }
    }
  }, {
    "resource": {
      "resourceType": "Medication",
      "id": "a5f3f232-5aff-41f0-88be-ebc48ebeed98",
      "code": {
        "coding": [ {
          "system": "http://www.nlm.nih.gov/research/umls/rxnorm",
          "code": "858828",
          "display": "Enalapril Maleate 10 MG / Hydrochlorothiazide 25 MG Oral Tablet"
        } ]
      }
    }
  }, {
    "resource": {
      "resourceType": "AllergyIntolerance",
      "id": "9327aa56-10e7-46ac-9f6c-6c9af5efcfb4",
      "identifier": [ {
        "use": "official",
        "value": "36e3e930-7b14-11db-9fe1-0800200c9a66"
      } ],
      "clinicalStatus": {
        "coding": [ {
          "system": "http://terminology.hl7.org/CodeSystem/allergyintolerance-clinical",
          "code": "active",
          "display": "Active"
        } ]
      },
      "verificationStatus": {
        "coding": [ {
          "system": "http://terminology.hl7.org/CodeSystem/allergyintolerance-verification",
          "code": "confirmed",
          "display": "Confirmed"
        } ]
      },
      "type": "allergy",
      "category": [ "food" ],
      "code": {
        "coding": [ {
          "system": "http://fdasis.nlm.nih.gov",
          "code": "291P45F896",
          "display": "Eggs"
        }, {
          "system": "urn:oid:2.16.840.1.113883.6.103",
          "code": "V15.03",
          "display": "Allergy to eggs"
        } ],
        "text": "Allergy to Eggs + Eggs"
      },
      "patient": {
        "reference": "Patient/f0f79010-3435-4efc-b477-7a7ea8c5b3f4",
        "display": "Olga Fletcher"
      },
      "recordedDate": "2010-03-31T10:00:00+02:00"
    }
  }, {
    "resource": {
      "resourceType": "AllergyIntolerance",
      "id": "bd26fd18-e049-4b10-8358-f2356471a84e",
      "identifier": [ {
        "use": "official",
        "value": "36e3e930-7b14-11db-9fe1-0800200c9a66"
      } ],
      "clinicalStatus": {
        "coding": [ {
          "system": "http://terminology.hl7.org/CodeSystem/allergyintolerance-clinical",
          "code": "active",
          "display": "Active"
        } ]
      },
      "verificationStatus": {
        "coding": [ {
          "system": "http://terminology.hl7.org/CodeSystem/allergyintolerance-verification",
          "code": "confirmed",
          "display": "Confirmed"
        } ]
      },
      "type": "allergy",
      "category": [ "medication" ],
      "code": {
        "coding": [ {
          "system": "http://www.nlm.nih.gov/research/umls/rxnorm",
          "code": "866041",
          "display": "Neomycin Sulfate 500 MG"
        } ],
        "text": "Neomycin + Neomycin Sulfate 500 MG"
      },
      "patient": {
        "reference": "Patient/f0f79010-3435-4efc-b477-7a7ea8c5b3f4",
        "display": "Olga Fletcher"
      },
      "recordedDate": "2010-03-31T10:00:00+02:00"
    }
  }, {
    "resource": {
      "resourceType": "AllergyIntolerance",
      "id": "ad36f951-5028-45c4-855f-c1b76da6dea7",
      "identifier": [ {
        "use": "official",
        "value": "36e3e930-7b14-11db-9fe1-0800200c9a66"
      } ],
      "clinicalStatus": {
        "coding": [ {
          "system": "http://terminology.hl7.org/CodeSystem/allergyintolerance-clinical",
          "code": "active",
          "display": "Active"
        } ]
      },
      "verificationStatus": {
        "coding": [ {
          "system": "http://terminology.hl7.org/CodeSystem/allergyintolerance-verification",
          "code": "confirmed",
          "display": "Confirmed"
        } ]
      },
      "type": "allergy",
      "category": [ "medication" ],
      "code": {
        "coding": [ {
          "system": "http://www.nlm.nih.gov/research/umls/rxnorm",
          "code": "406524",
          "display": "Doxycycline 75 MG Enteric Coated Tablet"
        }, {
          "system": "urn:oid:2.16.840.1.113883.3.26.1.5",
          "code": "N0000006275",
          "display": "Tetracycline"
        } ],
        "text": "Tetracyclines + Doxycycline 75 MG Enteric Coated Tablet"
      },
      "patient": {
        "reference": "Patient/f0f79010-3435-4efc-b477-7a7ea8c5b3f4",
        "display": "Olga Fletcher"
      },
      "recordedDate": "2010-03-31T10:00:00+02:00"
    }
  }, {
    "resource": {
      "resourceType": "Condition",
      "id": "6c7c1487-8c95-44ae-a848-cdeb8f6a1b9e",
      "identifier": [ {
        "use": "official",
        "value": "9d3d416d-45ab-4da1-912f-4583e0632000"
      } ],
      "clinicalStatus": {
        "coding": [ {
          "system": "http://terminology.hl7.org/CodeSystem/condition-clinical",
          "code": "active",
          "display": "Active"
        } ]
      },
      "verificationStatus": {
        "coding": [ {
          "system": "http://terminology.hl7.org/CodeSystem/condition-ver-status",
          "code": "confirmed",
          "display": "Confirmed"
        } ]
      },
      "category": [ {
        "coding": [ {
          "system": "http://terminology.hl7.org/CodeSystem/condition-category",
          "code": "problem-list-item",
          "display": "Problem List Item"
        } ]
      } ],
      "code": {
        "coding": [ {
          "system": "http://snomed.info/sct",
          "code": "195979001",
          "display": "Asthma unspecified"
        }, {
          "system": "urn:oid:2.16.840.1.113883.6.90",
          "code": "J45",
          "display": "Asthma"
        }, {
          "system": "urn:oid:2.16.840.1.113883.6.103",
          "code": "493.92",
          "display": "Asthma, unspecified type, with (acute) exacerbation"
        } ]
      },
      "subject": {
        "reference": "Patient/f0f79010-3435-4efc-b477-7a7ea8c5b3f4",
        "display": "Olga Fletcher"
      },
      "onsetDateTime": "2010-03-31T10:00:00+02:00"
    }
  } ]
}