{
  "resourceType": "Bundle",
  "entry": [ {
    "resource": {
      "resourceType": "Composition",
      "id": "4dfe1a1f-9802-4975-bded-7abdd7fa1cf3",
      "identifier": {
        "use": "official",
        "value": "db734647-fc99-424c-a864-7e3cda82e703"
      },
      "status": "preliminary",
      "type": {
        "coding": [ {
          "system": "http://loinc.org",
          "code": "34133-9",
          "display": "Summarization of Episode Note"
        } ]
      },
      "category": [ {
        "coding": [ {
          "system": "http://hl7.org/fhir/ValueSet/doc-classcodes",
          "code": "LP173421-7",
          "display": "Note"
        } ]
      } ],
      "subject": {
        "reference": "Patient/2aa52dee-f84e-4c13-a066-b94de2773377",
        "display": "Georgia Wright"
      },
      "date": "2014-04-16T11:55:22+02:00",
      "author": [ {
        "reference": "Practitioner/876bbe27-15b6-46f2-83e0-ccbf41478c55",
        "display": "Henry Seven MD"
      } ],
      "title": "Community Health and Hospitals: Health Summary",
      "confidentiality": "N",
      "attester": [ {
        "mode": "legal",
        "time": "2013-04-18T09:00:00+05:00",
        "party": {
          "reference": "Practitioner/3ce4fcb4-95a1-47ad-98ae-7d13a04d6939",
          "display": "Henry Seven"
        }
      }, {
        "mode": "professional",
        "time": "2014-04-16T11:55:22+02:00",
        "party": {
          "reference": "Practitioner/3ce4fcb4-95a1-47ad-98ae-7d13a04d6939",
          "display": "Henry Seven"
        }
      } ],
      "custodian": {
        "reference": "Organization/270386bc-26bc-49f9-a2b0-c67059bcbe4e",
        "display": "Community Health and Hospitals"
      },
      "event": [ {
        "period": {
          "start": "2010-06-05T10:00:00+02:00",
          "end": "2011-07-22T10:00:00+02:00"
        },
        "detail": [ {
          "reference": "Practitioner/398cc160-bbde-4699-a1c7-d022987cb82f",
          "display": "Henry Seven MD"
        } ]
      } ],
      "section": [ {
        "title": "Encounters",
        "code": {
          "coding": [ {
            "system": "http://loinc.org",
            "code": "46240-8",
            "display": "History of encounters"
          } ]
        },
        "text": {
          "status": "additional",
          "div": "<div xmlns=\"http://www.w3.org/1999/xhtml\"><table><thead><tr><th>Group Description</th><th>Code System</th><th>Code</th><th>Code Description</th><th>Date and Time</th><th>Status</th></tr></thead><tbody><tr><td>Encounter Outpatient</td><td>CPT</td><td>99213</td><td><span/>Office/outpatient visit, est</td><td>06-05-2010 10:00:00</td><td>Performed</td></tr><tr><td/><td>ICD-9-CM</td><td>V70.0</td><td>Routine general medical examination at a health care facility</td><td/><td/></tr><tr><td>Encounter Office Visit</td><td>CPT</td><td>99212</td><td><span/>Office/outpatient visit, est</td><td>06-22-2010 10:00:00</td><td>Performed</td></tr><tr><td>Encounter Outpatient</td><td>CPT</td><td>99213</td><td><span/>Office/outpatient visit, est</td><td>07-15-2010 10:00:00</td><td>Performed</td></tr><tr><td/><td>ICD-9-CM</td><td>V70.0</td><td>Routine general medical examination at a health care facility</td><td/><td/></tr><tr><td>Encounter Outpatient</td><td>CPT</td><td>99213</td><td><span/>Office/outpatient visit, est</td><td>07-27-2010 10:00:00</td><td>Performed</td></tr><tr><td/><td>ICD-9-CM</td><td>V70.0</td><td>Routine general medical examination at a health care facility</td><td/><td/></tr><tr><td>Encounter Office Visit</td><td>CPT</td><td>99212</td><td><span/>Office/outpatient visit, est</td><td>09-15-2010 10:00:00</td><td>Performed</td></tr><tr><td>Encounter Outpatient</td><td>CPT</td><td>99213</td><td><span/>Office/outpatient visit, est</td><td>11-01-2010 10:00:00</td><td>Performed</td></tr><tr><td/><td>ICD-9-CM</td><td>V70.0</td><td>Routine general medical examination at a health care facility</td><td/><td/></tr></tbody></table></div>"
        },
        "mode": "snapshot",
        "entry": [ {
          "reference": "Encounter/6d688cc5-2a83-4622-8f1d-c9e486049b0d",
          "display": "Office/outpatient visit, est"
        }, {
          "reference": "Encounter/8dff5ff1-5a58-43dc-974a-83215e1bc49e",
          "display": "Office/outpatient visit, est"
        }, {
          "reference": "Encounter/a11db531-2aa1-4925-af8d-fe63e9c54846",
          "display": "Office/outpatient visit, est"
        }, {
          "reference": "Encounter/024b524d-83d8-42d4-b1f4-504aadb756d9",
          "display": "Office/outpatient visit, est"
        }, {
          "reference": "Encounter/1e6bfd91-62f4-4cf1-a5d3-328e1fc6d6e3",
          "display": "Office/outpatient visit, est"
        }, {
          "reference": "Encounter/e5ca20a2-cd7d-4b1c-8d44-29609e5bc685",
          "display": "Office/outpatient visit, est"
        } ]
      }, {
        "title": "Procedures",
        "code": {
          "coding": [ {
            "system": "http://loinc.org",
            "code": "47519-4",
            "display": "HISTORY OF PROCEDURES"
          } ]
        },
        "text": {
          "status": "additional",
          "div": "<div xmlns=\"http://www.w3.org/1999/xhtml\"><table><thead><tr><th>Group Description</th><th>Code System</th><th>Code</th><th>Code Description</th><th>Date and Time</th><th>Status</th></tr></thead><tbody><tr><td>Breast Cancer Screening</td><td>CPT</td><td>77057</td><td><span/>Mammogram, screening</td><td>07-01-2010 10:00:00</td><td>Performed</td></tr><tr><td/><td>HCPCS</td><td>G0202</td><td>Screeningmammographydigital</td><td/><td/></tr><tr><td/><td>ICD-10-CM</td><td>Z12.31</td><td>Encounter for screening mammogram for malignant neoplasm of breast</td><td/><td/></tr><tr><td/><td>ICD-9-CM</td><td>V76.12</td><td>Other screening mammogram</td><td/><td/></tr><tr><td/><td>SNOMED-CT</td><td>24623002</td><td>Screening mammography</td><td/><td/></tr></tbody></table></div>"
        },
        "mode": "snapshot"
      }, {
        "title": "Problems",
        "code": {
          "coding": [ {
            "system": "http://loinc.org",
            "code": "11450-4",
            "display": "PROBLEM LIST"
          } ]
        },
        "text": {
          "status": "additional",
          "div": "<div xmlns=\"http://www.w3.org/1999/xhtml\"><table><thead><tr><th>Group Description</th><th>Code System</th><th>Code</th><th>Code Description</th><th>Date and Time</th><th>Status</th></tr></thead><tbody><tr><td>Breast Cancer ER or PR Positive</td><td>SNOMED-CT</td><td>417742002</td><td><span/>Hormone receptor positive tumor</td><td>07-22-2010 10:00:00</td><td>Active</td></tr><tr><td>Breast Cancer Stage IC-IIIC</td><td>SNOMED-CT</td><td>261653007</td><td><span/>Tumor stage T2c</td><td>07-22-2010 10:00:00</td><td>Active</td></tr><tr><td>Hypotension</td><td>SNOMED-CT</td><td>45007003</td><td><span/>Low blood pressure</td><td>09-15-2010 10:00:00</td><td>Active</td></tr><tr><td/><td>ICD-10-CM</td><td>I95.9</td><td>Hypotension, unspecified</td><td/><td/></tr><tr><td/><td>ICD-9-CM</td><td>458.9</td><td>Hypotension, unspecified</td><td/><td/></tr><tr><td>Breast Cancer</td><td>SNOMED-CT</td><td>188161004</td><td><span/>Malignant neoplasm of female breast NOS</td><td>07-22-2011 10:00:00</td><td>Active</td></tr><tr><td/><td>ICD-10-CM</td><td>C50</td><td>Malignant neoplasm of breast</td><td/><td/></tr><tr><td/><td>ICD-9-CM</td><td>174.9</td><td>Malignant neoplasm of breast (female), unspecified</td><td/><td/></tr></tbody></table></div>"
        },
        "mode": "snapshot",
        "entry": [ {
          "reference": "Condition/7fb9e1fb-6ee3-4b3c-ab55-38c384887160",
          "display": "Tumor stage T2c"
        } ]
      }, {
        "title": "Allergies,  Adverse Reactions & Alerts",
        "code": {
          "coding": [ {
            "system": "http://loinc.org",
            "code": "48765-2",
            "display": "Allergies, adverse reactions, alerts"
          } ]
        },
        "text": {
          "status": "additional",
          "div": "<div xmlns=\"http://www.w3.org/1999/xhtml\"><table><thead><tr><th>Group Description</th><th>Code System</th><th>Code</th><th>Code Description</th><th>Severity</th><th>Susceptibility</th><th>Date and Time</th><th>Status</th></tr></thead><tbody><tr><td>Allergy to Eggs</td><td>UNII</td><td>291P45F896</td><td><span/>Eggs</td><td><span/>Severe</td><td>Very susceptible</td><td>06-05-2010 10:00:00</td><td>Active</td></tr><tr><td/><td>ICD-9-CM</td><td>V15.03</td><td>Allergy to eggs</td><td/><td/><td/><td/></tr><tr><td>Bakers Yeast</td><td>RxNorm</td><td>892677</td><td><span/>Baker's yeast allergenic extract 100 MG/ML Injectable Solution</td><td><span/>Severe</td><td>Moderately Susceptible</td><td>06-05-2010 10:00:00</td><td>Active</td></tr><tr><td>Codeine</td><td>NDF-RT</td><td>N0000006691</td><td><span/>Codeine</td><td><span/>Moderate to severe</td><td>Moderately Susceptible</td><td>06-05-2010 10:00:00</td><td>Active</td></tr></tbody></table></div>"
        },
        "mode": "snapshot",
        "entry": [ {
          "reference": "AllergyIntolerance/813ad1a9-4b13-4c58-b466-a0fb0422c4b0",
          "display": "Bakers Yeast + Baker's yeast allergenic extract 100 MG/ML Injectable Solution"
        }, {
          "reference": "AllergyIntolerance/608cc25e-fff7-4028-a868-cd1e15b04bbf",
          "display": "Allergy to Eggs + Eggs"
        }, {
          "reference": "AllergyIntolerance/2afe2cd5-677e-4a01-a2ef-90d15e91e868",
          "display": "Codeine + Codeine"
        } ]
      }, {
        "title": "Vital Signs",
        "code": {
          "coding": [ {
            "system": "http://loinc.org",
            "code": "8716-3",
            "display": "Vital Signs"
          } ]
        },
        "text": {
          "status": "additional",
          "div": "<div xmlns=\"http://www.w3.org/1999/xhtml\"><table><thead><tr><th>Group Description</th><th>Code System</th><th>Code</th><th>Code Description</th><th>Value</th><th>Unit</th><th>Date and Time</th><th>Status</th></tr></thead><tbody><tr><td>BMI</td><td>LOINC</td><td>39156-5</td><td><span/>BMI</td><td>25</td><td>kg/m2</td><td>06-05-2010 10:00:00</td><td>Finding</td></tr><tr><td>BMI</td><td>LOINC</td><td>39156-5</td><td><span/>BMI</td><td>25</td><td>kg/m2</td><td>06-22-2010 10:00:00</td><td>Finding</td></tr><tr><td>Diastolic Blood Pressure</td><td>LOINC</td><td>8462-4</td><td><span/>BP Diastolic</td><td>64</td><td>mm[Hg]</td><td>06-22-2010 10:00:00</td><td>Finding</td></tr><tr><td>Heart Rate</td><td>LOINC</td><td>8867-4</td><td><span/>Heart Rate</td><td>60</td><td>/min</td><td>06-22-2010 10:00:00</td><td>Finding</td></tr><tr><td>Systolic Blood Pressure</td><td>LOINC</td><td>8480-6</td><td><span/>BP Systolic</td><td>106</td><td>mm[Hg]</td><td>06-22-2010 10:00:00</td><td>Finding</td></tr><tr><td>BMI</td><td>LOINC</td><td>39156-5</td><td><span/>BMI</td><td>24.7</td><td>kg/m2</td><td>07-15-2010 10:00:00</td><td>Finding</td></tr><tr><td>Diastolic Blood Pressure</td><td>LOINC</td><td>8462-4</td><td><span/>BP Diastolic</td><td>66</td><td>mm[Hg]</td><td>07-15-2010 10:00:00</td><td>Finding</td></tr><tr><td>Heart Rate</td><td>LOINC</td><td>8867-4</td><td><span/>Heart Rate</td><td>62</td><td>/min</td><td>07-15-2010 10:00:00</td><td>Finding</td></tr><tr><td>Systolic Blood Pressure</td><td>LOINC</td><td>8480-6</td><td><span/>BP Systolic</td><td>110</td><td>mm[Hg]</td><td>07-15-2010 10:00:00</td><td>Finding</td></tr><tr><td>BMI</td><td>LOINC</td><td>39156-5</td><td><span/>BMI</td><td>25</td><td>kg/m2</td><td>07-27-2010 10:00:00</td><td>Finding</td></tr><tr><td>Diastolic Blood Pressure</td><td>LOINC</td><td>8462-4</td><td><span/>BP Diastolic</td><td>68</td><td>mm[Hg]</td><td>07-27-2010 10:00:00</td><td>Finding</td></tr><tr><td>Heart Rate</td><td>LOINC</td><td>8867-4</td><td><span/>Heart Rate</td><td>64</td><td>/min</td><td>07-27-2010 10:00:00</td><td>Finding</td></tr><tr><td>Systolic Blood Pressure</td><td>LOINC</td><td>8480-6</td><td><span/>BP Systolic</td><td>108</td><td>mm[Hg]</td><td>07-27-2010 10:00:00</td><td>Finding</td></tr><tr><td>Diastolic Blood Pressure</td><td>LOINC</td><td>8462-4</td><td><span/>BP Diastolic</td><td>50</td><td>mm[Hg]</td><td>09-15-2010 10:00:00</td><td>Finding</td></tr><tr><td>Heart Rate</td><td>LOINC</td><td>8867-4</td><td><span/>Heart Rate</td><td>62</td><td>/min</td><td>09-15-2010 10:00:00</td><td>Finding</td></tr><tr><td>Systolic Blood Pressure</td><td>LOINC</td><td>8480-6</td><td><span/>BP Systolic</td><td>90</td><td>mm[Hg]</td><td>09-15-2010 10:00:00</td><td>Finding</td></tr><tr><td>BMI</td><td>LOINC</td><td>39156-5</td><td><span/>BMI</td><td>23.9</td><td>kg/m2</td><td>11-01-2010 10:00:00</td><td>Finding</td></tr><tr><td>Diastolic Blood Pressure</td><td>LOINC</td><td>8462-4</td><td><span/>BP Diastolic</td><td>58</td><td>mm[Hg]</td><td>11-01-2010 10:00:00</td><td>Finding</td></tr><tr><td>Heart Rate</td><td>LOINC</td><td>8867-4</td><td><span/>Heart Rate</td><td>64</td><td>/min</td><td>11-01-2010 10:00:00</td><td>Finding</td></tr><tr><td>Systolic Blood Pressure</td><td>LOINC</td><td>8480-6</td><td><span/>BP Systolic</td><td>95</td><td>mm[Hg]</td><td>11-01-2010 10:00:00</td><td>Finding</td></tr></tbody></table></div>"
        },
        "mode": "snapshot",
        "entry": [ {
          "reference": "Observation/b4ed9bc2-37d2-4e6b-80ef-a7f8e08a36fd",
          "display": "BP Diastolic"
        }, {
          "reference": "Observation/c4498659-79de-41dd-85d2-76693a68da7e",
          "display": "Heart Rate"
        }, {
          "reference": "Observation/c3ca941e-127f-4571-91b1-bc83d0d73112",
          "display": "BP Systolic"
        }, {
          "reference": "Observation/b91fd991-2007-46b6-832a-854a37bea2f1",
          "display": "BMI"
        }, {
          "reference": "Observation/a9da9829-fab1-4346-a39c-9f29157a4207",
          "display": "Heart Rate"
        }, {
          "reference": "Observation/cfdb88e2-5812-45ba-aa1d-4888acd95ff3",
          "display": "BMI"
        }, {
          "reference": "Observation/ddb8c574-565d-4150-80f7-899438a95d4d",
          "display": "BP Diastolic"
        }, {
          "reference": "Observation/590b08ef-359d-465a-b246-b169384855f6",
          "display": "BP Systolic"
        }, {
          "reference": "Observation/49df15cc-29c8-4af7-811f-817f503d1d13",
          "display": "BMI"
        }, {
          "reference": "Observation/4bad7027-e8e5-4e8e-8ffd-78c01f90e4b4",
          "display": "BP Diastolic"
        }, {
          "reference": "Observation/b848e6b0-613a-4127-b37a-3b88cf447230",
          "display": "BP Systolic"
        }, {
          "reference": "Observation/bb89bed3-94c3-417f-8fc0-bb9926207b06",
          "display": "Heart Rate"
        }, {
          "reference": "Observation/e56eda87-d05f-40be-9ce7-487d620ca48c",
          "display": "Heart Rate"
        }, {
          "reference": "Observation/e9e1e564-cee6-4f50-a1e9-0b68ac0d1420",
          "display": "BMI"
        }, {
          "reference": "Observation/e273b2f3-ded1-4c0a-907a-41b1d15ea848",
          "display": "BP Diastolic"
        }, {
          "reference": "Observation/981e14bf-7f96-4a91-a395-8880f9834861",
          "display": "BP Systolic"
        }, {
          "reference": "Observation/19359252-f886-447e-9ad1-4508291cb269",
          "display": "BMI"
        }, {
          "reference": "Observation/c14b0e4f-3e72-448e-8802-77ef04e79dde",
          "display": "BP Systolic"
        }, {
          "reference": "Observation/99288bbb-17e7-4d49-9f1c-07a84bae8168",
          "display": "BP Diastolic"
        }, {
          "reference": "Observation/0c71c85a-102d-42b0-8a20-18550dd68975",
          "display": "Heart Rate"
        } ]
      }, {
        "title": "Results",
        "code": {
          "coding": [ {
            "system": "http://loinc.org",
            "code": "30954-2",
            "display": "Results"
          } ]
        },
        "text": {
          "status": "additional",
          "div": "<div xmlns=\"http://www.w3.org/1999/xhtml\"><table><thead><tr><th>Group Description</th><th>Code System</th><th>Code</th><th>Code Description</th><th>Value</th><th>Unit</th><th>Reference Range</th><th>Date and Time</th><th>Status</th></tr></thead><tbody><tr><td>FOBT</td><td>LOINC</td><td>2335-8</td><td><span/>Hemoccult Stl Ql</td><td>negative</td><td/><td>NA</td><td>06-05-2010 10:00:00</td><td>Completed</td></tr><tr><td/><td>CPT</td><td>82274</td><td>Assay test for blood, fecal</td><td/><td/><td/><td/><td/></tr><tr><td/><td>HCPCS</td><td>G0328</td><td>Fecal blood scrn immunoassay</td><td/><td/><td/><td/><td/></tr><tr><td/><td>ICD-9-CM</td><td>V76.51</td><td>Special screening for malignant neoplasms of colon</td><td/><td/><td/><td/><td/></tr><tr><td/><td>SNOMED-CT</td><td>252156002</td><td>Occult blood screening</td><td/><td/><td/><td/><td/></tr><tr><td>Pap Test</td><td>LOINC</td><td>10524-7</td><td><span/>Cyto Cervix</td><td>normal</td><td/><td>NA</td><td>06-05-2010 10:00:00</td><td>Completed</td></tr><tr><td/><td>CPT</td><td>88174</td><td>Cytopath, c/v auto, in fluid</td><td/><td/><td/><td/><td/></tr><tr><td/><td>HCPCS</td><td>G0147</td><td>Scr c/v cyto, automated sys</td><td/><td/><td/><td/><td/></tr><tr><td/><td>ICD-10-CM</td><td>Z12.4</td><td>Encounter for screening for malignant neoplasm of cervix</td><td/><td/><td/><td/><td/></tr><tr><td/><td>ICD-9-CM</td><td>V72.32</td><td>Encounter for Papanicolaou cervical smear to confirm findings of recent normal smear following initial abnormal smear</td><td/><td/><td/><td/><td/></tr><tr><td/><td>SNOMED-CT</td><td>440623000</td><td>Microscopic examination of cervical Papanicolaou smear</td><td/><td/><td/><td/><td/></tr></tbody></table></div>"
        },
        "mode": "snapshot",
        "entry": [ {
          "reference": "DiagnosticReport/98739c8c-839c-4232-8650-f5fb7d7ecfd2",
          "display": "FOBT"
        }, {
          "reference": "DiagnosticReport/22d7f586-2254-4231-8cc7-b679db9a158b",
          "display": "Cytology"
        } ]
      }, {
        "title": "Social History",
        "code": {
          "coding": [ {
            "system": "http://loinc.org",
            "code": "29762-2",
            "display": "Social History"
          } ]
        },
        "text": {
          "status": "additional",
          "div": "<div xmlns=\"http://www.w3.org/1999/xhtml\"><table><thead><tr><th>Group Description</th><th>Code System</th><th>Code</th><th>Code Description</th><th>Date and Time</th><th>Status</th></tr></thead><tbody><tr><td>Tobacco Use</td><td>SNOMED-CT</td><td>266919005</td><td><span/>Never smoker (Never Smoked)</td><td>06-05-2010 10:00:00</td><td>Active</td></tr><tr><td/><td>SNOMED-CT</td><td>449868002</td><td>Current every day smoker</td><td/><td/></tr></tbody></table></div>"
        },
        "mode": "snapshot",
        "entry": [ {
          "reference": "Observation/fa43ef7f-9fca-4095-a1ab-9269706a82e1"
        } ]
      }, {
        "title": "Medications",
        "code": {
          "coding": [ {
            "system": "http://loinc.org",
            "code": "10160-0",
            "display": "History of Medication Use"
          } ]
        },
        "text": {
          "status": "additional",
          "div": "<div xmlns=\"http://www.w3.org/1999/xhtml\"><table><thead><tr><th>Group Description</th><th>Code System</th><th>Code</th><th>Code Description</th><th>Date and Time</th><th>Status</th></tr></thead><tbody><tr><td>Tamoxifen or Aromatase Inhibitor Therapy</td><td>RxNorm</td><td>313195</td><td><span/>Tamoxifen 20 MG Oral Tablet</td><td>07-27-2010 10:00:00</td><td>Active</td></tr></tbody></table></div>"
        },
        "mode": "snapshot",
        "entry": [ {
          "reference": "MedicationStatement/dc03e994-9b26-40fc-9bdf-1c8a75716fad",
          "display": "Tamoxifen 20 MG Oral Tablet"
        } ]
      } ]
    }
  }, {
    "resource": {
      "resourceType": "Patient",
      "id": "2aa52dee-f84e-4c13-a066-b94de2773377",
      "extension": [ {
        "url": "http://hl7.org/fhir/StructureDefinition/patient-religion",
        "valueCodeableConcept": {
          "coding": [ {
            "system": "urn:oid:2.16.840.1.113883.5.1076",
            "code": "1005",
            "display": "Anglican"
          } ]
        }
      }, {
        "url": "http://hl7.org/fhir/us/core/StructureDefinition/us-core-race",
        "extension": [ {
          "url": "text",
          "valueString": "Black or African American"
        }, {
          "url": "ombCategory",
          "valueCoding": {
            "system": "urn:oid:2.16.840.1.113883.6.238",
            "code": "2054-5",
            "display": "Black or African American"
          }
        } ]
      }, {
        "url": "http://hl7.org/fhir/us/core/StructureDefinition/us-core-ethnicity",
        "extension": [ {
          "url": "text",
          "valueString": "Not Hispanic or Latino"
        }, {
          "url": "ombCategory",
          "valueCoding": {
            "system": "urn:oid:2.16.840.1.113883.6.238",
            "code": "2186-5",
            "display": "Not Hispanic or Latino"
          }
        } ]
      }, {
        "url": "http://hl7.org/fhir/StructureDefinition/patient-birthPlace",
        "valueAddress": {
          "city": "West Peabody",
          "state": "MA",
          "postalCode": "1960",
          "country": "US"
        }
      } ],
      "identifier": [ {
        "use": "official",
        "system": "urn:oid:2.16.840.1.113883.19.5.99999.2",
        "value": "998991"
      }, {
        "use": "official",
        "system": "urn:oid:2.16.840.1.113883.4.1",
        "value": "111-00-2330"
      } ],
      "name": [ {
        "use": "usual",
        "family": "Wright",
        "given": [ "Georgia" ]
      } ],
      "telecom": [ {
        "system": "phone",
        "value": "(606)855-4876",
        "use": "mobile"
      } ],
      "gender": "female",
      "birthDate": "1958-06-08",
      "address": [ {
        "use": "home",
        "line": [ "28 North Bend River Road" ],
        "city": "Neon",
        "state": "KY",
        "postalCode": "41840",
        "country": "US"
      } ],
      "maritalStatus": {
        "coding": [ {
          "system": "http://terminology.hl7.org/CodeSystem/v3-MaritalStatus",
          "code": "M",
          "display": "Married"
        } ]
      },
      "contact": [ {
        "relationship": [ {
          "coding": [ {
            "system": "http://terminology.hl7.org/CodeSystem/v2-0131",
            "code": "C",
            "display": "Emergency Contact"
          } ]
        } ],
        "name": {
          "family": "Smith",
          "given": [ "Karl" ],
          "prefix": [ "Mr." ]
        },
        "telecom": [ {
          "system": "phone",
          "value": "(517)230-1437",
          "use": "home"
        }, {
          "system": "email",
          "value": "KarlJSmith@fleckens.hu",
          "use": "work"
        } ],
        "address": {
          "use": "home",
          "line": [ "1405 Jarvisville Road" ],
          "city": "Lansing",
          "state": "MI",
          "postalCode": "48933",
          "country": "US"
        }
      } ],
      "communication": [ {
        "language": {
          "coding": [ {
            "system": "urn:ietf:bcp:47",
            "code": "spa"
          } ]
        },
        "preferred": true
      } ],
      "managingOrganization": {
        "reference": "Organization/639b3c34-4c4e-43ba-960f-4293a6c9618a",
        "display": "Community Health and Hospitals"
      }
    }
  }, {
    "resource": {
      "resourceType": "Organization",
      "id": "639b3c34-4c4e-43ba-960f-4293a6c9618a",
      "identifier": [ {
        "use": "official",
        "value": "2.16.840.1.113883.4.6"
      } ],
      "name": "Community Health and Hospitals",
      "telecom": [ {
        "system": "phone",
        "value": " 555-555-5000",
        "use": "work"
      } ],
      "address": [ {
        "line": [ "1001 Village Avenue" ],
        "city": "Portland",
        "state": "OR",
        "postalCode": "99123",
        "country": "US"
      } ]
    }
  }, {
    "resource": {
      "resourceType": "Practitioner",
      "id": "876bbe27-15b6-46f2-83e0-ccbf41478c55",
      "identifier": [ {
        "use": "official",
        "system": "urn:oid:2.16.840.1.113883.4.6",
        "value": "99999999"
      } ],
      "name": [ {
        "family": "Seven",
        "given": [ "Henry" ],
        "suffix": [ "MD" ]
      } ],
      "telecom": [ {
        "system": "phone",
        "value": "555-555-1002",
        "use": "work"
      } ],
      "address": [ {
        "line": [ "1002 Healthcare Drive" ],
        "city": "Portland",
        "state": "OR",
        "postalCode": "99123",
        "country": "US"
      } ]
    }
  }, {
    "resource": {
      "resourceType": "Practitioner",
      "id": "3ce4fcb4-95a1-47ad-98ae-7d13a04d6939",
      "identifier": [ {
        "use": "official",
        "system": "http://hl7.org/fhir/sid/us-npi",
        "value": "999999999"
      } ],
      "name": [ {
        "family": "Seven",
        "given": [ "Henry" ]
      } ],
      "telecom": [ {
        "system": "phone",
        "value": "555-555-1002",
        "use": "work"
      } ],
      "address": [ {
        "line": [ "1001 Village Avenue" ],
        "city": "Portland",
        "state": "OR",
        "postalCode": "99123",
        "country": "US"
      } ]
    }
  }, {
    "resource": {
      "resourceType": "Practitioner",
      "id": "398cc160-bbde-4699-a1c7-d022987cb82f",
      "identifier": [ {
        "use": "official",
        "system": "http://hl7.org/fhir/sid/us-npi",
        "value": "PseudoMD-1"
      } ],
      "name": [ {
        "family": "Seven",
        "given": [ "Henry" ],
        "suffix": [ "MD" ]
      } ],
      "telecom": [ {
        "system": "phone",
        "value": "+1-555-555-5000",
        "use": "home"
      } ],
      "address": [ {
        "line": [ "1001 Village Avenue" ],
        "city": "Portland",
        "state": "OR",
        "postalCode": "99123",
        "country": "US"
      } ]
    }
  }, {
    "resource": {
      "resourceType": "Organization",
      "id": "270386bc-26bc-49f9-a2b0-c67059bcbe4e",
      "identifier": [ {
        "use": "official",
        "system": "urn:oid:2.16.840.1.113883.4.6",
        "value": "99999999"
      } ],
      "name": "Community Health and Hospitals",
      "telecom": [ {
        "system": "phone",
        "value": " 555-555-1002",
        "use": "work"
      } ],
      "address": [ {
        "use": "work",
        "line": [ "1002 Healthcare Drive" ],
        "city": "Portland",
        "state": "OR",
        "postalCode": "99123",
        "country": "US"
      } ]
    }
  }, {
    "resource": {
      "resourceType": "Encounter",
      "id": "6d688cc5-2a83-4622-8f1d-c9e486049b0d",
      "identifier": [ {
        "use": "official",
        "value": "2a620155-9d11-439e-92b3-5d9815ff4de8"
      } ],
      "status": "finished",
      "type": [ {
        "coding": [ {
          "system": "http://www.ama-assn.org/go/cpt",
          "code": "99212",
          "display": "Office/outpatient visit, est"
        } ]
      } ],
      "subject": {
        "reference": "Patient/2aa52dee-f84e-4c13-a066-b94de2773377",
        "display": "Georgia Wright"
      },
      "period": {
        "start": "2010-09-15T10:00:00+02:00"
      },
      "reasonCode": [ {
        "coding": [ {
          "system": "http://snomed.info/sct",
          "code": "45007003",
          "display": "Hypotension"
        } ]
      } ],
      "reasonReference": [ {
        "reference": "Condition/5bf37a2c-c09d-4f05-8356-ef2791180dfd",
        "display": "Hypotension"
      } ]
    }
  }, {
    "resource": {
      "resourceType": "Condition",
      "id": "5bf37a2c-c09d-4f05-8356-ef2791180dfd",
      "identifier": [ {
        "use": "official",
        "system": "urn:uuid:db734647-fc99-424c-a864-7e3cda82e703",
        "value": "45665"
      } ],
      "clinicalStatus": {
        "coding": [ {
          "system": "http://terminology.hl7.org/CodeSystem/condition-clinical",
          "code": "active",
          "display": "Active"
        } ]
      },
      "category": [ {
        "coding": [ {
          "system": "http://hl7.org/fhir/condition-category",
          "code": "encounter-diagnosis",
          "display": "Encounter Diagnosis"
        } ]
      } ],
      "code": {
        "coding": [ {
          "system": "http://snomed.info/sct",
          "code": "45007003",
          "display": "Hypotension"
        }, {
          "system": "urn:oid:2.16.840.1.113883.6.90",
          "code": "I95.9",
          "display": "Hypotension, unspecified"
        }, {
          "system": "urn:oid:2.16.840.1.113883.6.103",
          "code": "458.9",
          "display": "Hypotension, unspecified"
        } ]
      },
      "subject": {
        "reference": "Patient/2aa52dee-f84e-4c13-a066-b94de2773377",
        "display": "Georgia Wright"
      },
      "onsetDateTime": "2010-09-15T10:00:00+02:00"
    }
  }, {
    "resource": {
      "resourceType": "Encounter",
      "id": "8dff5ff1-5a58-43dc-974a-83215e1bc49e",
      "identifier": [ {
        "use": "official",
        "value": "2a620155-9d11-439e-92b3-5d9815ff4de8"
      } ],
      "status": "finished",
      "type": [ {
        "coding": [ {
          "system": "http://www.ama-assn.org/go/cpt",
          "code": "99213",
          "display": "Office/outpatient visit, est"
        }, {
          "system": "urn:oid:2.16.840.1.113883.6.103",
          "code": "V70.0",
          "display": "Routine general medical examination at a health care facility"
        } ]
      } ],
      "subject": {
        "reference": "Patient/2aa52dee-f84e-4c13-a066-b94de2773377",
        "display": "Georgia Wright"
      },
      "period": {
        "start": "2010-11-01T10:00:00+01:00"
      }
    }
  }, {
    "resource": {
      "resourceType": "Encounter",
      "id": "a11db531-2aa1-4925-af8d-fe63e9c54846",
      "identifier": [ {
        "use": "official",
        "value": "2a620155-9d11-439e-92b3-5d9815ff4de8"
      } ],
      "status": "finished",
      "type": [ {
        "coding": [ {
          "system": "http://www.ama-assn.org/go/cpt",
          "code": "99213",
          "display": "Office/outpatient visit, est"
        }, {
          "system": "urn:oid:2.16.840.1.113883.6.103",
          "code": "V70.0",
          "display": "Routine general medical examination at a health care facility"
        } ]
      } ],
      "subject": {
        "reference": "Patient/2aa52dee-f84e-4c13-a066-b94de2773377",
        "display": "Georgia Wright"
      },
      "period": {
        "start": "2010-07-27T10:00:00+02:00"
      }
    }
  }, {
    "resource": {
      "resourceType": "Encounter",
      "id": "024b524d-83d8-42d4-b1f4-504aadb756d9",
      "identifier": [ {
        "use": "official",
        "value": "2a620155-9d11-439e-92b3-5d9815ff4de8"
      } ],
      "status": "finished",
      "type": [ {
        "coding": [ {
          "system": "http://www.ama-assn.org/go/cpt",
          "code": "99213",
          "display": "Office/outpatient visit, est"
        }, {
          "system": "urn:oid:2.16.840.1.113883.6.103",
          "code": "V70.0",
          "display": "Routine general medical examination at a health care facility"
        } ]
      } ],
      "subject": {
        "reference": "Patient/2aa52dee-f84e-4c13-a066-b94de2773377",
        "display": "Georgia Wright"
      },
      "period": {
        "start": "2010-07-15T10:00:00+02:00"
      }
    }
  }, {
    "resource": {
      "resourceType": "Encounter",
      "id": "1e6bfd91-62f4-4cf1-a5d3-328e1fc6d6e3",
      "identifier": [ {
        "use": "official",
        "value": "2a620155-9d11-439e-92b3-5d9815ff4de8"
      } ],
      "status": "finished",
      "type": [ {
        "coding": [ {
          "system": "http://www.ama-assn.org/go/cpt",
          "code": "99213",
          "display": "Office/outpatient visit, est"
        }, {
          "system": "urn:oid:2.16.840.1.113883.6.103",
          "code": "V70.0",
          "display": "Routine general medical examination at a health care facility"
        } ]
      } ],
      "subject": {
        "reference": "Patient/2aa52dee-f84e-4c13-a066-b94de2773377",
        "display": "Georgia Wright"
      },
      "period": {
        "start": "2010-06-05T10:00:00+02:00"
      }
    }
  }, {
    "resource": {
      "resourceType": "Encounter",
      "id": "e5ca20a2-cd7d-4b1c-8d44-29609e5bc685",
      "identifier": [ {
        "use": "official",
        "value": "2a620155-9d11-439e-92b3-5d9815ff4de8"
      } ],
      "status": "finished",
      "type": [ {
        "coding": [ {
          "system": "http://www.ama-assn.org/go/cpt",
          "code": "99212",
          "display": "Office/outpatient visit, est"
        } ]
      } ],
      "subject": {
        "reference": "Patient/2aa52dee-f84e-4c13-a066-b94de2773377",
        "display": "Georgia Wright"
      },
      "period": {
        "start": "2010-06-22T10:00:00+02:00"
      }
    }
  }, {
    "resource": {
      "resourceType": "Condition",
      "id": "7fb9e1fb-6ee3-4b3c-ab55-38c384887160",
      "identifier": [ {
        "use": "official",
        "value": "9d3d416d-45ab-4da1-912f-4583e0632000"
      } ],
      "clinicalStatus": {
        "coding": [ {
          "system": "http://terminology.hl7.org/CodeSystem/condition-clinical",
          "code": "active",
          "display": "Active"
        } ]
      },
      "verificationStatus": {
        "coding": [ {
          "system": "http://terminology.hl7.org/CodeSystem/condition-ver-status",
          "code": "confirmed",
          "display": "Confirmed"
        } ]
      },
      "category": [ {
        "coding": [ {
          "system": "http://terminology.hl7.org/CodeSystem/condition-category",
          "code": "problem-list-item",
          "display": "Problem List Item"
        } ]
      } ],
      "code": {
        "coding": [ {
          "system": "http://snomed.info/sct",
          "code": "261653007",
          "display": "Tumor stage T2c"
        } ]
      },
      "subject": {
        "reference": "Patient/2aa52dee-f84e-4c13-a066-b94de2773377",
        "display": "Georgia Wright"
      },
      "onsetDateTime": "2010-07-22T10:00:00+02:00"
    }
  }, {
    "resource": {
      "resourceType": "AllergyIntolerance",
      "id": "813ad1a9-4b13-4c58-b466-a0fb0422c4b0",
      "identifier": [ {
        "use": "official",
        "value": "36e3e930-7b14-11db-9fe1-0800200c9a66"
      } ],
      "clinicalStatus": {
        "coding": [ {
          "system": "http://terminology.hl7.org/CodeSystem/allergyintolerance-clinical",
          "code": "active",
          "display": "Active"
        } ]
      },
      "verificationStatus": {
        "coding": [ {
          "system": "http://terminology.hl7.org/CodeSystem/allergyintolerance-verification",
          "code": "confirmed",
          "display": "Confirmed"
        } ]
      },
      "type": "allergy",
      "category": [ "medication" ],
      "code": {
        "coding": [ {
          "system": "http://www.nlm.nih.gov/research/umls/rxnorm",
          "code": "892677",
          "display": "Baker's yeast allergenic extract 100 MG/ML Injectable Solution"
        } ],
        "text": "Bakers Yeast + Baker's yeast allergenic extract 100 MG/ML Injectable Solution"
      },
      "patient": {
        "reference": "Patient/2aa52dee-f84e-4c13-a066-b94de2773377",
        "display": "Georgia Wright"
      },
      "recordedDate": "2010-06-05T10:00:00+02:00"
    }
  }, {
    "resource": {
      "resourceType": "AllergyIntolerance",
      "id": "608cc25e-fff7-4028-a868-cd1e15b04bbf",
      "identifier": [ {
        "use": "official",
        "value": "36e3e930-7b14-11db-9fe1-0800200c9a66"
      } ],
      "clinicalStatus": {
        "coding": [ {
          "system": "http://terminology.hl7.org/CodeSystem/allergyintolerance-clinical",
          "code": "active",
          "display": "Active"
        } ]
      },
      "verificationStatus": {
        "coding": [ {
          "system": "http://terminology.hl7.org/CodeSystem/allergyintolerance-verification",
          "code": "confirmed",
          "display": "Confirmed"
        } ]
      },
      "type": "allergy",
      "category": [ "food" ],
      "code": {
        "coding": [ {
          "system": "http://fdasis.nlm.nih.gov",
          "code": "291P45F896",
          "display": "Eggs"
        }, {
          "system": "urn:oid:2.16.840.1.113883.6.103",
          "code": "V15.03",
          "display": "Allergy to eggs"
        } ],
        "text": "Allergy to Eggs + Eggs"
      },
      "patient": {
        "reference": "Patient/2aa52dee-f84e-4c13-a066-b94de2773377",
        "display": "Georgia Wright"
      },
      "recordedDate": "2010-06-05T10:00:00+02:00"
    }
  }, {
    "resource": {
      "resourceType": "AllergyIntolerance",
      "id": "2afe2cd5-677e-4a01-a2ef-90d15e91e868",
      "identifier": [ {
        "use": "official",
        "value": "36e3e930-7b14-11db-9fe1-0800200c9a66"
      } ],
      "clinicalStatus": {
        "coding": [ {
          "system": "http://terminology.hl7.org/CodeSystem/allergyintolerance-clinical",
          "code": "active",
          "display": "Active"
        } ]
      },
      "verificationStatus": {
        "coding": [ {
          "system": "http://terminology.hl7.org/CodeSystem/allergyintolerance-verification",
          "code": "confirmed",
          "display": "Confirmed"
        } ]
      },
      "type": "allergy",
      "category": [ "medication" ],
      "code": {
        "coding": [ {
          "system": "urn:oid:2.16.840.1.113883.3.26.1.5",
          "code": "N0000006691",
          "display": "Codeine"
        } ],
        "text": "Codeine + Codeine"
      },
      "patient": {
        "reference": "Patient/2aa52dee-f84e-4c13-a066-b94de2773377",
        "display": "Georgia Wright"
      },
      "recordedDate": "2010-06-05T10:00:00+02:00"
    }
  }, {
    "resource": {
      "resourceType": "Observation",
      "id": "b4ed9bc2-37d2-4e6b-80ef-a7f8e08a36fd",
      "identifier": [ {
        "use": "official",
        "value": "c6f88321-67ad-11db-bd13-0800200c9a66"
      } ],
      "status": "final",
      "category": [ {
        "coding": [ {
          "system": "http://terminology.hl7.org/CodeSystem/observation-category",
          "code": "vital-signs",
          "display": "Vital Signs"
        } ]
      } ],
      "code": {
        "coding": [ {
          "system": "http://loinc.org",
          "code": "8462-4",
          "display": "BP Diastolic"
        } ]
      },
      "subject": {
        "reference": "Patient/2aa52dee-f84e-4c13-a066-b94de2773377",
        "display": "Georgia Wright"
      },
      "effectivePeriod": {
        "start": "2010-09-15T10:00:00+02:00"
      },
      "valueQuantity": {
        "value": 50,
        "unit": "mm[Hg]",
        "system": "http://unitsofmeasure.org",
        "code": "mm[Hg]"
      }
    }
  }, {
    "resource": {
      "resourceType": "Observation",
      "id": "c4498659-79de-41dd-85d2-76693a68da7e",
      "identifier": [ {
        "use": "official",
        "value": "c6f88321-67ad-11db-bd13-0800200c9a66"
      } ],
      "status": "final",
      "category": [ {
        "coding": [ {
          "system": "http://terminology.hl7.org/CodeSystem/observation-category",
          "code": "vital-signs",
          "display": "Vital Signs"
        } ]
      } ],
      "code": {
        "coding": [ {
          "system": "http://loinc.org",
          "code": "8867-4",
          "display": "Heart Rate"
        } ]
      },
      "subject": {
        "reference": "Patient/2aa52dee-f84e-4c13-a066-b94de2773377",
        "display": "Georgia Wright"
      },
      "effectivePeriod": {
        "start": "2010-09-15T10:00:00+02:00"
      },
      "valueQuantity": {
        "value": 62,
        "unit": "/min",
        "system": "http://unitsofmeasure.org",
        "code": "/min"
      }
    }
  }, {
    "resource": {
      "resourceType": "Observation",
      "id": "c3ca941e-127f-4571-91b1-bc83d0d73112",
      "identifier": [ {
        "use": "official",
        "value": "c6f88321-67ad-11db-bd13-0800200c9a66"
      } ],
      "status": "final",
      "category": [ {
        "coding": [ {
          "system": "http://terminology.hl7.org/CodeSystem/observation-category",
          "code": "vital-signs",
          "display": "Vital Signs"
        } ]
      } ],
      "code": {
        "coding": [ {
          "system": "http://loinc.org",
          "code": "8480-6",
          "display": "BP Systolic"
        } ]
      },
      "subject": {
        "reference": "Patient/2aa52dee-f84e-4c13-a066-b94de2773377",
        "display": "Georgia Wright"
      },
      "effectivePeriod": {
        "start": "2010-09-15T10:00:00+02:00"
      },
      "valueQuantity": {
        "value": 90,
        "unit": "mm[Hg]",
        "system": "http://unitsofmeasure.org",
        "code": "mm[Hg]"
      }
    }
  }, {
    "resource": {
      "resourceType": "Observation",
      "id": "b91fd991-2007-46b6-832a-854a37bea2f1",
      "identifier": [ {
        "use": "official",
        "value": "c6f88321-67ad-11db-bd13-0800200c9a66"
      } ],
      "status": "final",
      "category": [ {
        "coding": [ {
          "system": "http://terminology.hl7.org/CodeSystem/observation-category",
          "code": "vital-signs",
          "display": "Vital Signs"
        } ]
      } ],
      "code": {
        "coding": [ {
          "system": "http://loinc.org",
          "code": "39156-5",
          "display": "BMI"
        } ]
      },
      "subject": {
        "reference": "Patient/2aa52dee-f84e-4c13-a066-b94de2773377",
        "display": "Georgia Wright"
      },
      "effectivePeriod": {
        "start": "2010-06-05T10:00:00+02:00"
      },
      "valueQuantity": {
        "value": 25,
        "unit": "kg/m2",
        "system": "http://unitsofmeasure.org",
        "code": "kg/m2"
      }
    }
  }, {
    "resource": {
      "resourceType": "Observation",
      "id": "a9da9829-fab1-4346-a39c-9f29157a4207",
      "identifier": [ {
        "use": "official",
        "value": "c6f88321-67ad-11db-bd13-0800200c9a66"
      } ],
      "status": "final",
      "category": [ {
        "coding": [ {
          "system": "http://terminology.hl7.org/CodeSystem/observation-category",
          "code": "vital-signs",
          "display": "Vital Signs"
        } ]
      } ],
      "code": {
        "coding": [ {
          "system": "http://loinc.org",
          "code": "8867-4",
          "display": "Heart Rate"
        } ]
      },
      "subject": {
        "reference": "Patient/2aa52dee-f84e-4c13-a066-b94de2773377",
        "display": "Georgia Wright"
      },
      "effectivePeriod": {
        "start": "2010-06-22T10:00:00+02:00"
      },
      "valueQuantity": {
        "value": 60,
        "unit": "/min",
        "system": "http://unitsofmeasure.org",
        "code": "/min"
      }
    }
  }, {
    "resource": {
      "resourceType": "Observation",
      "id": "cfdb88e2-5812-45ba-aa1d-4888acd95ff3",
      "identifier": [ {
        "use": "official",
        "value": "c6f88321-67ad-11db-bd13-0800200c9a66"
      } ],
      "status": "final",
      "category": [ {
        "coding": [ {
          "system": "http://terminology.hl7.org/CodeSystem/observation-category",
          "code": "vital-signs",
          "display": "Vital Signs"
        } ]
      } ],
      "code": {
        "coding": [ {
          "system": "http://loinc.org",
          "code": "39156-5",
          "display": "BMI"
        } ]
      },
      "subject": {
        "reference": "Patient/2aa52dee-f84e-4c13-a066-b94de2773377",
        "display": "Georgia Wright"
      },
      "effectivePeriod": {
        "start": "2010-06-22T10:00:00+02:00"
      },
      "valueQuantity": {
        "value": 25,
        "unit": "kg/m2",
        "system": "http://unitsofmeasure.org",
        "code": "kg/m2"
      }
    }
  }, {
    "resource": {
      "resourceType": "Observation",
      "id": "ddb8c574-565d-4150-80f7-899438a95d4d",
      "identifier": [ {
        "use": "official",
        "value": "c6f88321-67ad-11db-bd13-0800200c9a66"
      } ],
      "status": "final",
      "category": [ {
        "coding": [ {
          "system": "http://terminology.hl7.org/CodeSystem/observation-category",
          "code": "vital-signs",
          "display": "Vital Signs"
        } ]
      } ],
      "code": {
        "coding": [ {
          "system": "http://loinc.org",
          "code": "8462-4",
          "display": "BP Diastolic"
        } ]
      },
      "subject": {
        "reference": "Patient/2aa52dee-f84e-4c13-a066-b94de2773377",
        "display": "Georgia Wright"
      },
      "effectivePeriod": {
        "start": "2010-06-22T10:00:00+02:00"
      },
      "valueQuantity": {
        "value": 64,
        "unit": "mm[Hg]",
        "system": "http://unitsofmeasure.org",
        "code": "mm[Hg]"
      }
    }
  }, {
    "resource": {
      "resourceType": "Observation",
      "id": "590b08ef-359d-465a-b246-b169384855f6",
      "identifier": [ {
        "use": "official",
        "value": "c6f88321-67ad-11db-bd13-0800200c9a66"
      } ],
      "status": "final",
      "category": [ {
        "coding": [ {
          "system": "http://terminology.hl7.org/CodeSystem/observation-category",
          "code": "vital-signs",
          "display": "Vital Signs"
        } ]
      } ],
      "code": {
        "coding": [ {
          "system": "http://loinc.org",
          "code": "8480-6",
          "display": "BP Systolic"
        } ]
      },
      "subject": {
        "reference": "Patient/2aa52dee-f84e-4c13-a066-b94de2773377",
        "display": "Georgia Wright"
      },
      "effectivePeriod": {
        "start": "2010-06-22T10:00:00+02:00"
      },
      "valueQuantity": {
        "value": 106,
        "unit": "mm[Hg]",
        "system": "http://unitsofmeasure.org",
        "code": "mm[Hg]"
      }
    }
  }, {
    "resource": {
      "resourceType": "Observation",
      "id": "49df15cc-29c8-4af7-811f-817f503d1d13",
      "identifier": [ {
        "use": "official",
        "value": "c6f88321-67ad-11db-bd13-0800200c9a66"
      } ],
      "status": "final",
      "category": [ {
        "coding": [ {
          "system": "http://terminology.hl7.org/CodeSystem/observation-category",
          "code": "vital-signs",
          "display": "Vital Signs"
        } ]
      } ],
      "code": {
        "coding": [ {
          "system": "http://loinc.org",
          "code": "39156-5",
          "display": "BMI"
        } ]
      },
      "subject": {
        "reference": "Patient/2aa52dee-f84e-4c13-a066-b94de2773377",
        "display": "Georgia Wright"
      },
      "effectivePeriod": {
        "start": "2010-07-15T10:00:00+02:00"
      },
      "valueQuantity": {
        "value": 24.7,
        "unit": "kg/m2",
        "system": "http://unitsofmeasure.org",
        "code": "kg/m2"
      }
    }
  }, {
    "resource": {
      "resourceType": "Observation",
      "id": "4bad7027-e8e5-4e8e-8ffd-78c01f90e4b4",
      "identifier": [ {
        "use": "official",
        "value": "c6f88321-67ad-11db-bd13-0800200c9a66"
      } ],
      "status": "final",
      "category": [ {
        "coding": [ {
          "system": "http://terminology.hl7.org/CodeSystem/observation-category",
          "code": "vital-signs",
          "display": "Vital Signs"
        } ]
      } ],
      "code": {
        "coding": [ {
          "system": "http://loinc.org",
          "code": "8462-4",
          "display": "BP Diastolic"
        } ]
      },
      "subject": {
        "reference": "Patient/2aa52dee-f84e-4c13-a066-b94de2773377",
        "display": "Georgia Wright"
      },
      "effectivePeriod": {
        "start": "2010-07-15T10:00:00+02:00"
      },
      "valueQuantity": {
        "value": 66,
        "unit": "mm[Hg]",
        "system": "http://unitsofmeasure.org",
        "code": "mm[Hg]"
      }
    }
  }, {
    "resource": {
      "resourceType": "Observation",
      "id": "b848e6b0-613a-4127-b37a-3b88cf447230",
      "identifier": [ {
        "use": "official",
        "value": "c6f88321-67ad-11db-bd13-0800200c9a66"
      } ],
      "status": "final",
      "category": [ {
        "coding": [ {
          "system": "http://terminology.hl7.org/CodeSystem/observation-category",
          "code": "vital-signs",
          "display": "Vital Signs"
        } ]
      } ],
      "code": {
        "coding": [ {
          "system": "http://loinc.org",
          "code": "8480-6",
          "display": "BP Systolic"
        } ]
      },
      "subject": {
        "reference": "Patient/2aa52dee-f84e-4c13-a066-b94de2773377",
        "display": "Georgia Wright"
      },
      "effectivePeriod": {
        "start": "2010-07-15T10:00:00+02:00"
      },
      "valueQuantity": {
        "value": 110,
        "unit": "mm[Hg]",
        "system": "http://unitsofmeasure.org",
        "code": "mm[Hg]"
      }
    }
  }, {
    "resource": {
      "resourceType": "Observation",
      "id": "bb89bed3-94c3-417f-8fc0-bb9926207b06",
      "identifier": [ {
        "use": "official",
        "value": "c6f88321-67ad-11db-bd13-0800200c9a66"
      } ],
      "status": "final",
      "category": [ {
        "coding": [ {
          "system": "http://terminology.hl7.org/CodeSystem/observation-category",
          "code": "vital-signs",
          "display": "Vital Signs"
        } ]
      } ],
      "code": {
        "coding": [ {
          "system": "http://loinc.org",
          "code": "8867-4",
          "display": "Heart Rate"
        } ]
      },
      "subject": {
        "reference": "Patient/2aa52dee-f84e-4c13-a066-b94de2773377",
        "display": "Georgia Wright"
      },
      "effectivePeriod": {
        "start": "2010-07-15T10:00:00+02:00"
      },
      "valueQuantity": {
        "value": 62,
        "unit": "/min",
        "system": "http://unitsofmeasure.org",
        "code": "/min"
      }
    }
  }, {
    "resource": {
      "resourceType": "Observation",
      "id": "e56eda87-d05f-40be-9ce7-487d620ca48c",
      "identifier": [ {
        "use": "official",
        "value": "c6f88321-67ad-11db-bd13-0800200c9a66"
      } ],
      "status": "final",
      "category": [ {
        "coding": [ {
          "system": "http://terminology.hl7.org/CodeSystem/observation-category",
          "code": "vital-signs",
          "display": "Vital Signs"
        } ]
      } ],
      "code": {
        "coding": [ {
          "system": "http://loinc.org",
          "code": "8867-4",
          "display": "Heart Rate"
        } ]
      },
      "subject": {
        "reference": "Patient/2aa52dee-f84e-4c13-a066-b94de2773377",
        "display": "Georgia Wright"
      },
      "effectivePeriod": {
        "start": "2010-07-27T10:00:00+02:00"
      },
      "valueQuantity": {
        "value": 64,
        "unit": "/min",
        "system": "http://unitsofmeasure.org",
        "code": "/min"
      }
    }
  }, {
    "resource": {
      "resourceType": "Observation",
      "id": "e9e1e564-cee6-4f50-a1e9-0b68ac0d1420",
      "identifier": [ {
        "use": "official",
        "value": "c6f88321-67ad-11db-bd13-0800200c9a66"
      } ],
      "status": "final",
      "category": [ {
        "coding": [ {
          "system": "http://terminology.hl7.org/CodeSystem/observation-category",
          "code": "vital-signs",
          "display": "Vital Signs"
        } ]
      } ],
      "code": {
        "coding": [ {
          "system": "http://loinc.org",
          "code": "39156-5",
          "display": "BMI"
        } ]
      },
      "subject": {
        "reference": "Patient/2aa52dee-f84e-4c13-a066-b94de2773377",
        "display": "Georgia Wright"
      },
      "effectivePeriod": {
        "start": "2010-07-27T10:00:00+02:00"
      },
      "valueQuantity": {
        "value": 25,
        "unit": "kg/m2",
        "system": "http://unitsofmeasure.org",
        "code": "kg/m2"
      }
    }
  }, {
    "resource": {
      "resourceType": "Observation",
      "id": "e273b2f3-ded1-4c0a-907a-41b1d15ea848",
      "identifier": [ {
        "use": "official",
        "value": "c6f88321-67ad-11db-bd13-0800200c9a66"
      } ],
      "status": "final",
      "category": [ {
        "coding": [ {
          "system": "http://terminology.hl7.org/CodeSystem/observation-category",
          "code": "vital-signs",
          "display": "Vital Signs"
        } ]
      } ],
      "code": {
        "coding": [ {
          "system": "http://loinc.org",
          "code": "8462-4",
          "display": "BP Diastolic"
        } ]
      },
      "subject": {
        "reference": "Patient/2aa52dee-f84e-4c13-a066-b94de2773377",
        "display": "Georgia Wright"
      },
      "effectivePeriod": {
        "start": "2010-07-27T10:00:00+02:00"
      },
      "valueQuantity": {
        "value": 68,
        "unit": "mm[Hg]",
        "system": "http://unitsofmeasure.org",
        "code": "mm[Hg]"
      }
    }
  }, {
    "resource": {
      "resourceType": "Observation",
      "id": "981e14bf-7f96-4a91-a395-8880f9834861",
      "identifier": [ {
        "use": "official",
        "value": "c6f88321-67ad-11db-bd13-0800200c9a66"
      } ],
      "status": "final",
      "category": [ {
        "coding": [ {
          "system": "http://terminology.hl7.org/CodeSystem/observation-category",
          "code": "vital-signs",
          "display": "Vital Signs"
        } ]
      } ],
      "code": {
        "coding": [ {
          "system": "http://loinc.org",
          "code": "8480-6",
          "display": "BP Systolic"
        } ]
      },
      "subject": {
        "reference": "Patient/2aa52dee-f84e-4c13-a066-b94de2773377",
        "display": "Georgia Wright"
      },
      "effectivePeriod": {
        "start": "2010-07-27T10:00:00+02:00"
      },
      "valueQuantity": {
        "value": 108,
        "unit": "mm[Hg]",
        "system": "http://unitsofmeasure.org",
        "code": "mm[Hg]"
      }
    }
  }, {
    "resource": {
      "resourceType": "Observation",
      "id": "19359252-f886-447e-9ad1-4508291cb269",
      "identifier": [ {
        "use": "official",
        "value": "c6f88321-67ad-11db-bd13-0800200c9a66"
      } ],
      "status": "final",
      "category": [ {
        "coding": [ {
          "system": "http://terminology.hl7.org/CodeSystem/observation-category",
          "code": "vital-signs",
          "display": "Vital Signs"
        } ]
      } ],
      "code": {
        "coding": [ {
          "system": "http://loinc.org",
          "code": "39156-5",
          "display": "BMI"
        } ]
      },
      "subject": {
        "reference": "Patient/2aa52dee-f84e-4c13-a066-b94de2773377",
        "display": "Georgia Wright"
      },
      "effectivePeriod": {
        "start": "2010-11-01T10:00:00+01:00"
      },
      "valueQuantity": {
        "value": 23.9,
        "unit": "kg/m2",
        "system": "http://unitsofmeasure.org",
        "code": "kg/m2"
      }
    }
  }, {
    "resource": {
      "resourceType": "Observation",
      "id": "c14b0e4f-3e72-448e-8802-77ef04e79dde",
      "identifier": [ {
        "use": "official",
        "value": "c6f88321-67ad-11db-bd13-0800200c9a66"
      } ],
      "status": "final",
      "category": [ {
        "coding": [ {
          "system": "http://terminology.hl7.org/CodeSystem/observation-category",
          "code": "vital-signs",
          "display": "Vital Signs"
        } ]
      } ],
      "code": {
        "coding": [ {
          "system": "http://loinc.org",
          "code": "8480-6",
          "display": "BP Systolic"
        } ]
      },
      "subject": {
        "reference": "Patient/2aa52dee-f84e-4c13-a066-b94de2773377",
        "display": "Georgia Wright"
      },
      "effectivePeriod": {
        "start": "2010-11-01T10:00:00+01:00"
      },
      "valueQuantity": {
        "value": 95,
        "unit": "mm[Hg]",
        "system": "http://unitsofmeasure.org",
        "code": "mm[Hg]"
      }
    }
  }, {
    "resource": {
      "resourceType": "Observation",
      "id": "99288bbb-17e7-4d49-9f1c-07a84bae8168",
      "identifier": [ {
        "use": "official",
        "value": "c6f88321-67ad-11db-bd13-0800200c9a66"
      } ],
      "status": "final",
      "category": [ {
        "coding": [ {
          "system": "http://terminology.hl7.org/CodeSystem/observation-category",
          "code": "vital-signs",
          "display": "Vital Signs"
        } ]
      } ],
      "code": {
        "coding": [ {
          "system": "http://loinc.org",
          "code": "8462-4",
          "display": "BP Diastolic"
        } ]
      },
      "subject": {
        "reference": "Patient/2aa52dee-f84e-4c13-a066-b94de2773377",
        "display": "Georgia Wright"
      },
      "effectivePeriod": {
        "start": "2010-11-01T10:00:00+01:00"
      },
      "valueQuantity": {
        "value": 58,
        "unit": "mm[Hg]",
        "system": "http://unitsofmeasure.org",
        "code": "mm[Hg]"
      }
    }
  }, {
    "resource": {
      "resourceType": "Observation",
      "id": "0c71c85a-102d-42b0-8a20-18550dd68975",
      "identifier": [ {
        "use": "official",
        "value": "c6f88321-67ad-11db-bd13-0800200c9a66"
      } ],
      "status": "final",
      "category": [ {
        "coding": [ {
          "system": "http://terminology.hl7.org/CodeSystem/observation-category",
          "code": "vital-signs",
          "display": "Vital Signs"
        } ]
      } ],
      "code": {
        "coding": [ {
          "system": "http://loinc.org",
          "code": "8867-4",
          "display": "Heart Rate"
        } ]
      },
      "subject": {
        "reference": "Patient/2aa52dee-f84e-4c13-a066-b94de2773377",
        "display": "Georgia Wright"
      },
      "effectivePeriod": {
        "start": "2010-11-01T10:00:00+01:00"
      },
      "valueQuantity": {
        "value": 64,
        "unit": "/min",
        "system": "http://unitsofmeasure.org",
        "code": "/min"
      }
    }
  }, {
    "resource": {
      "resourceType": "DiagnosticReport",
      "id": "98739c8c-839c-4232-8650-f5fb7d7ecfd2",
      "identifier": [ {
        "use": "official",
        "value": "7d5a02b0-67a4-11db-bd13-0800200c9a66"
      } ],
      "status": "final",
      "category": [ {
        "coding": [ {
          "system": "http://terminology.hl7.org/CodeSystem/v2-0074",
          "code": "LAB",
          "display": "Laboratory"
        } ]
      } ],
      "code": {
        "coding": [ {
          "system": "http://snomed.info/sct",
          "code": "167670005",
          "display": "FOBT"
        } ]
      },
      "subject": {
        "reference": "Patient/2aa52dee-f84e-4c13-a066-b94de2773377",
        "display": "Georgia Wright"
      },
      "result": [ {
        "reference": "Observation/433a7972-d8ad-4c5a-98fd-9ea96ec2b450",
        "display": "Hemoccult Stl Ql"
      } ]
    }
  }, {
    "resource": {
      "resourceType": "Observation",
      "id": "433a7972-d8ad-4c5a-98fd-9ea96ec2b450",
      "identifier": [ {
        "use": "official",
        "value": "107c2dc0-67a5-11db-bd13-0800200c9a66"
      } ],
      "status": "final",
      "category": [ {
        "coding": [ {
          "system": "http://terminology.hl7.org/CodeSystem/observation-category",
          "code": "laboratory"
        } ]
      } ],
      "code": {
        "coding": [ {
          "system": "http://loinc.org",
          "code": "2335-8",
          "display": "Hemoccult Stl Ql"
        }, {
          "system": "http://www.ama-assn.org/go/cpt",
          "code": "82274",
          "display": "Assay test for blood, fecal"
        }, {
          "system": "urn:oid:2.16.840.1.113883.6.13",
          "code": "G0328",
          "display": "Fecal blood scrn immunoassay"
        }, {
          "system": "urn:oid:2.16.840.1.113883.6.103",
          "code": "V76.51",
          "display": "Special screening for malignant neoplasms of colon"
        }, {
          "system": "http://snomed.info/sct",
          "code": "252156002",
          "display": "Occult blood screening"
        } ]
      },
      "subject": {
        "reference": "Patient/2aa52dee-f84e-4c13-a066-b94de2773377",
        "display": "Georgia Wright"
      },
      "effectivePeriod": {
        "start": "2010-06-05T10:00:00+02:00"
      },
      "valueCodeableConcept": {
        "coding": [ {
          "system": "http://snomed.info/sct",
          "code": "260385009",
          "display": "negative"
        } ]
      },
      "interpretation": [ {
        "coding": [ {
          "system": "http://terminology.hl7.org/CodeSystem/v3-ObservationInterpretation",
          "code": "N"
        } ]
      } ],
      "referenceRange": [ {
        "text": "NA"
      } ]
    }
  }, {
    "resource": {
      "resourceType": "DiagnosticReport",
      "id": "22d7f586-2254-4231-8cc7-b679db9a158b",
      "identifier": [ {
        "use": "official",
        "value": "7d5a02b0-67a4-11db-bd13-0800200c9a66"
      } ],
      "status": "final",
      "category": [ {
        "coding": [ {
          "system": "http://terminology.hl7.org/CodeSystem/v2-0074",
          "code": "LAB",
          "display": "Laboratory"
        } ]
      } ],
      "code": {
        "coding": [ {
          "system": "http://snomed.info/sct",
          "code": "116147009",
          "display": "Cytology"
        } ]
      },
      "subject": {
        "reference": "Patient/2aa52dee-f84e-4c13-a066-b94de2773377",
        "display": "Georgia Wright"
      },
      "result": [ {
        "reference": "Observation/6aafc2de-92fb-46e6-a643-4c090904e05a",
        "display": "Cyto Cervix"
      } ]
    }
  }, {
    "resource": {
      "resourceType": "Observation",
      "id": "6aafc2de-92fb-46e6-a643-4c090904e05a",
      "identifier": [ {
        "use": "official",
        "value": "107c2dc0-67a5-11db-bd13-0800200c9a66"
      } ],
      "status": "final",
      "category": [ {
        "coding": [ {
          "system": "http://terminology.hl7.org/CodeSystem/observation-category",
          "code": "laboratory"
        } ]
      } ],
      "code": {
        "coding": [ {
          "system": "http://loinc.org",
          "code": "10524-7",
          "display": "Cyto Cervix"
        }, {
          "system": "http://www.ama-assn.org/go/cpt",
          "code": "88174",
          "display": "Cytopath, c/v auto, in fluid"
        }, {
          "system": "urn:oid:2.16.840.1.113883.6.13",
          "code": "G0147",
          "display": "Scr c/v cyto, automated sys"
        }, {
          "system": "urn:oid:2.16.840.1.113883.6.90",
          "code": "Z12.4",
          "display": "Encounter for screening for malignant neoplasm of cervix"
        }, {
          "system": "urn:oid:2.16.840.1.113883.6.103",
          "code": "V72.32",
          "display": "Encounter for Papanicolaou cervical smear to confirm findings of recent normal smear following initial abnormal smear"
        }, {
          "system": "http://snomed.info/sct",
          "code": "440623000",
          "display": "Microscopic examination of cervical Papanicolaou smear"
        } ]
      },
      "subject": {
        "reference": "Patient/2aa52dee-f84e-4c13-a066-b94de2773377",
        "display": "Georgia Wright"
      },
      "effectivePeriod": {
        "start": "2010-06-05T10:00:00+02:00"
      },
      "valueCodeableConcept": {
        "coding": [ {
          "system": "http://snomed.info/sct",
          "code": "17621005",
          "display": "normal"
        } ]
      },
      "interpretation": [ {
        "coding": [ {
          "system": "http://terminology.hl7.org/CodeSystem/v3-ObservationInterpretation",
          "code": "N"
        } ]
      } ],
      "referenceRange": [ {
        "text": "NA"
      } ]
    }
  }, {
    "resource": {
      "resourceType": "Observation",
      "id": "fa43ef7f-9fca-4095-a1ab-9269706a82e1",
      "identifier": [ {
        "use": "official",
        "system": "urn:oid:2.16.840.1.113883.19",
        "value": "123456789"
      } ],
      "status": "final",
      "code": {
        "coding": [ {
          "system": "urn:oid:2.16.840.1.113883.5.4",
          "code": "ASSERTION"
        } ]
      },
      "subject": {
        "reference": "Patient/2aa52dee-f84e-4c13-a066-b94de2773377",
        "display": "Georgia Wright"
      },
      "effectivePeriod": {
        "start": "2010-06-05T10:00:00+02:00"
      },
      "valueCodeableConcept": {
        "coding": [ {
          "system": "http://snomed.info/sct",
          "code": "266919005",
          "display": "Never smoker (Never Smoked)"
        }, {
          "system": "http://snomed.info/sct",
          "code": "449868002",
          "display": "Current every day smoker"
        } ]
      }
    }
  }, {
    "resource": {
      "resourceType": "MedicationStatement",
      "id": "dc03e994-9b26-40fc-9bdf-1c8a75716fad",
      "extension": [ {
        "url": "http://hl7.org/fhir/3.0/StructureDefinition/extension-MedicationStatement.status",
        "valueCode": "UNKNOWN"
      } ],
      "identifier": [ {
        "use": "official",
        "value": "cdbd33f0-6cde-11db-9fe1-0800200c9a66"
      } ],
      "status": "completed",
      "medicationReference": {
        "reference": "Medication/2b847303-a17b-47a7-b349-8805893b2900",
        "display": "Tamoxifen 20 MG Oral Tablet"
      },
      "subject": {
        "reference": "Patient/2aa52dee-f84e-4c13-a066-b94de2773377",
        "display": "Georgia Wright"
      },
      "effectivePeriod": {
        "start": "2010-07-27T10:00:00+02:00"
      }
    }
  }, {
    "resource": {
      "resourceType": "Medication",
      "id": "2b847303-a17b-47a7-b349-8805893b2900",
      "code": {
        "coding": [ {
          "system": "http://www.nlm.nih.gov/research/umls/rxnorm",
          "code": "313195",
          "display": "Tamoxifen 20 MG Oral Tablet"
        } ]
      }
    }
  } ]
}