{
  "resourceType": "Bundle",
  "entry": [ {
    "resource": {
      "resourceType": "Composition",
      "id": "a9096b7e-3a5e-4878-b8e3-88208996372a",
      "identifier": {
        "use": "official",
        "value": "db734647-fc99-424c-a864-7e3cda82e703"
      },
      "status": "preliminary",
      "type": {
        "coding": [ {
          "system": "http://loinc.org",
          "code": "34133-9",
          "display": "Summarization of Episode Note"
        } ]
      },
      "category": [ {
        "coding": [ {
          "system": "http://hl7.org/fhir/ValueSet/doc-classcodes",
          "code": "LP173421-7",
          "display": "Note"
        } ]
      } ],
      "subject": {
        "reference": "Patient/f59e5cc3-06dc-4388-ab39-a70e11b8c0a5",
        "display": "Kim Woods"
      },
      "date": "2014-04-16T11:55:01+02:00",
      "author": [ {
        "reference": "Practitioner/443eae0d-06de-448d-a0c1-30b8beaf4950",
        "display": "Henry Seven MD"
      } ],
      "title": "Community Health and Hospitals: Health Summary",
      "confidentiality": "N",
      "attester": [ {
        "mode": "legal",
        "time": "2013-04-18T09:00:00+05:00",
        "party": {
          "reference": "Practitioner/a1882f34-ad3f-4679-84c1-a2412bc06d7d",
          "display": "Henry Seven"
        }
      }, {
        "mode": "professional",
        "time": "2014-04-16T11:55:01+02:00",
        "party": {
          "reference": "Practitioner/a1882f34-ad3f-4679-84c1-a2412bc06d7d",
          "display": "Henry Seven"
        }
      } ],
      "custodian": {
        "reference": "Organization/826a6c19-809b-42e9-8c5a-0131ed570ff5",
        "display": "Community Health and Hospitals"
      },
      "event": [ {
        "period": {
          "start": "2010-06-01T10:00:00+02:00",
          "end": "2010-08-05T10:00:00+02:00"
        },
        "detail": [ {
          "reference": "Practitioner/a50bcb7c-1ee9-400b-add1-a0e2931a8746",
          "display": "Henry Seven MD"
        } ]
      } ],
      "section": [ {
        "title": "Medications",
        "code": {
          "coding": [ {
            "system": "http://loinc.org",
            "code": "10160-0",
            "display": "History of Medication Use"
          } ]
        },
        "text": {
          "status": "additional",
          "div": "<div xmlns=\"http://www.w3.org/1999/xhtml\"><table><thead><tr><th>Group Description</th><th>Code System</th><th>Code</th><th>Code Description</th><th>Date and Time</th><th>Status</th></tr></thead><tbody><tr><td>ACE inhibitors</td><td>RxNorm</td><td>314076</td><td><span/>Lisinopril 10 MG Oral Tablet</td><td>06-01-2010 10:00:00</td><td>Active</td></tr></tbody></table></div>"
        },
        "mode": "snapshot",
        "entry": [ {
          "reference": "MedicationStatement/86255cd4-0b9f-49fe-a8e8-7633aba48703",
          "display": "Lisinopril 10 MG Oral Tablet"
        } ]
      }, {
        "title": "Vital Signs",
        "code": {
          "coding": [ {
            "system": "http://loinc.org",
            "code": "8716-3",
            "display": "Vital Signs"
          } ]
        },
        "text": {
          "status": "additional",
          "div": "<div xmlns=\"http://www.w3.org/1999/xhtml\"><table><thead><tr><th>Group Description</th><th>Code System</th><th>Code</th><th>Code Description</th><th>Value</th><th>Unit</th><th>Date and Time</th><th>Status</th></tr></thead><tbody><tr><td>BMI</td><td>LOINC</td><td>39156-5</td><td><span/>BMI</td><td>29.5</td><td>kg/m2</td><td>06-01-2010 10:00:00</td><td>Finding</td></tr><tr><td>Diastolic Blood Pressure</td><td>LOINC</td><td>8462-4</td><td><span/>BP Diastolic</td><td>70</td><td>mm[Hg]</td><td>06-01-2010 10:00:00</td><td>Finding</td></tr><tr><td>Heart Rate</td><td>LOINC</td><td>8867-4</td><td><span/>Heart Rate</td><td>72</td><td>/min</td><td>06-01-2010 10:00:00</td><td>Finding</td></tr><tr><td>Systolic Blood Pressure</td><td>LOINC</td><td>8480-6</td><td><span/>BP Systolic</td><td>120</td><td>mm[Hg]</td><td>06-01-2010 10:00:00</td><td>Finding</td></tr></tbody></table></div>"
        },
        "mode": "snapshot",
        "entry": [ {
          "reference": "Observation/416632aa-a94c-40db-ac0c-16c70e9601ba",
          "display": "Heart Rate"
        }, {
          "reference": "Observation/b6d6981f-d9c7-4091-834d-6fd236d69c89",
          "display": "BP Systolic"
        }, {
          "reference": "Observation/3031e35a-37e4-4e59-9c5f-d9751cf01d99",
          "display": "BP Diastolic"
        }, {
          "reference": "Observation/c6735da7-402b-4557-9430-73142ff7e0a2",
          "display": "BMI"
        } ]
      }, {
        "title": "Social History",
        "code": {
          "coding": [ {
            "system": "http://loinc.org",
            "code": "29762-2",
            "display": "Social History"
          } ]
        },
        "text": {
          "status": "additional",
          "div": "<div xmlns=\"http://www.w3.org/1999/xhtml\"><table><thead><tr><th>Group Description</th><th>Code System</th><th>Code</th><th>Code Description</th><th>Date and Time</th><th>Status</th></tr></thead><tbody><tr><td>Tobacco Use</td><td>SNOMED-CT</td><td>266919005</td><td><span/>Never smoker (Never Smoked)</td><td>06-01-2010 10:00:00</td><td>Active</td></tr><tr><td/><td>SNOMED-CT</td><td>449868002</td><td>Current every day smoker</td><td/><td/></tr></tbody></table></div>"
        },
        "mode": "snapshot",
        "entry": [ {
          "reference": "Observation/17227918-a0e5-42ab-b889-5a669181c27b"
        } ]
      }, {
        "title": "Procedures",
        "code": {
          "coding": [ {
            "system": "http://loinc.org",
            "code": "47519-4",
            "display": "HISTORY OF PROCEDURES"
          } ]
        },
        "text": {
          "status": "additional",
          "div": "<div xmlns=\"http://www.w3.org/1999/xhtml\"><table><thead><tr><th>Group Description</th><th>Code System</th><th>Code</th><th>Code Description</th><th>Date and Time</th><th>Status</th></tr></thead><tbody><tr><td>Breast Cancer Screening</td><td>CPT</td><td>77057</td><td><span/>Mammogram, screening</td><td>07-02-2010 10:00:00</td><td>Performed</td></tr><tr><td/><td>HCPCS</td><td>G0202</td><td>Screeningmammographydigital</td><td/><td/></tr><tr><td/><td>ICD-10-CM</td><td>Z12.31</td><td>Encounter for screening mammogram for malignant neoplasm of breast</td><td/><td/></tr><tr><td/><td>ICD-9-CM</td><td>V76.12</td><td>Other screening mammogram</td><td/><td/></tr><tr><td/><td>SNOMED-CT</td><td>24623002</td><td>Screening mammography</td><td/><td/></tr><tr><td>Counseling For Physical Activity</td><td>HCPCS</td><td>S9451</td><td><span/>Exercise class</td><td>07-05-2010 10:00:00</td><td>Performed</td></tr><tr><td/><td>ICD-10-CM</td><td>Z71.3</td><td>Dietary counseling and surveillance</td><td/><td/></tr><tr><td/><td>ICD-9-CM</td><td>V65.41</td><td>Exercise counseling</td><td/><td/></tr><tr><td>dietary consultation order</td><td>SNOMED-CT</td><td>103699006</td><td><span/>Patient referral to dietitian</td><td>07-05-2010 10:00:00</td><td>Performed</td></tr><tr><td>Radiation Therapy</td><td>CPT</td><td>77470</td><td><span/>Special radiation treatment</td><td>07-15-2010 10:00:00</td><td>Performed</td></tr><tr><td/><td>SNOMED-CT</td><td>108290001</td><td>Radiation oncology AND/OR radiotherapy</td><td/><td/></tr></tbody></table></div>"
        },
        "mode": "snapshot",
        "entry": [ {
          "reference": "Procedure/8bd7d0b5-861d-4b62-b2b3-04661ded708e",
          "display": "Special radiation treatment"
        } ]
      }, {
        "title": "Allergies,  Adverse Reactions & Alerts",
        "code": {
          "coding": [ {
            "system": "http://loinc.org",
            "code": "48765-2",
            "display": "Allergies, adverse reactions, alerts"
          } ]
        },
        "text": {
          "status": "additional",
          "div": "<div xmlns=\"http://www.w3.org/1999/xhtml\"><table><thead><tr><th>Group Description</th><th>Code System</th><th>Code</th><th>Code Description</th><th>Severity</th><th>Susceptibility</th><th>Date and Time</th><th>Status</th></tr></thead><tbody><tr><td>Allergy to Eggs</td><td>UNII</td><td>291P45F896</td><td><span/>Eggs</td><td><span/>Fatal</td><td>Susceptible</td><td>06-01-2010 10:00:00</td><td>Active</td></tr><tr><td/><td>ICD-9-CM</td><td>V15.03</td><td>Allergy to eggs</td><td/><td/><td/><td/></tr><tr><td>Fosfomycin</td><td>RxNorm</td><td>808917</td><td><span/>Fosfomycin 33.3 MG/ML Oral Suspension</td><td><span/>Fatal</td><td>Very susceptible</td><td>06-01-2010 10:00:00</td><td>Active</td></tr><tr><td>Penicillin V</td><td>NDF-RT</td><td>N0000011298</td><td><span/>Penicillin V</td><td><span/>Fatal</td><td>Very susceptible</td><td>06-01-2010 10:00:00</td><td>Active</td></tr></tbody></table></div>"
        },
        "mode": "snapshot",
        "entry": [ {
          "reference": "AllergyIntolerance/a2560c8b-c6fd-49ae-80fa-2b4c5e57844f",
          "display": "Penicillin V + Penicillin V"
        }, {
          "reference": "AllergyIntolerance/7e911dd1-2532-4598-bba2-675296ee4c21",
          "display": "Allergy to Eggs + Eggs"
        }, {
          "reference": "AllergyIntolerance/2046dda3-8616-470b-9939-6e03a2153bf2",
          "display": "Fosfomycin + Fosfomycin 33.3 MG/ML Oral Suspension"
        } ]
      }, {
        "title": "Problems",
        "code": {
          "coding": [ {
            "system": "http://loinc.org",
            "code": "11450-4",
            "display": "PROBLEM LIST"
          } ]
        },
        "text": {
          "status": "additional",
          "div": "<div xmlns=\"http://www.w3.org/1999/xhtml\"><table><thead><tr><th>Group Description</th><th>Code System</th><th>Code</th><th>Code Description</th><th>Date and Time</th><th>Status</th></tr></thead><tbody><tr><td>Hypertension</td><td>SNOMED-CT</td><td>59621000</td><td><span/>Essential hypertension</td><td>06-01-2010 10:00:00</td><td>Active</td></tr><tr><td/><td>ICD-10-CM</td><td>I10</td><td>Essential (primary) hypertension</td><td/><td/></tr><tr><td/><td>ICD-9-CM</td><td>401.9</td><td>Unspecified essential hypertension</td><td/><td/></tr><tr><td>Breast Cancer</td><td>SNOMED-CT</td><td>188161004</td><td><span/>Malignant neoplasm of female breast NOS</td><td>07-15-2010 10:00:00</td><td>Active</td></tr><tr><td/><td>ICD-10-CM</td><td>C50</td><td>Malignant neoplasm of breast</td><td/><td/></tr><tr><td/><td>ICD-9-CM</td><td>174.9</td><td>Malignant neoplasm of breast (female), unspecified</td><td/><td/></tr><tr><td>Breast Cancer ER or PR Positive</td><td>SNOMED-CT</td><td>417742002</td><td><span/>Hormone receptor positive tumor</td><td>07-15-2010 10:00:00</td><td>Active</td></tr><tr><td>Breast Cancer Stage IC-IIIC</td><td>SNOMED-CT</td><td>261653007</td><td><span/>Tumor stage T2c</td><td>07-15-2010 10:00:00</td><td>Active</td></tr></tbody></table></div>"
        },
        "mode": "snapshot",
        "entry": [ {
          "reference": "Condition/a6f9a52e-51cf-4106-88df-8a954c3cde9b",
          "display": "Malignant neoplasm of female breast NOS"
        } ]
      }, {
        "title": "Encounters",
        "code": {
          "coding": [ {
            "system": "http://loinc.org",
            "code": "46240-8",
            "display": "History of encounters"
          } ]
        },
        "text": {
          "status": "additional",
          "div": "<div xmlns=\"http://www.w3.org/1999/xhtml\"><table><thead><tr><th>Group Description</th><th>Code System</th><th>Code</th><th>Code Description</th><th>Date and Time</th><th>Status</th></tr></thead><tbody><tr><td>Encounter Outpatient</td><td>CPT</td><td>99213</td><td><span/>Office/outpatient visit, est</td><td>06-01-2010 10:00:00</td><td>Performed</td></tr><tr><td/><td>ICD-9-CM</td><td>V70.0</td><td>Routine general medical examination at a health care facility</td><td/><td/></tr><tr><td>Encounter Outpatient</td><td>CPT</td><td>99213</td><td><span/>Office/outpatient visit, est</td><td>07-02-2010 10:00:00</td><td>Performed</td></tr><tr><td/><td>ICD-9-CM</td><td>V70.0</td><td>Routine general medical examination at a health care facility</td><td/><td/></tr><tr><td>Encounter Office Visit</td><td>CPT</td><td>99212</td><td><span/>Office/outpatient visit, est</td><td>07-05-2010 10:00:00</td><td>Performed</td></tr><tr><td>Encounter Acute Inpt</td><td>CPT</td><td>99251</td><td><span/>Initial inpatient consult</td><td>07-15-2010 10:00:00</td><td>Performed</td></tr><tr><td>Encounter Inpatient Discharge</td><td>CPT</td><td>99238</td><td><span/>Hospital discharge day</td><td>07-18-2010 10:00:00</td><td>Performed</td></tr><tr><td>Encounter Outpatient</td><td>CPT</td><td>99213</td><td><span/>Office/outpatient visit, est</td><td>07-23-2010 10:00:00</td><td>Performed</td></tr><tr><td/><td>ICD-9-CM</td><td>V70.0</td><td>Routine general medical examination at a health care facility</td><td/><td/></tr><tr><td>Encounter Office Visit</td><td>CPT</td><td>99212</td><td><span/>Office/outpatient visit, est</td><td>08-05-2010 10:00:00</td><td>Performed</td></tr></tbody></table></div>"
        },
        "mode": "snapshot",
        "entry": [ {
          "reference": "Encounter/3de0040a-f3fe-47ad-86ac-d12ba8217c48",
          "display": "Initial inpatient consult"
        }, {
          "reference": "Encounter/6b8e4be2-861a-4f5f-85f1-195afebe4aea",
          "display": "Office/outpatient visit, est"
        }, {
          "reference": "Encounter/ba291b87-6f93-421a-bb6a-79b5d7117846",
          "display": "Office/outpatient visit, est"
        }, {
          "reference": "Encounter/4e6d0ec1-c061-43d6-be95-46dc27102873",
          "display": "Hospital discharge day"
        }, {
          "reference": "Encounter/ccd36ee5-dc28-42c1-a27a-86c2321752f9",
          "display": "Office/outpatient visit, est"
        }, {
          "reference": "Encounter/17ef38bd-e84a-43cc-87ee-b8c1c335164a",
          "display": "Office/outpatient visit, est"
        }, {
          "reference": "Encounter/899e4175-2b7a-499c-acd8-04325483c78e",
          "display": "Office/outpatient visit, est"
        } ]
      }, {
        "title": "Results",
        "code": {
          "coding": [ {
            "system": "http://loinc.org",
            "code": "30954-2",
            "display": "Results"
          } ]
        },
        "text": {
          "status": "additional",
          "div": "<div xmlns=\"http://www.w3.org/1999/xhtml\"><table><thead><tr><th>Group Description</th><th>Code System</th><th>Code</th><th>Code Description</th><th>Value</th><th>Unit</th><th>Reference Range</th><th>Date and Time</th><th>Status</th></tr></thead><tbody><tr><td>FOBT</td><td>LOINC</td><td>2335-8</td><td><span/>Hemoccult Stl Ql</td><td>negative</td><td/><td>NA</td><td>06-01-2010 10:00:00</td><td>Completed</td></tr><tr><td/><td>CPT</td><td>82274</td><td>Assay test for blood, fecal</td><td/><td/><td/><td/><td/></tr><tr><td/><td>HCPCS</td><td>G0328</td><td>Fecal blood scrn immunoassay</td><td/><td/><td/><td/><td/></tr><tr><td/><td>ICD-9-CM</td><td>V76.51</td><td>Special screening for malignant neoplasms of colon</td><td/><td/><td/><td/><td/></tr><tr><td/><td>SNOMED-CT</td><td>252156002</td><td>Occult blood screening</td><td/><td/><td/><td/><td/></tr><tr><td>Pap Test</td><td>LOINC</td><td>10524-7</td><td><span/>Cyto Cervix</td><td>normal</td><td/><td>NA</td><td>06-01-2010 10:00:00</td><td>Completed</td></tr><tr><td/><td>CPT</td><td>88174</td><td>Cytopath, c/v auto, in fluid</td><td/><td/><td/><td/><td/></tr><tr><td/><td>HCPCS</td><td>G0147</td><td>Scr c/v cyto, automated sys</td><td/><td/><td/><td/><td/></tr><tr><td/><td>ICD-10-CM</td><td>Z12.4</td><td>Encounter for screening for malignant neoplasm of cervix</td><td/><td/><td/><td/><td/></tr><tr><td/><td>ICD-9-CM</td><td>V72.32</td><td>Encounter for Papanicolaou cervical smear to confirm findings of recent normal smear following initial abnormal smear</td><td/><td/><td/><td/><td/></tr><tr><td/><td>SNOMED-CT</td><td>440623000</td><td>Microscopic examination of cervical Papanicolaou smear</td><td/><td/><td/><td/><td/></tr></tbody></table></div>"
        },
        "mode": "snapshot",
        "entry": [ {
          "reference": "DiagnosticReport/0d1cd595-9645-4e34-be74-3410347925ed",
          "display": "Cytology"
        }, {
          "reference": "DiagnosticReport/25a8589f-6499-4efc-b149-30889c5e8ad5",
          "display": "FOBT"
        } ]
      } ]
    }
  }, {
    "resource": {
      "resourceType": "Patient",
      "id": "f59e5cc3-06dc-4388-ab39-a70e11b8c0a5",
      "extension": [ {
        "url": "http://hl7.org/fhir/StructureDefinition/patient-religion",
        "valueCodeableConcept": {
          "coding": [ {
            "system": "urn:oid:2.16.840.1.113883.5.1076",
            "code": "1077",
            "display": "Protestant"
          } ]
        }
      }, {
        "url": "http://hl7.org/fhir/us/core/StructureDefinition/us-core-race",
        "extension": [ {
          "url": "text",
          "valueString": "Other Race"
        }, {
          "url": "ombCategory",
          "valueCoding": {
            "system": "urn:oid:2.16.840.1.113883.6.238",
            "code": "2131-1",
            "display": "Other Race"
          }
        } ]
      }, {
        "url": "http://hl7.org/fhir/us/core/StructureDefinition/us-core-ethnicity",
        "extension": [ {
          "url": "text",
          "valueString": "Hispanic or Latino"
        }, {
          "url": "ombCategory",
          "valueCoding": {
            "system": "urn:oid:2.16.840.1.113883.6.238",
            "code": "2135-2",
            "display": "Hispanic or Latino"
          }
        } ]
      }, {
        "url": "http://hl7.org/fhir/StructureDefinition/patient-birthPlace",
        "valueAddress": {
          "city": "Goleta",
          "state": "CA",
          "postalCode": "93117",
          "country": "US"
        }
      } ],
      "identifier": [ {
        "use": "official",
        "system": "urn:oid:2.16.840.1.113883.19.5.99999.2",
        "value": "998991"
      }, {
        "use": "official",
        "system": "urn:oid:2.16.840.1.113883.4.1",
        "value": "111-00-2330"
      } ],
      "name": [ {
        "use": "usual",
        "family": "Woods",
        "given": [ "Kim" ]
      } ],
      "telecom": [ {
        "system": "phone",
        "value": "(337)341-8527",
        "use": "mobile"
      } ],
      "gender": "female",
      "birthDate": "1951-06-06",
      "address": [ {
        "use": "home",
        "line": [ "758 Willow Oaks Lane" ],
        "city": "Lafayette",
        "state": "LA",
        "postalCode": "70501",
        "country": "US"
      } ],
      "maritalStatus": {
        "coding": [ {
          "system": "http://terminology.hl7.org/CodeSystem/v3-MaritalStatus",
          "code": "M",
          "display": "Married"
        } ]
      },
      "contact": [ {
        "relationship": [ {
          "coding": [ {
            "system": "http://terminology.hl7.org/CodeSystem/v2-0131",
            "code": "C",
            "display": "Emergency Contact"
          } ]
        } ],
        "name": {
          "family": "Garcia",
          "given": [ "Adam" ],
          "prefix": [ "Mr." ]
        },
        "telecom": [ {
          "system": "phone",
          "value": "(678)860-2919",
          "use": "home"
        }, {
          "system": "email",
          "value": "AdamAGarcia@gustr.com",
          "use": "work"
        } ],
        "address": {
          "use": "home",
          "line": [ "443 Mount Olive Road" ],
          "city": "Atlanta",
          "state": "GA",
          "postalCode": "30303",
          "country": "US"
        }
      } ],
      "communication": [ {
        "language": {
          "coding": [ {
            "system": "urn:ietf:bcp:47",
            "code": "spa"
          } ]
        },
        "preferred": true
      } ],
      "managingOrganization": {
        "reference": "Organization/118e63ba-1bb0-4fd0-879f-877cdee74948",
        "display": "Community Health and Hospitals"
      }
    }
  }, {
    "resource": {
      "resourceType": "Organization",
      "id": "118e63ba-1bb0-4fd0-879f-877cdee74948",
      "identifier": [ {
        "use": "official",
        "value": "2.16.840.1.113883.4.6"
      } ],
      "name": "Community Health and Hospitals",
      "telecom": [ {
        "system": "phone",
        "value": " 555-555-5000",
        "use": "work"
      } ],
      "address": [ {
        "line": [ "1001 Village Avenue" ],
        "city": "Portland",
        "state": "OR",
        "postalCode": "99123",
        "country": "US"
      } ]
    }
  }, {
    "resource": {
      "resourceType": "Practitioner",
      "id": "443eae0d-06de-448d-a0c1-30b8beaf4950",
      "identifier": [ {
        "use": "official",
        "system": "urn:oid:2.16.840.1.113883.4.6",
        "value": "99999999"
      } ],
      "name": [ {
        "family": "Seven",
        "given": [ "Henry" ],
        "suffix": [ "MD" ]
      } ],
      "telecom": [ {
        "system": "phone",
        "value": "555-555-1002",
        "use": "work"
      } ],
      "address": [ {
        "line": [ "1002 Healthcare Drive" ],
        "city": "Portland",
        "state": "OR",
        "postalCode": "99123",
        "country": "US"
      } ]
    }
  }, {
    "resource": {
      "resourceType": "Practitioner",
      "id": "a1882f34-ad3f-4679-84c1-a2412bc06d7d",
      "identifier": [ {
        "use": "official",
        "system": "http://hl7.org/fhir/sid/us-npi",
        "value": "999999999"
      } ],
      "name": [ {
        "family": "Seven",
        "given": [ "Henry" ]
      } ],
      "telecom": [ {
        "system": "phone",
        "value": "555-555-1002",
        "use": "work"
      } ],
      "address": [ {
        "line": [ "1001 Village Avenue" ],
        "city": "Portland",
        "state": "OR",
        "postalCode": "99123",
        "country": "US"
      } ]
    }
  }, {
    "resource": {
      "resourceType": "Practitioner",
      "id": "a50bcb7c-1ee9-400b-add1-a0e2931a8746",
      "identifier": [ {
        "use": "official",
        "system": "http://hl7.org/fhir/sid/us-npi",
        "value": "PseudoMD-1"
      } ],
      "name": [ {
        "family": "Seven",
        "given": [ "Henry" ],
        "suffix": [ "MD" ]
      } ],
      "telecom": [ {
        "system": "phone",
        "value": "+1-555-555-5000",
        "use": "home"
      } ],
      "address": [ {
        "line": [ "1001 Village Avenue" ],
        "city": "Portland",
        "state": "OR",
        "postalCode": "99123",
        "country": "US"
      } ]
    }
  }, {
    "resource": {
      "resourceType": "Organization",
      "id": "826a6c19-809b-42e9-8c5a-0131ed570ff5",
      "identifier": [ {
        "use": "official",
        "system": "urn:oid:2.16.840.1.113883.4.6",
        "value": "99999999"
      } ],
      "name": "Community Health and Hospitals",
      "telecom": [ {
        "system": "phone",
        "value": " 555-555-1002",
        "use": "work"
      } ],
      "address": [ {
        "use": "work",
        "line": [ "1002 Healthcare Drive" ],
        "city": "Portland",
        "state": "OR",
        "postalCode": "99123",
        "country": "US"
      } ]
    }
  }, {
    "resource": {
      "resourceType": "MedicationStatement",
      "id": "86255cd4-0b9f-49fe-a8e8-7633aba48703",
      "extension": [ {
        "url": "http://hl7.org/fhir/3.0/StructureDefinition/extension-MedicationStatement.status",
        "valueCode": "UNKNOWN"
      } ],
      "identifier": [ {
        "use": "official",
        "value": "cdbd33f0-6cde-11db-9fe1-0800200c9a66"
      } ],
      "status": "completed",
      "medicationReference": {
        "reference": "Medication/25c0085d-76bc-4fc7-b07e-8eec293d6e79",
        "display": "Lisinopril 10 MG Oral Tablet"
      },
      "subject": {
        "reference": "Patient/f59e5cc3-06dc-4388-ab39-a70e11b8c0a5",
        "display": "Kim Woods"
      },
      "effectivePeriod": {
        "start": "2010-06-01T10:00:00+02:00"
      }
    }
  }, {
    "resource": {
      "resourceType": "Medication",
      "id": "25c0085d-76bc-4fc7-b07e-8eec293d6e79",
      "code": {
        "coding": [ {
          "system": "http://www.nlm.nih.gov/research/umls/rxnorm",
          "code": "314076",
          "display": "Lisinopril 10 MG Oral Tablet"
        } ]
      }
    }
  }, {
    "resource": {
      "resourceType": "Observation",
      "id": "416632aa-a94c-40db-ac0c-16c70e9601ba",
      "identifier": [ {
        "use": "official",
        "value": "c6f88321-67ad-11db-bd13-0800200c9a66"
      } ],
      "status": "final",
      "category": [ {
        "coding": [ {
          "system": "http://terminology.hl7.org/CodeSystem/observation-category",
          "code": "vital-signs",
          "display": "Vital Signs"
        } ]
      } ],
      "code": {
        "coding": [ {
          "system": "http://loinc.org",
          "code": "8867-4",
          "display": "Heart Rate"
        } ]
      },
      "subject": {
        "reference": "Patient/f59e5cc3-06dc-4388-ab39-a70e11b8c0a5",
        "display": "Kim Woods"
      },
      "effectivePeriod": {
        "start": "2010-06-01T10:00:00+02:00"
      },
      "valueQuantity": {
        "value": 72,
        "unit": "/min",
        "system": "http://unitsofmeasure.org",
        "code": "/min"
      }
    }
  }, {
    "resource": {
      "resourceType": "Observation",
      "id": "b6d6981f-d9c7-4091-834d-6fd236d69c89",
      "identifier": [ {
        "use": "official",
        "value": "c6f88321-67ad-11db-bd13-0800200c9a66"
      } ],
      "status": "final",
      "category": [ {
        "coding": [ {
          "system": "http://terminology.hl7.org/CodeSystem/observation-category",
          "code": "vital-signs",
          "display": "Vital Signs"
        } ]
      } ],
      "code": {
        "coding": [ {
          "system": "http://loinc.org",
          "code": "8480-6",
          "display": "BP Systolic"
        } ]
      },
      "subject": {
        "reference": "Patient/f59e5cc3-06dc-4388-ab39-a70e11b8c0a5",
        "display": "Kim Woods"
      },
      "effectivePeriod": {
        "start": "2010-06-01T10:00:00+02:00"
      },
      "valueQuantity": {
        "value": 120,
        "unit": "mm[Hg]",
        "system": "http://unitsofmeasure.org",
        "code": "mm[Hg]"
      }
    }
  }, {
    "resource": {
      "resourceType": "Observation",
      "id": "3031e35a-37e4-4e59-9c5f-d9751cf01d99",
      "identifier": [ {
        "use": "official",
        "value": "c6f88321-67ad-11db-bd13-0800200c9a66"
      } ],
      "status": "final",
      "category": [ {
        "coding": [ {
          "system": "http://terminology.hl7.org/CodeSystem/observation-category",
          "code": "vital-signs",
          "display": "Vital Signs"
        } ]
      } ],
      "code": {
        "coding": [ {
          "system": "http://loinc.org",
          "code": "8462-4",
          "display": "BP Diastolic"
        } ]
      },
      "subject": {
        "reference": "Patient/f59e5cc3-06dc-4388-ab39-a70e11b8c0a5",
        "display": "Kim Woods"
      },
      "effectivePeriod": {
        "start": "2010-06-01T10:00:00+02:00"
      },
      "valueQuantity": {
        "value": 70,
        "unit": "mm[Hg]",
        "system": "http://unitsofmeasure.org",
        "code": "mm[Hg]"
      }
    }
  }, {
    "resource": {
      "resourceType": "Observation",
      "id": "c6735da7-402b-4557-9430-73142ff7e0a2",
      "identifier": [ {
        "use": "official",
        "value": "c6f88321-67ad-11db-bd13-0800200c9a66"
      } ],
      "status": "final",
      "category": [ {
        "coding": [ {
          "system": "http://terminology.hl7.org/CodeSystem/observation-category",
          "code": "vital-signs",
          "display": "Vital Signs"
        } ]
      } ],
      "code": {
        "coding": [ {
          "system": "http://loinc.org",
          "code": "39156-5",
          "display": "BMI"
        } ]
      },
      "subject": {
        "reference": "Patient/f59e5cc3-06dc-4388-ab39-a70e11b8c0a5",
        "display": "Kim Woods"
      },
      "effectivePeriod": {
        "start": "2010-06-01T10:00:00+02:00"
      },
      "valueQuantity": {
        "value": 29.5,
        "unit": "kg/m2",
        "system": "http://unitsofmeasure.org",
        "code": "kg/m2"
      }
    }
  }, {
    "resource": {
      "resourceType": "Observation",
      "id": "17227918-a0e5-42ab-b889-5a669181c27b",
      "identifier": [ {
        "use": "official",
        "system": "urn:oid:2.16.840.1.113883.19",
        "value": "123456789"
      } ],
      "status": "final",
      "code": {
        "coding": [ {
          "system": "urn:oid:2.16.840.1.113883.5.4",
          "code": "ASSERTION"
        } ]
      },
      "subject": {
        "reference": "Patient/f59e5cc3-06dc-4388-ab39-a70e11b8c0a5",
        "display": "Kim Woods"
      },
      "effectivePeriod": {
        "start": "2010-06-01T10:00:00+02:00"
      },
      "valueCodeableConcept": {
        "coding": [ {
          "system": "http://snomed.info/sct",
          "code": "266919005",
          "display": "Never smoker (Never Smoked)"
        }, {
          "system": "http://snomed.info/sct",
          "code": "449868002",
          "display": "Current every day smoker"
        } ]
      }
    }
  }, {
    "resource": {
      "resourceType": "Procedure",
      "id": "8bd7d0b5-861d-4b62-b2b3-04661ded708e",
      "identifier": [ {
        "use": "official",
        "value": "e401f340-7be2-11db-9fe1-0800200c9a66"
      } ],
      "status": "completed",
      "code": {
        "coding": [ {
          "system": "http://www.ama-assn.org/go/cpt",
          "code": "77470",
          "display": "Special radiation treatment"
        }, {
          "system": "http://snomed.info/sct",
          "code": "108290001",
          "display": "Radiation oncology AND/OR radiotherapy"
        } ]
      },
      "subject": {
        "reference": "Patient/f59e5cc3-06dc-4388-ab39-a70e11b8c0a5",
        "display": "Kim Woods"
      },
      "performedPeriod": {
        "start": "2010-07-15T10:00:00+02:00"
      }
    }
  }, {
    "resource": {
      "resourceType": "AllergyIntolerance",
      "id": "a2560c8b-c6fd-49ae-80fa-2b4c5e57844f",
      "identifier": [ {
        "use": "official",
        "value": "36e3e930-7b14-11db-9fe1-0800200c9a66"
      } ],
      "clinicalStatus": {
        "coding": [ {
          "system": "http://terminology.hl7.org/CodeSystem/allergyintolerance-clinical",
          "code": "active",
          "display": "Active"
        } ]
      },
      "verificationStatus": {
        "coding": [ {
          "system": "http://terminology.hl7.org/CodeSystem/allergyintolerance-verification",
          "code": "confirmed",
          "display": "Confirmed"
        } ]
      },
      "type": "allergy",
      "category": [ "medication" ],
      "code": {
        "coding": [ {
          "system": "urn:oid:2.16.840.1.113883.3.26.1.5",
          "code": "N0000011298",
          "display": "Penicillin V"
        } ],
        "text": "Penicillin V + Penicillin V"
      },
      "patient": {
        "reference": "Patient/f59e5cc3-06dc-4388-ab39-a70e11b8c0a5",
        "display": "Kim Woods"
      },
      "recordedDate": "2010-06-01T10:00:00+02:00"
    }
  }, {
    "resource": {
      "resourceType": "AllergyIntolerance",
      "id": "7e911dd1-2532-4598-bba2-675296ee4c21",
      "identifier": [ {
        "use": "official",
        "value": "36e3e930-7b14-11db-9fe1-0800200c9a66"
      } ],
      "clinicalStatus": {
        "coding": [ {
          "system": "http://terminology.hl7.org/CodeSystem/allergyintolerance-clinical",
          "code": "active",
          "display": "Active"
        } ]
      },
      "verificationStatus": {
        "coding": [ {
          "system": "http://terminology.hl7.org/CodeSystem/allergyintolerance-verification",
          "code": "confirmed",
          "display": "Confirmed"
        } ]
      },
      "type": "allergy",
      "category": [ "food" ],
      "code": {
        "coding": [ {
          "system": "http://fdasis.nlm.nih.gov",
          "code": "291P45F896",
          "display": "Eggs"
        }, {
          "system": "urn:oid:2.16.840.1.113883.6.103",
          "code": "V15.03",
          "display": "Allergy to eggs"
        } ],
        "text": "Allergy to Eggs + Eggs"
      },
      "patient": {
        "reference": "Patient/f59e5cc3-06dc-4388-ab39-a70e11b8c0a5",
        "display": "Kim Woods"
      },
      "recordedDate": "2010-06-01T10:00:00+02:00"
    }
  }, {
    "resource": {
      "resourceType": "AllergyIntolerance",
      "id": "2046dda3-8616-470b-9939-6e03a2153bf2",
      "identifier": [ {
        "use": "official",
        "value": "36e3e930-7b14-11db-9fe1-0800200c9a66"
      } ],
      "clinicalStatus": {
        "coding": [ {
          "system": "http://terminology.hl7.org/CodeSystem/allergyintolerance-clinical",
          "code": "active",
          "display": "Active"
        } ]
      },
      "verificationStatus": {
        "coding": [ {
          "system": "http://terminology.hl7.org/CodeSystem/allergyintolerance-verification",
          "code": "confirmed",
          "display": "Confirmed"
        } ]
      },
      "type": "allergy",
      "category": [ "medication" ],
      "code": {
        "coding": [ {
          "system": "http://www.nlm.nih.gov/research/umls/rxnorm",
          "code": "808917",
          "display": "Fosfomycin 33.3 MG/ML Oral Suspension"
        } ],
        "text": "Fosfomycin + Fosfomycin 33.3 MG/ML Oral Suspension"
      },
      "patient": {
        "reference": "Patient/f59e5cc3-06dc-4388-ab39-a70e11b8c0a5",
        "display": "Kim Woods"
      },
      "recordedDate": "2010-06-01T10:00:00+02:00"
    }
  }, {
    "resource": {
      "resourceType": "Condition",
      "id": "a6f9a52e-51cf-4106-88df-8a954c3cde9b",
      "identifier": [ {
        "use": "official",
        "value": "9d3d416d-45ab-4da1-912f-4583e0632000"
      } ],
      "clinicalStatus": {
        "coding": [ {
          "system": "http://terminology.hl7.org/CodeSystem/condition-clinical",
          "code": "active",
          "display": "Active"
        } ]
      },
      "verificationStatus": {
        "coding": [ {
          "system": "http://terminology.hl7.org/CodeSystem/condition-ver-status",
          "code": "confirmed",
          "display": "Confirmed"
        } ]
      },
      "category": [ {
        "coding": [ {
          "system": "http://terminology.hl7.org/CodeSystem/condition-category",
          "code": "problem-list-item",
          "display": "Problem List Item"
        } ]
      } ],
      "code": {
        "coding": [ {
          "system": "http://snomed.info/sct",
          "code": "188161004",
          "display": "Malignant neoplasm of female breast NOS"
        }, {
          "system": "urn:oid:2.16.840.1.113883.6.90",
          "code": "C50",
          "display": "Malignant neoplasm of breast"
        }, {
          "system": "urn:oid:2.16.840.1.113883.6.103",
          "code": "174.9",
          "display": "Malignant neoplasm of breast (female), unspecified"
        } ]
      },
      "subject": {
        "reference": "Patient/f59e5cc3-06dc-4388-ab39-a70e11b8c0a5",
        "display": "Kim Woods"
      },
      "onsetDateTime": "2010-07-15T10:00:00+02:00"
    }
  }, {
    "resource": {
      "resourceType": "Encounter",
      "id": "3de0040a-f3fe-47ad-86ac-d12ba8217c48",
      "identifier": [ {
        "use": "official",
        "value": "2a620155-9d11-439e-92b3-5d9815ff4de8"
      } ],
      "status": "finished",
      "type": [ {
        "coding": [ {
          "system": "http://www.ama-assn.org/go/cpt",
          "code": "99251",
          "display": "Initial inpatient consult"
        } ]
      } ],
      "subject": {
        "reference": "Patient/f59e5cc3-06dc-4388-ab39-a70e11b8c0a5",
        "display": "Kim Woods"
      },
      "period": {
        "start": "2010-07-15T10:00:00+02:00"
      },
      "reasonCode": [ {
        "coding": [ {
          "system": "http://snomed.info/sct",
          "code": "188161004",
          "display": "Breast Cancer"
        } ]
      }, {
        "coding": [ {
          "system": "http://snomed.info/sct",
          "code": "417742002",
          "display": "Breast Cancer ER or PR Positive"
        } ]
      }, {
        "coding": [ {
          "system": "http://snomed.info/sct",
          "code": "261653007",
          "display": "Breast Cancer Stage IC-IIIC"
        } ]
      } ],
      "reasonReference": [ {
        "reference": "Condition/bb8d9d98-74d9-4d35-97bf-2d038d453ed6",
        "display": "Breast Cancer Stage IC-IIIC"
      }, {
        "reference": "Condition/5eda360d-cc65-4152-b486-2476e9aea144",
        "display": "Breast Cancer"
      }, {
        "reference": "Condition/efc60eb5-045a-49a2-8c10-4b6e363549bf",
        "display": "Breast Cancer ER or PR Positive"
      } ]
    }
  }, {
    "resource": {
      "resourceType": "Condition",
      "id": "bb8d9d98-74d9-4d35-97bf-2d038d453ed6",
      "identifier": [ {
        "use": "official",
        "system": "urn:uuid:db734647-fc99-424c-a864-7e3cda82e703",
        "value": "45665"
      } ],
      "clinicalStatus": {
        "coding": [ {
          "system": "http://terminology.hl7.org/CodeSystem/condition-clinical",
          "code": "active",
          "display": "Active"
        } ]
      },
      "category": [ {
        "coding": [ {
          "system": "http://hl7.org/fhir/condition-category",
          "code": "encounter-diagnosis",
          "display": "Encounter Diagnosis"
        } ]
      } ],
      "code": {
        "coding": [ {
          "system": "http://snomed.info/sct",
          "code": "261653007",
          "display": "Breast Cancer Stage IC-IIIC"
        } ]
      },
      "subject": {
        "reference": "Patient/f59e5cc3-06dc-4388-ab39-a70e11b8c0a5",
        "display": "Kim Woods"
      },
      "onsetDateTime": "2010-07-15T10:00:00+02:00"
    }
  }, {
    "resource": {
      "resourceType": "Condition",
      "id": "5eda360d-cc65-4152-b486-2476e9aea144",
      "identifier": [ {
        "use": "official",
        "system": "urn:uuid:db734647-fc99-424c-a864-7e3cda82e703",
        "value": "45665"
      } ],
      "clinicalStatus": {
        "coding": [ {
          "system": "http://terminology.hl7.org/CodeSystem/condition-clinical",
          "code": "active",
          "display": "Active"
        } ]
      },
      "category": [ {
        "coding": [ {
          "system": "http://hl7.org/fhir/condition-category",
          "code": "encounter-diagnosis",
          "display": "Encounter Diagnosis"
        } ]
      } ],
      "code": {
        "coding": [ {
          "system": "http://snomed.info/sct",
          "code": "188161004",
          "display": "Breast Cancer"
        }, {
          "system": "urn:oid:2.16.840.1.113883.6.90",
          "code": "C50",
          "display": "Malignant neoplasm of breast"
        }, {
          "system": "urn:oid:2.16.840.1.113883.6.103",
          "code": "174.9",
          "display": "Malignant neoplasm of breast (female), unspecified"
        } ]
      },
      "subject": {
        "reference": "Patient/f59e5cc3-06dc-4388-ab39-a70e11b8c0a5",
        "display": "Kim Woods"
      },
      "onsetDateTime": "2010-07-15T10:00:00+02:00"
    }
  }, {
    "resource": {
      "resourceType": "Condition",
      "id": "efc60eb5-045a-49a2-8c10-4b6e363549bf",
      "identifier": [ {
        "use": "official",
        "system": "urn:uuid:db734647-fc99-424c-a864-7e3cda82e703",
        "value": "45665"
      } ],
      "clinicalStatus": {
        "coding": [ {
          "system": "http://terminology.hl7.org/CodeSystem/condition-clinical",
          "code": "active",
          "display": "Active"
        } ]
      },
      "category": [ {
        "coding": [ {
          "system": "http://hl7.org/fhir/condition-category",
          "code": "encounter-diagnosis",
          "display": "Encounter Diagnosis"
        } ]
      } ],
      "code": {
        "coding": [ {
          "system": "http://snomed.info/sct",
          "code": "417742002",
          "display": "Breast Cancer ER or PR Positive"
        } ]
      },
      "subject": {
        "reference": "Patient/f59e5cc3-06dc-4388-ab39-a70e11b8c0a5",
        "display": "Kim Woods"
      },
      "onsetDateTime": "2010-07-15T10:00:00+02:00"
    }
  }, {
    "resource": {
      "resourceType": "Encounter",
      "id": "6b8e4be2-861a-4f5f-85f1-195afebe4aea",
      "identifier": [ {
        "use": "official",
        "value": "2a620155-9d11-439e-92b3-5d9815ff4de8"
      } ],
      "status": "finished",
      "type": [ {
        "coding": [ {
          "system": "http://www.ama-assn.org/go/cpt",
          "code": "99213",
          "display": "Office/outpatient visit, est"
        }, {
          "system": "urn:oid:2.16.840.1.113883.6.103",
          "code": "V70.0",
          "display": "Routine general medical examination at a health care facility"
        } ]
      } ],
      "subject": {
        "reference": "Patient/f59e5cc3-06dc-4388-ab39-a70e11b8c0a5",
        "display": "Kim Woods"
      },
      "period": {
        "start": "2010-06-01T10:00:00+02:00"
      },
      "reasonCode": [ {
        "coding": [ {
          "system": "http://snomed.info/sct",
          "code": "59621000",
          "display": "Hypertension"
        } ]
      } ],
      "reasonReference": [ {
        "reference": "Condition/efc60eb5-045a-49a2-8c10-4b6e363549bf",
        "display": "Breast Cancer ER or PR Positive"
      } ]
    }
  }, {
    "resource": {
      "resourceType": "Encounter",
      "id": "ba291b87-6f93-421a-bb6a-79b5d7117846",
      "identifier": [ {
        "use": "official",
        "value": "2a620155-9d11-439e-92b3-5d9815ff4de8"
      } ],
      "status": "finished",
      "type": [ {
        "coding": [ {
          "system": "http://www.ama-assn.org/go/cpt",
          "code": "99213",
          "display": "Office/outpatient visit, est"
        }, {
          "system": "urn:oid:2.16.840.1.113883.6.103",
          "code": "V70.0",
          "display": "Routine general medical examination at a health care facility"
        } ]
      } ],
      "subject": {
        "reference": "Patient/f59e5cc3-06dc-4388-ab39-a70e11b8c0a5",
        "display": "Kim Woods"
      },
      "period": {
        "start": "2010-07-23T10:00:00+02:00"
      }
    }
  }, {
    "resource": {
      "resourceType": "Encounter",
      "id": "4e6d0ec1-c061-43d6-be95-46dc27102873",
      "identifier": [ {
        "use": "official",
        "value": "2a620155-9d11-439e-92b3-5d9815ff4de8"
      } ],
      "status": "finished",
      "type": [ {
        "coding": [ {
          "system": "http://www.ama-assn.org/go/cpt",
          "code": "99238",
          "display": "Hospital discharge day"
        } ]
      } ],
      "subject": {
        "reference": "Patient/f59e5cc3-06dc-4388-ab39-a70e11b8c0a5",
        "display": "Kim Woods"
      },
      "period": {
        "start": "2010-07-18T10:00:00+02:00"
      }
    }
  }, {
    "resource": {
      "resourceType": "Encounter",
      "id": "ccd36ee5-dc28-42c1-a27a-86c2321752f9",
      "identifier": [ {
        "use": "official",
        "value": "2a620155-9d11-439e-92b3-5d9815ff4de8"
      } ],
      "status": "finished",
      "type": [ {
        "coding": [ {
          "system": "http://www.ama-assn.org/go/cpt",
          "code": "99212",
          "display": "Office/outpatient visit, est"
        } ]
      } ],
      "subject": {
        "reference": "Patient/f59e5cc3-06dc-4388-ab39-a70e11b8c0a5",
        "display": "Kim Woods"
      },
      "period": {
        "start": "2010-08-05T10:00:00+02:00"
      }
    }
  }, {
    "resource": {
      "resourceType": "Encounter",
      "id": "17ef38bd-e84a-43cc-87ee-b8c1c335164a",
      "identifier": [ {
        "use": "official",
        "value": "2a620155-9d11-439e-92b3-5d9815ff4de8"
      } ],
      "status": "finished",
      "type": [ {
        "coding": [ {
          "system": "http://www.ama-assn.org/go/cpt",
          "code": "99212",
          "display": "Office/outpatient visit, est"
        } ]
      } ],
      "subject": {
        "reference": "Patient/f59e5cc3-06dc-4388-ab39-a70e11b8c0a5",
        "display": "Kim Woods"
      },
      "period": {
        "start": "2010-07-05T10:00:00+02:00"
      }
    }
  }, {
    "resource": {
      "resourceType": "Encounter",
      "id": "899e4175-2b7a-499c-acd8-04325483c78e",
      "identifier": [ {
        "use": "official",
        "value": "2a620155-9d11-439e-92b3-5d9815ff4de8"
      } ],
      "status": "finished",
      "type": [ {
        "coding": [ {
          "system": "http://www.ama-assn.org/go/cpt",
          "code": "99213",
          "display": "Office/outpatient visit, est"
        }, {
          "system": "urn:oid:2.16.840.1.113883.6.103",
          "code": "V70.0",
          "display": "Routine general medical examination at a health care facility"
        } ]
      } ],
      "subject": {
        "reference": "Patient/f59e5cc3-06dc-4388-ab39-a70e11b8c0a5",
        "display": "Kim Woods"
      },
      "period": {
        "start": "2010-07-02T10:00:00+02:00"
      }
    }
  }, {
    "resource": {
      "resourceType": "DiagnosticReport",
      "id": "0d1cd595-9645-4e34-be74-3410347925ed",
      "identifier": [ {
        "use": "official",
        "value": "7d5a02b0-67a4-11db-bd13-0800200c9a66"
      } ],
      "status": "final",
      "category": [ {
        "coding": [ {
          "system": "http://terminology.hl7.org/CodeSystem/v2-0074",
          "code": "LAB",
          "display": "Laboratory"
        } ]
      } ],
      "code": {
        "coding": [ {
          "system": "http://snomed.info/sct",
          "code": "116147009",
          "display": "Cytology"
        } ]
      },
      "subject": {
        "reference": "Patient/f59e5cc3-06dc-4388-ab39-a70e11b8c0a5",
        "display": "Kim Woods"
      },
      "result": [ {
        "reference": "Observation/8ef555d9-9bc1-42da-90bd-99e1fb45a3f7",
        "display": "Cyto Cervix"
      } ]
    }
  }, {
    "resource": {
      "resourceType": "Observation",
      "id": "8ef555d9-9bc1-42da-90bd-99e1fb45a3f7",
      "identifier": [ {
        "use": "official",
        "value": "107c2dc0-67a5-11db-bd13-0800200c9a66"
      } ],
      "status": "final",
      "category": [ {
        "coding": [ {
          "system": "http://terminology.hl7.org/CodeSystem/observation-category",
          "code": "laboratory"
        } ]
      } ],
      "code": {
        "coding": [ {
          "system": "http://loinc.org",
          "code": "10524-7",
          "display": "Cyto Cervix"
        }, {
          "system": "http://www.ama-assn.org/go/cpt",
          "code": "88174",
          "display": "Cytopath, c/v auto, in fluid"
        }, {
          "system": "urn:oid:2.16.840.1.113883.6.13",
          "code": "G0147",
          "display": "Scr c/v cyto, automated sys"
        }, {
          "system": "urn:oid:2.16.840.1.113883.6.90",
          "code": "Z12.4",
          "display": "Encounter for screening for malignant neoplasm of cervix"
        }, {
          "system": "urn:oid:2.16.840.1.113883.6.103",
          "code": "V72.32",
          "display": "Encounter for Papanicolaou cervical smear to confirm findings of recent normal smear following initial abnormal smear"
        }, {
          "system": "http://snomed.info/sct",
          "code": "440623000",
          "display": "Microscopic examination of cervical Papanicolaou smear"
        } ]
      },
      "subject": {
        "reference": "Patient/f59e5cc3-06dc-4388-ab39-a70e11b8c0a5",
        "display": "Kim Woods"
      },
      "effectivePeriod": {
        "start": "2010-06-01T10:00:00+02:00"
      },
      "valueCodeableConcept": {
        "coding": [ {
          "system": "http://snomed.info/sct",
          "code": "17621005",
          "display": "normal"
        } ]
      },
      "interpretation": [ {
        "coding": [ {
          "system": "http://terminology.hl7.org/CodeSystem/v3-ObservationInterpretation",
          "code": "N"
        } ]
      } ],
      "referenceRange": [ {
        "text": "NA"
      } ]
    }
  }, {
    "resource": {
      "resourceType": "DiagnosticReport",
      "id": "25a8589f-6499-4efc-b149-30889c5e8ad5",
      "identifier": [ {
        "use": "official",
        "value": "7d5a02b0-67a4-11db-bd13-0800200c9a66"
      } ],
      "status": "final",
      "category": [ {
        "coding": [ {
          "system": "http://terminology.hl7.org/CodeSystem/v2-0074",
          "code": "LAB",
          "display": "Laboratory"
        } ]
      } ],
      "code": {
        "coding": [ {
          "system": "http://snomed.info/sct",
          "code": "167670005",
          "display": "FOBT"
        } ]
      },
      "subject": {
        "reference": "Patient/f59e5cc3-06dc-4388-ab39-a70e11b8c0a5",
        "display": "Kim Woods"
      },
      "result": [ {
        "reference": "Observation/54cac9ca-7f3d-452e-b94d-19922343a19f",
        "display": "Hemoccult Stl Ql"
      } ]
    }
  }, {
    "resource": {
      "resourceType": "Observation",
      "id": "54cac9ca-7f3d-452e-b94d-19922343a19f",
      "identifier": [ {
        "use": "official",
        "value": "107c2dc0-67a5-11db-bd13-0800200c9a66"
      } ],
      "status": "final",
      "category": [ {
        "coding": [ {
          "system": "http://terminology.hl7.org/CodeSystem/observation-category",
          "code": "laboratory"
        } ]
      } ],
      "code": {
        "coding": [ {
          "system": "http://loinc.org",
          "code": "2335-8",
          "display": "Hemoccult Stl Ql"
        }, {
          "system": "http://www.ama-assn.org/go/cpt",
          "code": "82274",
          "display": "Assay test for blood, fecal"
        }, {
          "system": "urn:oid:2.16.840.1.113883.6.13",
          "code": "G0328",
          "display": "Fecal blood scrn immunoassay"
        }, {
          "system": "urn:oid:2.16.840.1.113883.6.103",
          "code": "V76.51",
          "display": "Special screening for malignant neoplasms of colon"
        }, {
          "system": "http://snomed.info/sct",
          "code": "252156002",
          "display": "Occult blood screening"
        } ]
      },
      "subject": {
        "reference": "Patient/f59e5cc3-06dc-4388-ab39-a70e11b8c0a5",
        "display": "Kim Woods"
      },
      "effectivePeriod": {
        "start": "2010-06-01T10:00:00+02:00"
      },
      "valueCodeableConcept": {
        "coding": [ {
          "system": "http://snomed.info/sct",
          "code": "260385009",
          "display": "negative"
        } ]
      },
      "interpretation": [ {
        "coding": [ {
          "system": "http://terminology.hl7.org/CodeSystem/v3-ObservationInterpretation",
          "code": "N"
        } ]
      } ],
      "referenceRange": [ {
        "text": "NA"
      } ]
    }
  } ]
}