{
  "resourceType": "Bundle",
  "entry": [ {
    "resource": {
      "resourceType": "Composition",
      "id": "f6101818-add8-4e0c-9631-d4d80aff82bb",
      "identifier": {
        "use": "official",
        "value": "db734647-fc99-424c-a864-7e3cda82e703"
      },
      "status": "preliminary",
      "type": {
        "coding": [ {
          "system": "http://loinc.org",
          "code": "34133-9",
          "display": "Summarization of Episode Note"
        } ]
      },
      "category": [ {
        "coding": [ {
          "system": "http://hl7.org/fhir/ValueSet/doc-classcodes",
          "code": "LP173421-7",
          "display": "Note"
        } ]
      } ],
      "subject": {
        "reference": "Patient/fe56a7f3-708c-4c0f-b709-02b55cf6010b",
        "display": "Carol Gilbert"
      },
      "date": "2014-04-16T11:55:18+02:00",
      "author": [ {
        "reference": "Practitioner/35b901ca-680f-4f68-a596-d22cfe48b6b9",
        "display": "Henry Seven MD"
      } ],
      "title": "Community Health and Hospitals: Health Summary",
      "confidentiality": "N",
      "attester": [ {
        "mode": "legal",
        "time": "2013-04-18T09:00:00+05:00",
        "party": {
          "reference": "Practitioner/1625c2ef-f5d8-4f6a-80e4-5c5a6c630a10",
          "display": "Henry Seven"
        }
      }, {
        "mode": "professional",
        "time": "2014-04-16T11:55:18+02:00",
        "party": {
          "reference": "Practitioner/1625c2ef-f5d8-4f6a-80e4-5c5a6c630a10",
          "display": "Henry Seven"
        }
      } ],
      "custodian": {
        "reference": "Organization/601965dc-69f8-4e92-895b-06ecb3ea019e",
        "display": "Community Health and Hospitals"
      },
      "event": [ {
        "period": {
          "start": "2009-02-13T10:00:00+01:00",
          "end": "2011-02-22T10:00:00+01:00"
        },
        "detail": [ {
          "reference": "Practitioner/6c81b724-1e2f-4e76-b851-cb424190b596",
          "display": "Henry Seven MD"
        } ]
      } ],
      "section": [ {
        "title": "Allergies,  Adverse Reactions & Alerts",
        "code": {
          "coding": [ {
            "system": "http://loinc.org",
            "code": "48765-2",
            "display": "Allergies, adverse reactions, alerts"
          } ]
        },
        "text": {
          "status": "additional",
          "div": "<div xmlns=\"http://www.w3.org/1999/xhtml\"><table><thead><tr><th>Group Description</th><th>Code System</th><th>Code</th><th>Code Description</th><th>Severity</th><th>Susceptibility</th><th>Date and Time</th><th>Status</th></tr></thead><tbody><tr><td>Allergy to Eggs</td><td>UNII</td><td>291P45F896</td><td><span/>Eggs</td><td><span/>Fatal</td><td>Moderately Susceptible</td><td>03-15-2009 10:00:00</td><td>Active</td></tr><tr><td/><td>ICD-9-CM</td><td>V15.03</td><td>Allergy to eggs</td><td/><td/><td/><td/></tr><tr><td>Amikacin</td><td>RxNorm</td><td>905148</td><td><span/>Amikacin Sulfate 50 MG/ML Injectable Solution</td><td><span/>Severe</td><td>Very susceptible</td><td>03-15-2009 10:00:00</td><td>Active</td></tr><tr><td>Tetracyclines</td><td>RxNorm</td><td>406524</td><td><span/>Doxycycline 75 MG Enteric Coated Tablet</td><td><span/>Moderate</td><td>Very susceptible</td><td>03-15-2009 10:00:00</td><td>Active</td></tr><tr><td/><td>NDF-RT</td><td>N0000006275</td><td>Tetracycline</td><td/><td/><td/><td/></tr></tbody></table></div>"
        },
        "mode": "snapshot",
        "entry": [ {
          "reference": "AllergyIntolerance/8b276be9-a5c3-4ed5-88cd-64f94e626b29",
          "display": "Amikacin + Amikacin Sulfate 50 MG/ML Injectable Solution"
        }, {
          "reference": "AllergyIntolerance/9c395088-3d0d-4b94-8104-08f7c0f41354",
          "display": "Allergy to Eggs + Eggs"
        }, {
          "reference": "AllergyIntolerance/a963f421-9062-48f0-b0dd-7e0ed02e6ed0",
          "display": "Tetracyclines + Doxycycline 75 MG Enteric Coated Tablet"
        } ]
      }, {
        "title": "Encounters",
        "code": {
          "coding": [ {
            "system": "http://loinc.org",
            "code": "46240-8",
            "display": "History of encounters"
          } ]
        },
        "text": {
          "status": "additional",
          "div": "<div xmlns=\"http://www.w3.org/1999/xhtml\"><table><thead><tr><th>Group Description</th><th>Code System</th><th>Code</th><th>Code Description</th><th>Date and Time</th><th>Status</th></tr></thead><tbody><tr><td>Encounter Outpatient-Children</td><td>ICD-10-CM</td><td>Z00.1</td><td><span/>Encounter for newborn, infant and child health examinations</td><td>03-15-2009 10:00:00</td><td>Performed</td></tr><tr><td>Encounter Outpatient-Children</td><td>ICD-10-CM</td><td>Z00.1</td><td><span/>Encounter for newborn, infant and child health examinations</td><td>04-17-2009 10:00:00</td><td>Performed</td></tr><tr><td>Encounter Outpatient-Children</td><td>ICD-10-CM</td><td>Z00.1</td><td><span/>Encounter for newborn, infant and child health examinations</td><td>06-19-2009 10:00:00</td><td>Performed</td></tr><tr><td>Encounter Outpatient-Children</td><td>ICD-10-CM</td><td>Z00.1</td><td><span/>Encounter for newborn, infant and child health examinations</td><td>08-21-2009 10:00:00</td><td>Performed</td></tr><tr><td>Encounter Outpatient-Children</td><td>ICD-10-CM</td><td>Z00.1</td><td><span/>Encounter for newborn, infant and child health examinations</td><td>02-15-2010 10:00:00</td><td>Performed</td></tr><tr><td>Encounter Outpatient-Children</td><td>ICD-10-CM</td><td>Z00.1</td><td><span/>Encounter for newborn, infant and child health examinations</td><td>05-15-2010 10:00:00</td><td>Performed</td></tr><tr><td>Encounter Outpatient-Children</td><td>ICD-10-CM</td><td>Z00.1</td><td><span/>Encounter for newborn, infant and child health examinations</td><td>08-16-2010 10:00:00</td><td>Performed</td></tr><tr><td>Encounter Outpatient-Children</td><td>ICD-10-CM</td><td>Z00.1</td><td><span/>Encounter for newborn, infant and child health examinations</td><td>02-22-2011 10:00:00</td><td>Performed</td></tr></tbody></table></div>"
        },
        "mode": "snapshot",
        "entry": [ {
          "reference": "Encounter/d7d7245c-b018-4671-aa42-298b84c9e8a0",
          "display": "Encounter for newborn, infant and child health examinations"
        }, {
          "reference": "Encounter/53ea779a-5cff-4964-91c9-e29a27857e50",
          "display": "Encounter for newborn, infant and child health examinations"
        }, {
          "reference": "Encounter/e47af35f-ef43-4cce-83fc-ef0942db7b94",
          "display": "Encounter for newborn, infant and child health examinations"
        }, {
          "reference": "Encounter/b53cfb9a-02f1-4028-b343-ef6918daeff2",
          "display": "Encounter for newborn, infant and child health examinations"
        }, {
          "reference": "Encounter/e03d1ac2-4812-42e5-a1fb-4998eb3856f7",
          "display": "Encounter for newborn, infant and child health examinations"
        }, {
          "reference": "Encounter/e07ba4ba-63d2-4ce6-b67f-4a447323a79c",
          "display": "Encounter for newborn, infant and child health examinations"
        }, {
          "reference": "Encounter/8b54404b-bcda-4a4a-acd3-1a1510419908",
          "display": "Encounter for newborn, infant and child health examinations"
        }, {
          "reference": "Encounter/7116a2da-7772-4dcc-8fdd-4c2a62987c7a",
          "display": "Encounter for newborn, infant and child health examinations"
        } ]
      }, {
        "title": "Results",
        "code": {
          "coding": [ {
            "system": "http://loinc.org",
            "code": "30954-2",
            "display": "Results"
          } ]
        },
        "text": {
          "status": "additional",
          "div": "<div xmlns=\"http://www.w3.org/1999/xhtml\"><table><thead><tr><th>Group Description</th><th>Code System</th><th>Code</th><th>Code Description</th><th>Value</th><th>Unit</th><th>Date and Time</th><th>Status</th></tr></thead><tbody><tr><td>No data</td></tr></tbody></table></div>"
        },
        "mode": "snapshot"
      }, {
        "title": "Social History",
        "code": {
          "coding": [ {
            "system": "http://loinc.org",
            "code": "29762-2",
            "display": "Social History"
          } ]
        },
        "text": {
          "status": "additional",
          "div": "<div xmlns=\"http://www.w3.org/1999/xhtml\"><table><thead><tr><th>Group Description</th><th>Code System</th><th>Code</th><th>Code Description</th><th>Date and Time</th><th>Status</th></tr></thead><tbody><tr><td>No data</td></tr></tbody></table></div>"
        },
        "mode": "snapshot"
      }, {
        "title": "Problems",
        "code": {
          "coding": [ {
            "system": "http://loinc.org",
            "code": "11450-4",
            "display": "PROBLEM LIST"
          } ]
        },
        "text": {
          "status": "additional",
          "div": "<div xmlns=\"http://www.w3.org/1999/xhtml\"><table><thead><tr><th>Group Description</th><th>Code System</th><th>Code</th><th>Code Description</th><th>Date and Time</th><th>Status</th></tr></thead><tbody><tr><td>No data</td></tr></tbody></table></div>"
        },
        "mode": "snapshot"
      }, {
        "title": "Procedures",
        "code": {
          "coding": [ {
            "system": "http://loinc.org",
            "code": "47519-4",
            "display": "HISTORY OF PROCEDURES"
          } ]
        },
        "text": {
          "status": "additional",
          "div": "<div xmlns=\"http://www.w3.org/1999/xhtml\"><table><thead><tr><th>Group Description</th><th>Code System</th><th>Code</th><th>Code Description</th><th>Date and Time</th><th>Status</th></tr></thead><tbody><tr><td>No data</td></tr></tbody></table></div>"
        },
        "mode": "snapshot"
      }, {
        "title": "Vital Signs",
        "code": {
          "coding": [ {
            "system": "http://loinc.org",
            "code": "8716-3",
            "display": "Vital Signs"
          } ]
        },
        "text": {
          "status": "additional",
          "div": "<div xmlns=\"http://www.w3.org/1999/xhtml\"><table><thead><tr><th>Group Description</th><th>Code System</th><th>Code</th><th>Code Description</th><th>Value</th><th>Unit</th><th>Date and Time</th><th>Status</th></tr></thead><tbody><tr><td>BMI</td><td>LOINC</td><td>39156-5</td><td><span/>BMI</td><td>13.9</td><td>kg/m2</td><td>03-15-2009 10:00:00</td><td>Finding</td></tr><tr><td>BMI</td><td>LOINC</td><td>39156-5</td><td><span/>BMI</td><td>14.5</td><td>kg/m2</td><td>04-17-2009 10:00:00</td><td>Finding</td></tr><tr><td>BMI</td><td>LOINC</td><td>39156-5</td><td><span/>BMI</td><td>12.6</td><td>kg/m2</td><td>06-19-2009 10:00:00</td><td>Finding</td></tr><tr><td>BMI</td><td>LOINC</td><td>39156-5</td><td><span/>BMI</td><td>15.7</td><td>kg/m2</td><td>08-21-2009 10:00:00</td><td>Finding</td></tr><tr><td>BMI</td><td>LOINC</td><td>39156-5</td><td><span/>BMI</td><td>19.8</td><td>kg/m2</td><td>02-15-2010 10:00:00</td><td>Finding</td></tr><tr><td>BMI</td><td>LOINC</td><td>39156-5</td><td><span/>BMI</td><td>18.7</td><td>kg/m2</td><td>05-15-2010 10:00:00</td><td>Finding</td></tr><tr><td>BMI</td><td>LOINC</td><td>39156-5</td><td><span/>BMI</td><td>19.2</td><td>kg/m2</td><td>08-16-2010 10:00:00</td><td>Finding</td></tr><tr><td>BMI</td><td>LOINC</td><td>39156-5</td><td><span/>BMI</td><td>16.1</td><td>kg/m2</td><td>02-22-2011 10:00:00</td><td>Finding</td></tr></tbody></table></div>"
        },
        "mode": "snapshot",
        "entry": [ {
          "reference": "Observation/dc784661-d791-4e1d-a49a-4844ead3308f",
          "display": "BMI"
        }, {
          "reference": "Observation/2fe8475e-9cd4-4379-b627-2d8a6c7e29b6",
          "display": "BMI"
        }, {
          "reference": "Observation/a561f2cd-e685-46be-9923-35c1ee9fe9b3",
          "display": "BMI"
        }, {
          "reference": "Observation/a55489ca-d6ca-45a5-a2bd-6bac5b17d80c",
          "display": "BMI"
        }, {
          "reference": "Observation/9a448f88-86c5-45af-8658-dddfdf419c2f",
          "display": "BMI"
        }, {
          "reference": "Observation/0e0368fc-2275-4246-ad29-1e348847d799",
          "display": "BMI"
        }, {
          "reference": "Observation/98bdc168-7d48-48b3-b4ab-c959be3d4675",
          "display": "BMI"
        }, {
          "reference": "Observation/df239a92-69aa-414e-889d-cb0932d962c9",
          "display": "BMI"
        } ]
      }, {
        "title": "Medications",
        "code": {
          "coding": [ {
            "system": "http://loinc.org",
            "code": "10160-0",
            "display": "History of Medication Use"
          } ]
        },
        "text": {
          "status": "additional",
          "div": "<div xmlns=\"http://www.w3.org/1999/xhtml\"><table><thead><tr><th>Group Description</th><th>Code System</th><th>Code</th><th>Code Description</th><th>Date and Time</th><th>Status</th></tr></thead><tbody><tr><td>No Information</td></tr></tbody></table></div>"
        },
        "mode": "snapshot"
      } ]
    }
  }, {
    "resource": {
      "resourceType": "Patient",
      "id": "fe56a7f3-708c-4c0f-b709-02b55cf6010b",
      "extension": [ {
        "url": "http://hl7.org/fhir/StructureDefinition/patient-religion",
        "valueCodeableConcept": {
          "coding": [ {
            "system": "urn:oid:2.16.840.1.113883.5.1076",
            "code": "1020",
            "display": "Hinduism"
          } ]
        }
      }, {
        "url": "http://hl7.org/fhir/us/core/StructureDefinition/us-core-race",
        "extension": [ {
          "url": "text",
          "valueString": "White"
        }, {
          "url": "ombCategory",
          "valueCoding": {
            "system": "urn:oid:2.16.840.1.113883.6.238",
            "code": "2106-3",
            "display": "White"
          }
        } ]
      }, {
        "url": "http://hl7.org/fhir/us/core/StructureDefinition/us-core-ethnicity",
        "extension": [ {
          "url": "text",
          "valueString": "Not Hispanic or Latino"
        }, {
          "url": "ombCategory",
          "valueCoding": {
            "system": "urn:oid:2.16.840.1.113883.6.238",
            "code": "2186-5",
            "display": "Not Hispanic or Latino"
          }
        } ]
      }, {
        "url": "http://hl7.org/fhir/StructureDefinition/patient-birthPlace",
        "valueAddress": {
          "city": "Dahlen",
          "state": "ND",
          "postalCode": "58224",
          "country": "US"
        }
      } ],
      "identifier": [ {
        "use": "official",
        "system": "urn:oid:2.16.840.1.113883.19.5.99999.2",
        "value": "998991"
      }, {
        "use": "official",
        "system": "urn:oid:2.16.840.1.113883.4.1",
        "value": "111-00-2330"
      } ],
      "name": [ {
        "use": "usual",
        "family": "Gilbert",
        "given": [ "Carol" ]
      } ],
      "telecom": [ {
        "system": "phone",
        "value": "(931)474-9191",
        "use": "mobile"
      } ],
      "gender": "female",
      "birthDate": "2009-02-11",
      "address": [ {
        "use": "home",
        "line": [ "1558 Chenoweth Drive" ],
        "city": "Mc Minnville",
        "state": "TN",
        "postalCode": "37110",
        "country": "US"
      } ],
      "maritalStatus": {
        "coding": [ {
          "system": "http://terminology.hl7.org/CodeSystem/v3-MaritalStatus",
          "code": "S",
          "display": "Never Married"
        } ]
      },
      "contact": [ {
        "relationship": [ {
          "coding": [ {
            "system": "http://terminology.hl7.org/CodeSystem/v2-0131",
            "code": "C",
            "display": "Emergency Contact"
          } ]
        } ],
        "name": {
          "family": "Chapman",
          "given": [ "Herbert" ],
          "prefix": [ "Mr." ]
        },
        "telecom": [ {
          "system": "phone",
          "value": "(956)623-9727",
          "use": "home"
        }, {
          "system": "email",
          "value": "HerbertJChapman@fleckens.hu",
          "use": "work"
        } ],
        "address": {
          "use": "home",
          "line": [ "4566 Adamsville Road" ],
          "city": "Mcallen",
          "state": "TX",
          "postalCode": "78501",
          "country": "US"
        }
      } ],
      "communication": [ {
        "language": {
          "coding": [ {
            "system": "urn:ietf:bcp:47",
            "code": "spa"
          } ]
        },
        "preferred": true
      } ],
      "managingOrganization": {
        "reference": "Organization/9fbca01c-736e-4e4b-83e7-8b9b3b8f5c4c",
        "display": "Community Health and Hospitals"
      }
    }
  }, {
    "resource": {
      "resourceType": "Organization",
      "id": "9fbca01c-736e-4e4b-83e7-8b9b3b8f5c4c",
      "identifier": [ {
        "use": "official",
        "value": "2.16.840.1.113883.4.6"
      } ],
      "name": "Community Health and Hospitals",
      "telecom": [ {
        "system": "phone",
        "value": " 555-555-5000",
        "use": "work"
      } ],
      "address": [ {
        "line": [ "1001 Village Avenue" ],
        "city": "Portland",
        "state": "OR",
        "postalCode": "99123",
        "country": "US"
      } ]
    }
  }, {
    "resource": {
      "resourceType": "Practitioner",
      "id": "35b901ca-680f-4f68-a596-d22cfe48b6b9",
      "identifier": [ {
        "use": "official",
        "system": "urn:oid:2.16.840.1.113883.4.6",
        "value": "99999999"
      } ],
      "name": [ {
        "family": "Seven",
        "given": [ "Henry" ],
        "suffix": [ "MD" ]
      } ],
      "telecom": [ {
        "system": "phone",
        "value": "555-555-1002",
        "use": "work"
      } ],
      "address": [ {
        "line": [ "1002 Healthcare Drive" ],
        "city": "Portland",
        "state": "OR",
        "postalCode": "99123",
        "country": "US"
      } ]
    }
  }, {
    "resource": {
      "resourceType": "Practitioner",
      "id": "1625c2ef-f5d8-4f6a-80e4-5c5a6c630a10",
      "identifier": [ {
        "use": "official",
        "system": "http://hl7.org/fhir/sid/us-npi",
        "value": "999999999"
      } ],
      "name": [ {
        "family": "Seven",
        "given": [ "Henry" ]
      } ],
      "telecom": [ {
        "system": "phone",
        "value": "555-555-1002",
        "use": "work"
      } ],
      "address": [ {
        "line": [ "1001 Village Avenue" ],
        "city": "Portland",
        "state": "OR",
        "postalCode": "99123",
        "country": "US"
      } ]
    }
  }, {
    "resource": {
      "resourceType": "Practitioner",
      "id": "6c81b724-1e2f-4e76-b851-cb424190b596",
      "identifier": [ {
        "use": "official",
        "system": "http://hl7.org/fhir/sid/us-npi",
        "value": "PseudoMD-1"
      } ],
      "name": [ {
        "family": "Seven",
        "given": [ "Henry" ],
        "suffix": [ "MD" ]
      } ],
      "telecom": [ {
        "system": "phone",
        "value": "+1-555-555-5000",
        "use": "home"
      } ],
      "address": [ {
        "line": [ "1001 Village Avenue" ],
        "city": "Portland",
        "state": "OR",
        "postalCode": "99123",
        "country": "US"
      } ]
    }
  }, {
    "resource": {
      "resourceType": "Organization",
      "id": "601965dc-69f8-4e92-895b-06ecb3ea019e",
      "identifier": [ {
        "use": "official",
        "system": "urn:oid:2.16.840.1.113883.4.6",
        "value": "99999999"
      } ],
      "name": "Community Health and Hospitals",
      "telecom": [ {
        "system": "phone",
        "value": " 555-555-1002",
        "use": "work"
      } ],
      "address": [ {
        "use": "work",
        "line": [ "1002 Healthcare Drive" ],
        "city": "Portland",
        "state": "OR",
        "postalCode": "99123",
        "country": "US"
      } ]
    }
  }, {
    "resource": {
      "resourceType": "AllergyIntolerance",
      "id": "8b276be9-a5c3-4ed5-88cd-64f94e626b29",
      "identifier": [ {
        "use": "official",
        "value": "36e3e930-7b14-11db-9fe1-0800200c9a66"
      } ],
      "clinicalStatus": {
        "coding": [ {
          "system": "http://terminology.hl7.org/CodeSystem/allergyintolerance-clinical",
          "code": "active",
          "display": "Active"
        } ]
      },
      "verificationStatus": {
        "coding": [ {
          "system": "http://terminology.hl7.org/CodeSystem/allergyintolerance-verification",
          "code": "confirmed",
          "display": "Confirmed"
        } ]
      },
      "type": "allergy",
      "category": [ "medication" ],
      "code": {
        "coding": [ {
          "system": "http://www.nlm.nih.gov/research/umls/rxnorm",
          "code": "905148",
          "display": "Amikacin Sulfate 50 MG/ML Injectable Solution"
        } ],
        "text": "Amikacin + Amikacin Sulfate 50 MG/ML Injectable Solution"
      },
      "patient": {
        "reference": "Patient/fe56a7f3-708c-4c0f-b709-02b55cf6010b",
        "display": "Carol Gilbert"
      },
      "recordedDate": "2009-03-15T10:00:00+01:00"
    }
  }, {
    "resource": {
      "resourceType": "AllergyIntolerance",
      "id": "9c395088-3d0d-4b94-8104-08f7c0f41354",
      "identifier": [ {
        "use": "official",
        "value": "36e3e930-7b14-11db-9fe1-0800200c9a66"
      } ],
      "clinicalStatus": {
        "coding": [ {
          "system": "http://terminology.hl7.org/CodeSystem/allergyintolerance-clinical",
          "code": "active",
          "display": "Active"
        } ]
      },
      "verificationStatus": {
        "coding": [ {
          "system": "http://terminology.hl7.org/CodeSystem/allergyintolerance-verification",
          "code": "confirmed",
          "display": "Confirmed"
        } ]
      },
      "type": "allergy",
      "category": [ "food" ],
      "code": {
        "coding": [ {
          "system": "http://fdasis.nlm.nih.gov",
          "code": "291P45F896",
          "display": "Eggs"
        }, {
          "system": "urn:oid:2.16.840.1.113883.6.103",
          "code": "V15.03",
          "display": "Allergy to eggs"
        } ],
        "text": "Allergy to Eggs + Eggs"
      },
      "patient": {
        "reference": "Patient/fe56a7f3-708c-4c0f-b709-02b55cf6010b",
        "display": "Carol Gilbert"
      },
      "recordedDate": "2009-03-15T10:00:00+01:00"
    }
  }, {
    "resource": {
      "resourceType": "AllergyIntolerance",
      "id": "a963f421-9062-48f0-b0dd-7e0ed02e6ed0",
      "identifier": [ {
        "use": "official",
        "value": "36e3e930-7b14-11db-9fe1-0800200c9a66"
      } ],
      "clinicalStatus": {
        "coding": [ {
          "system": "http://terminology.hl7.org/CodeSystem/allergyintolerance-clinical",
          "code": "active",
          "display": "Active"
        } ]
      },
      "verificationStatus": {
        "coding": [ {
          "system": "http://terminology.hl7.org/CodeSystem/allergyintolerance-verification",
          "code": "confirmed",
          "display": "Confirmed"
        } ]
      },
      "type": "allergy",
      "category": [ "medication" ],
      "code": {
        "coding": [ {
          "system": "http://www.nlm.nih.gov/research/umls/rxnorm",
          "code": "406524",
          "display": "Doxycycline 75 MG Enteric Coated Tablet"
        }, {
          "system": "urn:oid:2.16.840.1.113883.3.26.1.5",
          "code": "N0000006275",
          "display": "Tetracycline"
        } ],
        "text": "Tetracyclines + Doxycycline 75 MG Enteric Coated Tablet"
      },
      "patient": {
        "reference": "Patient/fe56a7f3-708c-4c0f-b709-02b55cf6010b",
        "display": "Carol Gilbert"
      },
      "recordedDate": "2009-03-15T10:00:00+01:00"
    }
  }, {
    "resource": {
      "resourceType": "Encounter",
      "id": "d7d7245c-b018-4671-aa42-298b84c9e8a0",
      "identifier": [ {
        "use": "official",
        "value": "2a620155-9d11-439e-92b3-5d9815ff4de8"
      } ],
      "status": "finished",
      "type": [ {
        "coding": [ {
          "system": "urn:oid:2.16.840.1.113883.6.90",
          "code": "Z00.1",
          "display": "Encounter for newborn, infant and child health examinations"
        } ]
      } ],
      "subject": {
        "reference": "Patient/fe56a7f3-708c-4c0f-b709-02b55cf6010b",
        "display": "Carol Gilbert"
      },
      "period": {
        "start": "2011-02-22T10:00:00+01:00"
      }
    }
  }, {
    "resource": {
      "resourceType": "Encounter",
      "id": "53ea779a-5cff-4964-91c9-e29a27857e50",
      "identifier": [ {
        "use": "official",
        "value": "2a620155-9d11-439e-92b3-5d9815ff4de8"
      } ],
      "status": "finished",
      "type": [ {
        "coding": [ {
          "system": "urn:oid:2.16.840.1.113883.6.90",
          "code": "Z00.1",
          "display": "Encounter for newborn, infant and child health examinations"
        } ]
      } ],
      "subject": {
        "reference": "Patient/fe56a7f3-708c-4c0f-b709-02b55cf6010b",
        "display": "Carol Gilbert"
      },
      "period": {
        "start": "2010-02-15T10:00:00+01:00"
      }
    }
  }, {
    "resource": {
      "resourceType": "Encounter",
      "id": "e47af35f-ef43-4cce-83fc-ef0942db7b94",
      "identifier": [ {
        "use": "official",
        "value": "2a620155-9d11-439e-92b3-5d9815ff4de8"
      } ],
      "status": "finished",
      "type": [ {
        "coding": [ {
          "system": "urn:oid:2.16.840.1.113883.6.90",
          "code": "Z00.1",
          "display": "Encounter for newborn, infant and child health examinations"
        } ]
      } ],
      "subject": {
        "reference": "Patient/fe56a7f3-708c-4c0f-b709-02b55cf6010b",
        "display": "Carol Gilbert"
      },
      "period": {
        "start": "2010-08-16T10:00:00+02:00"
      }
    }
  }, {
    "resource": {
      "resourceType": "Encounter",
      "id": "b53cfb9a-02f1-4028-b343-ef6918daeff2",
      "identifier": [ {
        "use": "official",
        "value": "2a620155-9d11-439e-92b3-5d9815ff4de8"
      } ],
      "status": "finished",
      "type": [ {
        "coding": [ {
          "system": "urn:oid:2.16.840.1.113883.6.90",
          "code": "Z00.1",
          "display": "Encounter for newborn, infant and child health examinations"
        } ]
      } ],
      "subject": {
        "reference": "Patient/fe56a7f3-708c-4c0f-b709-02b55cf6010b",
        "display": "Carol Gilbert"
      },
      "period": {
        "start": "2010-05-15T10:00:00+02:00"
      }
    }
  }, {
    "resource": {
      "resourceType": "Encounter",
      "id": "e03d1ac2-4812-42e5-a1fb-4998eb3856f7",
      "identifier": [ {
        "use": "official",
        "value": "2a620155-9d11-439e-92b3-5d9815ff4de8"
      } ],
      "status": "finished",
      "type": [ {
        "coding": [ {
          "system": "urn:oid:2.16.840.1.113883.6.90",
          "code": "Z00.1",
          "display": "Encounter for newborn, infant and child health examinations"
        } ]
      } ],
      "subject": {
        "reference": "Patient/fe56a7f3-708c-4c0f-b709-02b55cf6010b",
        "display": "Carol Gilbert"
      },
      "period": {
        "start": "2009-06-19T10:00:00+02:00"
      }
    }
  }, {
    "resource": {
      "resourceType": "Encounter",
      "id": "e07ba4ba-63d2-4ce6-b67f-4a447323a79c",
      "identifier": [ {
        "use": "official",
        "value": "2a620155-9d11-439e-92b3-5d9815ff4de8"
      } ],
      "status": "finished",
      "type": [ {
        "coding": [ {
          "system": "urn:oid:2.16.840.1.113883.6.90",
          "code": "Z00.1",
          "display": "Encounter for newborn, infant and child health examinations"
        } ]
      } ],
      "subject": {
        "reference": "Patient/fe56a7f3-708c-4c0f-b709-02b55cf6010b",
        "display": "Carol Gilbert"
      },
      "period": {
        "start": "2009-04-17T10:00:00+02:00"
      }
    }
  }, {
    "resource": {
      "resourceType": "Encounter",
      "id": "8b54404b-bcda-4a4a-acd3-1a1510419908",
      "identifier": [ {
        "use": "official",
        "value": "2a620155-9d11-439e-92b3-5d9815ff4de8"
      } ],
      "status": "finished",
      "type": [ {
        "coding": [ {
          "system": "urn:oid:2.16.840.1.113883.6.90",
          "code": "Z00.1",
          "display": "Encounter for newborn, infant and child health examinations"
        } ]
      } ],
      "subject": {
        "reference": "Patient/fe56a7f3-708c-4c0f-b709-02b55cf6010b",
        "display": "Carol Gilbert"
      },
      "period": {
        "start": "2009-03-15T10:00:00+01:00"
      }
    }
  }, {
    "resource": {
      "resourceType": "Encounter",
      "id": "7116a2da-7772-4dcc-8fdd-4c2a62987c7a",
      "identifier": [ {
        "use": "official",
        "value": "2a620155-9d11-439e-92b3-5d9815ff4de8"
      } ],
      "status": "finished",
      "type": [ {
        "coding": [ {
          "system": "urn:oid:2.16.840.1.113883.6.90",
          "code": "Z00.1",
          "display": "Encounter for newborn, infant and child health examinations"
        } ]
      } ],
      "subject": {
        "reference": "Patient/fe56a7f3-708c-4c0f-b709-02b55cf6010b",
        "display": "Carol Gilbert"
      },
      "period": {
        "start": "2009-08-21T10:00:00+02:00"
      }
    }
  }, {
    "resource": {
      "resourceType": "Observation",
      "id": "dc784661-d791-4e1d-a49a-4844ead3308f",
      "identifier": [ {
        "use": "official",
        "value": "c6f88321-67ad-11db-bd13-0800200c9a66"
      } ],
      "status": "final",
      "category": [ {
        "coding": [ {
          "system": "http://terminology.hl7.org/CodeSystem/observation-category",
          "code": "vital-signs",
          "display": "Vital Signs"
        } ]
      } ],
      "code": {
        "coding": [ {
          "system": "http://loinc.org",
          "code": "39156-5",
          "display": "BMI"
        } ]
      },
      "subject": {
        "reference": "Patient/fe56a7f3-708c-4c0f-b709-02b55cf6010b",
        "display": "Carol Gilbert"
      },
      "effectivePeriod": {
        "start": "2009-06-19T10:00:00+02:00"
      },
      "valueQuantity": {
        "value": 12.6,
        "unit": "kg/m2",
        "system": "http://unitsofmeasure.org",
        "code": "kg/m2"
      }
    }
  }, {
    "resource": {
      "resourceType": "Observation",
      "id": "2fe8475e-9cd4-4379-b627-2d8a6c7e29b6",
      "identifier": [ {
        "use": "official",
        "value": "c6f88321-67ad-11db-bd13-0800200c9a66"
      } ],
      "status": "final",
      "category": [ {
        "coding": [ {
          "system": "http://terminology.hl7.org/CodeSystem/observation-category",
          "code": "vital-signs",
          "display": "Vital Signs"
        } ]
      } ],
      "code": {
        "coding": [ {
          "system": "http://loinc.org",
          "code": "39156-5",
          "display": "BMI"
        } ]
      },
      "subject": {
        "reference": "Patient/fe56a7f3-708c-4c0f-b709-02b55cf6010b",
        "display": "Carol Gilbert"
      },
      "effectivePeriod": {
        "start": "2010-05-15T10:00:00+02:00"
      },
      "valueQuantity": {
        "value": 18.7,
        "unit": "kg/m2",
        "system": "http://unitsofmeasure.org",
        "code": "kg/m2"
      }
    }
  }, {
    "resource": {
      "resourceType": "Observation",
      "id": "a561f2cd-e685-46be-9923-35c1ee9fe9b3",
      "identifier": [ {
        "use": "official",
        "value": "c6f88321-67ad-11db-bd13-0800200c9a66"
      } ],
      "status": "final",
      "category": [ {
        "coding": [ {
          "system": "http://terminology.hl7.org/CodeSystem/observation-category",
          "code": "vital-signs",
          "display": "Vital Signs"
        } ]
      } ],
      "code": {
        "coding": [ {
          "system": "http://loinc.org",
          "code": "39156-5",
          "display": "BMI"
        } ]
      },
      "subject": {
        "reference": "Patient/fe56a7f3-708c-4c0f-b709-02b55cf6010b",
        "display": "Carol Gilbert"
      },
      "effectivePeriod": {
        "start": "2009-03-15T10:00:00+01:00"
      },
      "valueQuantity": {
        "value": 13.9,
        "unit": "kg/m2",
        "system": "http://unitsofmeasure.org",
        "code": "kg/m2"
      }
    }
  }, {
    "resource": {
      "resourceType": "Observation",
      "id": "a55489ca-d6ca-45a5-a2bd-6bac5b17d80c",
      "identifier": [ {
        "use": "official",
        "value": "c6f88321-67ad-11db-bd13-0800200c9a66"
      } ],
      "status": "final",
      "category": [ {
        "coding": [ {
          "system": "http://terminology.hl7.org/CodeSystem/observation-category",
          "code": "vital-signs",
          "display": "Vital Signs"
        } ]
      } ],
      "code": {
        "coding": [ {
          "system": "http://loinc.org",
          "code": "39156-5",
          "display": "BMI"
        } ]
      },
      "subject": {
        "reference": "Patient/fe56a7f3-708c-4c0f-b709-02b55cf6010b",
        "display": "Carol Gilbert"
      },
      "effectivePeriod": {
        "start": "2009-04-17T10:00:00+02:00"
      },
      "valueQuantity": {
        "value": 14.5,
        "unit": "kg/m2",
        "system": "http://unitsofmeasure.org",
        "code": "kg/m2"
      }
    }
  }, {
    "resource": {
      "resourceType": "Observation",
      "id": "9a448f88-86c5-45af-8658-dddfdf419c2f",
      "identifier": [ {
        "use": "official",
        "value": "c6f88321-67ad-11db-bd13-0800200c9a66"
      } ],
      "status": "final",
      "category": [ {
        "coding": [ {
          "system": "http://terminology.hl7.org/CodeSystem/observation-category",
          "code": "vital-signs",
          "display": "Vital Signs"
        } ]
      } ],
      "code": {
        "coding": [ {
          "system": "http://loinc.org",
          "code": "39156-5",
          "display": "BMI"
        } ]
      },
      "subject": {
        "reference": "Patient/fe56a7f3-708c-4c0f-b709-02b55cf6010b",
        "display": "Carol Gilbert"
      },
      "effectivePeriod": {
        "start": "2009-08-21T10:00:00+02:00"
      },
      "valueQuantity": {
        "value": 15.7,
        "unit": "kg/m2",
        "system": "http://unitsofmeasure.org",
        "code": "kg/m2"
      }
    }
  }, {
    "resource": {
      "resourceType": "Observation",
      "id": "0e0368fc-2275-4246-ad29-1e348847d799",
      "identifier": [ {
        "use": "official",
        "value": "c6f88321-67ad-11db-bd13-0800200c9a66"
      } ],
      "status": "final",
      "category": [ {
        "coding": [ {
          "system": "http://terminology.hl7.org/CodeSystem/observation-category",
          "code": "vital-signs",
          "display": "Vital Signs"
        } ]
      } ],
      "code": {
        "coding": [ {
          "system": "http://loinc.org",
          "code": "39156-5",
          "display": "BMI"
        } ]
      },
      "subject": {
        "reference": "Patient/fe56a7f3-708c-4c0f-b709-02b55cf6010b",
        "display": "Carol Gilbert"
      },
      "effectivePeriod": {
        "start": "2011-02-22T10:00:00+01:00"
      },
      "valueQuantity": {
        "value": 16.1,
        "unit": "kg/m2",
        "system": "http://unitsofmeasure.org",
        "code": "kg/m2"
      }
    }
  }, {
    "resource": {
      "resourceType": "Observation",
      "id": "98bdc168-7d48-48b3-b4ab-c959be3d4675",
      "identifier": [ {
        "use": "official",
        "value": "c6f88321-67ad-11db-bd13-0800200c9a66"
      } ],
      "status": "final",
      "category": [ {
        "coding": [ {
          "system": "http://terminology.hl7.org/CodeSystem/observation-category",
          "code": "vital-signs",
          "display": "Vital Signs"
        } ]
      } ],
      "code": {
        "coding": [ {
          "system": "http://loinc.org",
          "code": "39156-5",
          "display": "BMI"
        } ]
      },
      "subject": {
        "reference": "Patient/fe56a7f3-708c-4c0f-b709-02b55cf6010b",
        "display": "Carol Gilbert"
      },
      "effectivePeriod": {
        "start": "2010-08-16T10:00:00+02:00"
      },
      "valueQuantity": {
        "value": 19.2,
        "unit": "kg/m2",
        "system": "http://unitsofmeasure.org",
        "code": "kg/m2"
      }
    }
  }, {
    "resource": {
      "resourceType": "Observation",
      "id": "df239a92-69aa-414e-889d-cb0932d962c9",
      "identifier": [ {
        "use": "official",
        "value": "c6f88321-67ad-11db-bd13-0800200c9a66"
      } ],
      "status": "final",
      "category": [ {
        "coding": [ {
          "system": "http://terminology.hl7.org/CodeSystem/observation-category",
          "code": "vital-signs",
          "display": "Vital Signs"
        } ]
      } ],
      "code": {
        "coding": [ {
          "system": "http://loinc.org",
          "code": "39156-5",
          "display": "BMI"
        } ]
      },
      "subject": {
        "reference": "Patient/fe56a7f3-708c-4c0f-b709-02b55cf6010b",
        "display": "Carol Gilbert"
      },
      "effectivePeriod": {
        "start": "2010-02-15T10:00:00+01:00"
      },
      "valueQuantity": {
        "value": 19.8,
        "unit": "kg/m2",
        "system": "http://unitsofmeasure.org",
        "code": "kg/m2"
      }
    }
  } ]
}