{
  "resourceType": "Bundle",
  "entry": [ {
    "resource": {
      "resourceType": "Composition",
      "id": "1a8d409c-d7c7-48ae-b946-787f0899538b",
      "identifier": {
        "use": "official",
        "value": "db734647-fc99-424c-a864-7e3cda82e703"
      },
      "status": "preliminary",
      "type": {
        "coding": [ {
          "system": "http://loinc.org",
          "code": "34133-9",
          "display": "Summarization of Episode Note"
        } ]
      },
      "category": [ {
        "coding": [ {
          "system": "http://hl7.org/fhir/ValueSet/doc-classcodes",
          "code": "LP173421-7",
          "display": "Note"
        } ]
      } ],
      "subject": {
        "reference": "Patient/c0926fb6-adff-48b4-b7d4-5dffbcac1ba3",
        "display": "Neil Hicks"
      },
      "date": "2014-04-16T11:55:12+02:00",
      "author": [ {
        "reference": "Practitioner/694ecf66-acb7-42da-b59a-c6c8aea25aa5",
        "display": "Henry Seven MD"
      } ],
      "title": "Community Health and Hospitals: Health Summary",
      "confidentiality": "N",
      "attester": [ {
        "mode": "legal",
        "time": "2013-04-18T09:00:00+05:00",
        "party": {
          "reference": "Practitioner/015867fd-6197-48da-988b-6e56ae3e2df1",
          "display": "Henry Seven"
        }
      }, {
        "mode": "professional",
        "time": "2014-04-16T11:55:12+02:00",
        "party": {
          "reference": "Practitioner/015867fd-6197-48da-988b-6e56ae3e2df1",
          "display": "Henry Seven"
        }
      } ],
      "custodian": {
        "reference": "Organization/428a9248-5a08-4490-a9e4-2ee96ea05a24",
        "display": "Community Health and Hospitals"
      },
      "event": [ {
        "period": {
          "start": "2010-07-05T10:00:00+02:00",
          "end": "2010-11-10T10:00:00+01:00"
        },
        "detail": [ {
          "reference": "Practitioner/8bbf8077-144a-4495-b01c-6d8a803fc26d",
          "display": "Henry Seven MD"
        } ]
      } ],
      "section": [ {
        "title": "Medications",
        "code": {
          "coding": [ {
            "system": "http://loinc.org",
            "code": "10160-0",
            "display": "History of Medication Use"
          } ]
        },
        "text": {
          "status": "additional",
          "div": "<div xmlns=\"http://www.w3.org/1999/xhtml\"><table><thead><tr><th>Group Description</th><th>Code System</th><th>Code</th><th>Code Description</th><th>Date and Time</th><th>Status</th></tr></thead><tbody><tr><td>ACE inhibitor or ARB</td><td>RxNorm</td><td>314076</td><td><span/>Lisinopril 10 MG Oral Tablet</td><td>07-15-2010 10:00:00</td><td>Active</td></tr><tr><td>Anticoagulants</td><td>RxNorm</td><td>855326</td><td><span/>Warfarin Sodium 4 MG Oral Tablet [Coumadin]</td><td>07-15-2010 10:00:00</td><td>Active</td></tr><tr><td>Beta Blocker Therapy</td><td>RxNorm</td><td>866924</td><td><span/>Metoprolol Tartrate 25 MG Oral Tablet</td><td>07-15-2010 10:00:00</td><td>Active</td></tr><tr><td>Smoking Cessation Agents</td><td>RxNorm</td><td>1046847</td><td><span/>24 HR Nicotine 0.313 MG/HR Transdermal Patch</td><td>11-10-2010 10:00:00</td><td>Active</td></tr></tbody></table></div>"
        },
        "mode": "snapshot",
        "entry": [ {
          "reference": "MedicationStatement/a73d86d4-70a3-4097-9094-fdace71a2450",
          "display": "Warfarin Sodium 4 MG Oral Tablet [Coumadin]"
        }, {
          "reference": "MedicationStatement/d8956834-b6ee-424b-aef6-44a47d5c3ea5",
          "display": "Lisinopril 10 MG Oral Tablet"
        }, {
          "reference": "MedicationStatement/ba1aaf6e-cd61-4104-b9b8-4c54c500055b",
          "display": "24 HR Nicotine 0.313 MG/HR Transdermal Patch"
        }, {
          "reference": "MedicationStatement/2b86a8a2-3526-42e7-aad7-4ac4e8d7ee04",
          "display": "Metoprolol Tartrate 25 MG Oral Tablet"
        } ]
      }, {
        "title": "Procedures",
        "code": {
          "coding": [ {
            "system": "http://loinc.org",
            "code": "47519-4",
            "display": "HISTORY OF PROCEDURES"
          } ]
        },
        "text": {
          "status": "additional",
          "div": "<div xmlns=\"http://www.w3.org/1999/xhtml\"><table><thead><tr><th>Group Description</th><th>Code System</th><th>Code</th><th>Code Description</th><th>Date and Time</th><th>Status</th></tr></thead><tbody><tr><td>Counseling For Nutrition</td><td>CPT</td><td>97802</td><td><span/>Medical nutrition, indiv, in</td><td>07-15-2010 10:00:00</td><td>Performed</td></tr><tr><td/><td>HCPCS</td><td>S9470</td><td>Nutritional counseling, diet</td><td/><td/></tr><tr><td/><td>ICD-10-CM</td><td>Z00.8</td><td>Encounter for other general examination</td><td/><td/></tr><tr><td/><td>ICD-9-CM</td><td>V65.3</td><td>Dietary surveillance and counseling</td><td/><td/></tr><tr><td>Counseling For Physical Activity</td><td>HCPCS</td><td>S9451</td><td><span/>Exercise class</td><td>07-15-2010 10:00:00</td><td>Performed</td></tr><tr><td/><td>ICD-10-CM</td><td>Z71.3</td><td>Dietary counseling and surveillance</td><td/><td/></tr><tr><td/><td>ICD-9-CM</td><td>V65.41</td><td>Exercise counseling</td><td/><td/></tr><tr><td>Ejection Fraction</td><td>SNOMED-CT</td><td>70822001</td><td><span/>Cardiac ejection fraction, function</td><td>07-15-2010 10:00:00</td><td>Performed</td></tr><tr><td>Tobacco Use Cessation Counseling</td><td>CPT</td><td>99406</td><td><span/>Behav chng smoking 3-10 min</td><td>07-15-2010 10:00:00</td><td>Performed</td></tr><tr><td/><td>SNOMED-CT</td><td>384742004</td><td>Smoking cessation assistance</td><td/><td/></tr><tr><td>Prostate Cancer Treatment</td><td>CPT</td><td>55810</td><td><span/>Extensive prostate surgery</td><td>08-31-2010 10:00:00</td><td>Performed</td></tr><tr><td/><td>SNOMED-CT</td><td>176259004</td><td>Radical prostatectomy - unspecified excision of pelvic nodes</td><td/><td/></tr></tbody></table></div>"
        },
        "mode": "snapshot",
        "entry": [ {
          "reference": "Procedure/b5f4ff64-5e98-4909-8332-94358ff57de0",
          "display": "Extensive prostate surgery"
        } ]
      }, {
        "title": "Vital Signs",
        "code": {
          "coding": [ {
            "system": "http://loinc.org",
            "code": "8716-3",
            "display": "Vital Signs"
          } ]
        },
        "text": {
          "status": "additional",
          "div": "<div xmlns=\"http://www.w3.org/1999/xhtml\"><table><thead><tr><th>Group Description</th><th>Code System</th><th>Code</th><th>Code Description</th><th>Value</th><th>Unit</th><th>Date and Time</th><th>Status</th></tr></thead><tbody><tr><td>BMI</td><td>LOINC</td><td>39156-5</td><td><span/>BMI</td><td>23.2</td><td>kg/m2</td><td>07-15-2010 10:00:00</td><td>Finding</td></tr><tr><td>Diastolic Blood Pressure</td><td>LOINC</td><td>8462-4</td><td><span/>BP Diastolic</td><td>74</td><td>mm[Hg]</td><td>07-15-2010 10:00:00</td><td>Finding</td></tr><tr><td>Heart Rate</td><td>LOINC</td><td>8867-4</td><td><span/>Heart Rate</td><td>84</td><td>/min</td><td>07-15-2010 10:00:00</td><td>Finding</td></tr><tr><td>Systolic Blood Pressure</td><td>LOINC</td><td>8480-6</td><td><span/>BP Systolic</td><td>126</td><td>mm[Hg]</td><td>07-15-2010 10:00:00</td><td>Finding</td></tr><tr><td>BMI</td><td>LOINC</td><td>39156-5</td><td><span/>BMI</td><td>22.6</td><td>kg/m2</td><td>09-30-2010 10:00:00</td><td>Finding</td></tr></tbody></table></div>"
        },
        "mode": "snapshot",
        "entry": [ {
          "reference": "Observation/606262fe-f46e-4cc4-acf4-b7b2c4c401cb",
          "display": "BMI"
        }, {
          "reference": "Observation/12870a41-0aee-4a22-8667-0f47cb7dd96e",
          "display": "Heart Rate"
        }, {
          "reference": "Observation/55c133d9-03f2-41ab-aefd-7303dda77e47",
          "display": "BP Diastolic"
        }, {
          "reference": "Observation/59a12998-e86e-4dde-a342-4bcf55968a1c",
          "display": "BP Systolic"
        }, {
          "reference": "Observation/64ef8463-5807-46d3-a991-9cb5e2e6ebaf",
          "display": "BMI"
        } ]
      }, {
        "title": "Problems",
        "code": {
          "coding": [ {
            "system": "http://loinc.org",
            "code": "11450-4",
            "display": "PROBLEM LIST"
          } ]
        },
        "text": {
          "status": "additional",
          "div": "<div xmlns=\"http://www.w3.org/1999/xhtml\"><table><thead><tr><th>Group Description</th><th>Code System</th><th>Code</th><th>Code Description</th><th>Date and Time</th><th>Status</th></tr></thead><tbody><tr><td>Atrial Fibrillation</td><td>SNOMED-CT</td><td>49436004</td><td><span/>Atrial fibrillation</td><td>07-15-2010 10:00:00</td><td>Active</td></tr><tr><td/><td>ICD-10-CM</td><td>I48.91</td><td>Unspecified atrial fibrillation</td><td/><td/></tr><tr><td/><td>ICD-9-CM</td><td>427.31</td><td>Atrial fibrillation</td><td/><td/></tr><tr><td>Heart Failure</td><td>SNOMED-CT</td><td>84114007</td><td><span/>Heart failure</td><td>07-15-2010 10:00:00</td><td>Active</td></tr><tr><td/><td>ICD-10-CM</td><td>I50.9</td><td>Heart failure, unspecified</td><td/><td/></tr><tr><td/><td>ICD-9-CM</td><td>428.9</td><td>Heart failure, unspecified</td><td/><td/></tr><tr><td>Hypertension</td><td>SNOMED-CT</td><td>59621000</td><td><span/>Essential hypertension</td><td>07-15-2010 10:00:00</td><td>Active</td></tr><tr><td/><td>ICD-10-CM</td><td>I10</td><td>Essential (primary) hypertension</td><td/><td/></tr><tr><td/><td>ICD-9-CM</td><td>401.9</td><td>Unspecified essential hypertension</td><td/><td/></tr><tr><td>AJCC Cancer Stage Low Risk Recurrence Prostat</td><td>SNOMED-CT</td><td>261650005</td><td><span/>Tumor stage T1c</td><td>08-31-2010 10:00:00</td><td>Active</td></tr><tr><td>Prostate Cancer</td><td>SNOMED-CT</td><td>399068003</td><td><span/>Malignant tumor of prostate</td><td>08-31-2010 10:00:00</td><td>Active</td></tr><tr><td/><td>ICD-10-CM</td><td>C61</td><td>Malignant neoplasm of prostate</td><td/><td/></tr><tr><td/><td>ICD-9-CM</td><td>185</td><td>Malignant neoplasm of prostate</td><td/><td/></tr><tr><td>Pain Related to Prostate Cancer</td><td>SNOMED-CT</td><td>282743009</td><td><span/>Malignant bone pain</td><td>09-15-2010 10:00:00</td><td>Active</td></tr><tr><td/><td>ICD-10-CM</td><td>G89.3</td><td>Neoplasm related pain (acute) (chronic)</td><td/><td/></tr><tr><td/><td>ICD-9-CM</td><td>338.3</td><td>Neoplasm related pain (acute) (chronic)</td><td/><td/></tr></tbody></table></div>"
        },
        "mode": "snapshot",
        "entry": [ {
          "reference": "Condition/5a3fe800-7a22-4726-a1ad-0ac15c3c334b",
          "display": "Heart failure"
        } ]
      }, {
        "title": "Social History",
        "code": {
          "coding": [ {
            "system": "http://loinc.org",
            "code": "29762-2",
            "display": "Social History"
          } ]
        },
        "text": {
          "status": "additional",
          "div": "<div xmlns=\"http://www.w3.org/1999/xhtml\"><table><thead><tr><th>Group Description</th><th>Code System</th><th>Code</th><th>Code Description</th><th>Date and Time</th><th>Status</th></tr></thead><tbody><tr><td>Tobacco Use</td><td>SNOMED-CT</td><td>266919005</td><td><span/>Never smoker (Never Smoked)</td><td>07-15-2010 10:00:00</td><td>Active</td></tr><tr><td/><td>SNOMED-CT</td><td>449868002</td><td>Current every day smoker</td><td/><td/></tr></tbody></table></div>"
        },
        "mode": "snapshot",
        "entry": [ {
          "reference": "Observation/add8f3ad-1165-4fe0-aa07-32cc96a0ae3a"
        } ]
      }, {
        "title": "Allergies,  Adverse Reactions & Alerts",
        "code": {
          "coding": [ {
            "system": "http://loinc.org",
            "code": "48765-2",
            "display": "Allergies, adverse reactions, alerts"
          } ]
        },
        "text": {
          "status": "additional",
          "div": "<div xmlns=\"http://www.w3.org/1999/xhtml\"><table><thead><tr><th>Group Description</th><th>Code System</th><th>Code</th><th>Code Description</th><th>Severity</th><th>Susceptibility</th><th>Date and Time</th><th>Status</th></tr></thead><tbody><tr><td>Allergy to Eggs</td><td>UNII</td><td>291P45F896</td><td><span/>Eggs</td><td><span/>Mild</td><td>Moderately Susceptible</td><td>07-15-2010 10:00:00</td><td>Active</td></tr><tr><td/><td>ICD-9-CM</td><td>V15.03</td><td>Allergy to eggs</td><td/><td/><td/><td/></tr><tr><td>Fosfomycin</td><td>RxNorm</td><td>808917</td><td><span/>Fosfomycin 33.3 MG/ML Oral Suspension</td><td><span/>Moderate to severe</td><td>Susceptible</td><td>07-15-2010 10:00:00</td><td>Active</td></tr><tr><td>Penicillin V</td><td>NDF-RT</td><td>N0000011298</td><td><span/>Penicillin V</td><td><span/>Severe</td><td>Susceptible</td><td>07-15-2010 10:00:00</td><td>Active</td></tr></tbody></table></div>"
        },
        "mode": "snapshot",
        "entry": [ {
          "reference": "AllergyIntolerance/778a45f5-9972-4c09-a7df-c45d28be079c",
          "display": "Fosfomycin + Fosfomycin 33.3 MG/ML Oral Suspension"
        }, {
          "reference": "AllergyIntolerance/0d4fb095-2dfa-4a0c-bcb4-4f040fa70774",
          "display": "Allergy to Eggs + Eggs"
        }, {
          "reference": "AllergyIntolerance/846b7bd5-2f5c-4b63-8531-7e28157afb7c",
          "display": "Penicillin V + Penicillin V"
        } ]
      }, {
        "title": "Results",
        "code": {
          "coding": [ {
            "system": "http://loinc.org",
            "code": "30954-2",
            "display": "Results"
          } ]
        },
        "text": {
          "status": "additional",
          "div": "<div xmlns=\"http://www.w3.org/1999/xhtml\"><table><thead><tr><th>Group Description</th><th>Code System</th><th>Code</th><th>Code Description</th><th>Value</th><th>Unit</th><th>Reference Range</th><th>Date and Time</th><th>Status</th></tr></thead><tbody><tr><td>Gleason Score</td><td>LOINC</td><td>35266-6</td><td><span/>Gleason Score Spec Ql</td><td>5</td><td>NA</td><td>2-10</td><td>07-05-2010 10:00:00</td><td>Completed</td></tr><tr><td/><td>SNOMED-CT</td><td>384997002</td><td>Total Gleason score</td><td/><td/><td/><td/><td/></tr><tr><td>Prostate Specific Antigen Test</td><td>LOINC</td><td>19195-7</td><td><span/>PSA SerPl-aCnc</td><td>3</td><td>ng/mL</td><td>&amp;lt;2.5 ng/mL</td><td>07-05-2010 10:00:00</td><td>Completed</td></tr><tr><td/><td>CPT</td><td>84153</td><td>Assay of psa, total</td><td/><td/><td/><td/><td/></tr><tr><td/><td>SNOMED-CT</td><td>63476009</td><td>Prostate specific antigen measurement</td><td/><td/><td/><td/><td/></tr><tr><td>High Density Lipoprotein (HDL)</td><td>LOINC</td><td>14646-4</td><td><span/>HDLc SerPl-sCnc</td><td>65</td><td>mg/dL</td><td>&amp;gt;=40 mg/dL</td><td>07-15-2010 10:00:00</td><td>Completed</td></tr><tr><td/><td>CPT</td><td>83701</td><td>Lipoprotein bld, hr fraction</td><td/><td/><td/><td/><td/></tr><tr><td/><td>SNOMED-CT</td><td>28036006</td><td>High density lipoprotein cholesterol measurement</td><td/><td/><td/><td/><td/></tr><tr><td>Low Density Lipoprotein (LDL)</td><td>LOINC</td><td>2089-1</td><td><span/>LDLc SerPl-mCnc</td><td>100</td><td>mg/dL</td><td>&amp;lt;130 mg/dL (calc)</td><td>07-15-2010 10:00:00</td><td>Completed</td></tr><tr><td/><td>CPT</td><td>83721</td><td>Assay of blood lipoprotein</td><td/><td/><td/><td/><td/></tr><tr><td/><td>SNOMED-CT</td><td>113079009</td><td>Low density lipoprotein cholesterol measurement</td><td/><td/><td/><td/><td/></tr><tr><td>Total Cholesterol</td><td>LOINC</td><td>2093-3</td><td><span/>Cholest SerPl-mCnc</td><td>198</td><td>mg/dL</td><td>125-200 mg/dL</td><td>07-15-2010 10:00:00</td><td>Completed</td></tr><tr><td/><td>CPT</td><td>82465</td><td>Assay, bld/serum cholesterol</td><td/><td/><td/><td/><td/></tr><tr><td/><td>SNOMED-CT</td><td>121868005</td><td>Total cholesterol measurement</td><td/><td/><td/><td/><td/></tr><tr><td>Triglycerides</td><td>LOINC</td><td>12951-0</td><td><span/>Trigl SerPl Calc-mCnc</td><td>165</td><td>mg/dL</td><td>10-39 years: 55-110 mg/dL | 40-59 years: 70-150 mg/dL | &amp;gt;60 years: 80-150 mg/dL | Therapeutic Target: &amp;lt;100 mg/dL </td><td>07-15-2010 10:00:00</td><td>Completed</td></tr><tr><td/><td>CPT</td><td>84478</td><td>Assay of triglycerides</td><td/><td/><td/><td/><td/></tr><tr><td/><td>SNOMED-CT</td><td>14740000</td><td>Triglycerides measurement</td><td/><td/><td/><td/><td/></tr></tbody></table></div>"
        },
        "mode": "snapshot",
        "entry": [ {
          "reference": "DiagnosticReport/0bd94cfa-880d-4197-b070-2093811e13f2",
          "display": "Blood Chemistry"
        }, {
          "reference": "DiagnosticReport/b3c82150-4573-4b38-b053-d818d1509e8f",
          "display": "Lipid Panel"
        }, {
          "reference": "DiagnosticReport/64750586-abd8-4e43-a3bf-379dddd9d6c6",
          "display": "Pathology"
        } ]
      }, {
        "title": "Encounters",
        "code": {
          "coding": [ {
            "system": "http://loinc.org",
            "code": "46240-8",
            "display": "History of encounters"
          } ]
        },
        "text": {
          "status": "additional",
          "div": "<div xmlns=\"http://www.w3.org/1999/xhtml\"><table><thead><tr><th>Group Description</th><th>Code System</th><th>Code</th><th>Code Description</th><th>Date and Time</th><th>Status</th></tr></thead><tbody><tr><td>Encounter Outpatient</td><td>CPT</td><td>99213</td><td><span/>Office/outpatient visit, est</td><td>07-15-2010 10:00:00</td><td>Performed</td></tr><tr><td/><td>ICD-9-CM</td><td>V70.0</td><td>Routine general medical examination at a health care facility</td><td/><td/></tr><tr><td>Encounter Office Visit</td><td>CPT</td><td>99212</td><td><span/>Office/outpatient visit, est</td><td>08-10-2010 10:00:00</td><td>Performed</td></tr><tr><td>Encounter Acute Inpt</td><td>CPT</td><td>99251</td><td><span/>Initial inpatient consult</td><td>08-31-2010 10:00:00</td><td>Performed</td></tr><tr><td>Encounter Inpatient Discharge</td><td>CPT</td><td>99238</td><td><span/>Hospital discharge day</td><td>09-04-2010 10:00:00</td><td>Performed</td></tr><tr><td>Encounter Outpatient</td><td>CPT</td><td>99213</td><td><span/>Office/outpatient visit, est</td><td>09-15-2010 10:00:00</td><td>Performed</td></tr><tr><td/><td>ICD-9-CM</td><td>V70.0</td><td>Routine general medical examination at a health care facility</td><td/><td/></tr><tr><td>Encounter Office Visit</td><td>CPT</td><td>99212</td><td><span/>Office/outpatient visit, est</td><td>11-10-2010 10:00:00</td><td>Performed</td></tr></tbody></table></div>"
        },
        "mode": "snapshot",
        "entry": [ {
          "reference": "Encounter/f9c1d5b6-a0ff-4b8b-9784-b684b9c5b24b",
          "display": "Office/outpatient visit, est"
        }, {
          "reference": "Encounter/85daf027-3020-47a6-b2ef-0d1b8e1c7d3e",
          "display": "Office/outpatient visit, est"
        }, {
          "reference": "Encounter/661d4f3e-46f3-493a-b48b-7729f7f645ad",
          "display": "Office/outpatient visit, est"
        }, {
          "reference": "Encounter/056860e3-3d5b-4e12-93ed-5dddd820ca9a",
          "display": "Hospital discharge day"
        }, {
          "reference": "Encounter/1f3cc5ad-8b30-4521-af4c-0500d6b7299b",
          "display": "Initial inpatient consult"
        }, {
          "reference": "Encounter/777d205f-0284-40ce-a0bb-d09882e56cf3",
          "display": "Office/outpatient visit, est"
        } ]
      } ]
    }
  }, {
    "resource": {
      "resourceType": "Patient",
      "id": "c0926fb6-adff-48b4-b7d4-5dffbcac1ba3",
      "extension": [ {
        "url": "http://hl7.org/fhir/StructureDefinition/patient-religion",
        "valueCodeableConcept": {
          "coding": [ {
            "system": "urn:oid:2.16.840.1.113883.5.1076",
            "code": "1077",
            "display": "Protestant"
          } ]
        }
      }, {
        "url": "http://hl7.org/fhir/us/core/StructureDefinition/us-core-race",
        "extension": [ {
          "url": "text",
          "valueString": "Black or African American"
        }, {
          "url": "ombCategory",
          "valueCoding": {
            "system": "urn:oid:2.16.840.1.113883.6.238",
            "code": "2054-5",
            "display": "Black or African American"
          }
        } ]
      }, {
        "url": "http://hl7.org/fhir/us/core/StructureDefinition/us-core-ethnicity",
        "extension": [ {
          "url": "text",
          "valueString": "Not Hispanic or Latino"
        }, {
          "url": "ombCategory",
          "valueCoding": {
            "system": "urn:oid:2.16.840.1.113883.6.238",
            "code": "2186-5",
            "display": "Not Hispanic or Latino"
          }
        } ]
      }, {
        "url": "http://hl7.org/fhir/StructureDefinition/patient-birthPlace",
        "valueAddress": {
          "city": "Syracuse",
          "state": "NY",
          "postalCode": "13221",
          "country": "US"
        }
      } ],
      "identifier": [ {
        "use": "official",
        "system": "urn:oid:2.16.840.1.113883.19.5.99999.2",
        "value": "998991"
      }, {
        "use": "official",
        "system": "urn:oid:2.16.840.1.113883.4.1",
        "value": "111-00-2330"
      } ],
      "name": [ {
        "use": "usual",
        "family": "Hicks",
        "given": [ "Neil" ]
      } ],
      "telecom": [ {
        "system": "phone",
        "value": "(312)777-5171",
        "use": "mobile"
      } ],
      "gender": "male",
      "birthDate": "1933-10-17",
      "address": [ {
        "use": "home",
        "line": [ "648 University Drive" ],
        "city": "Chicago",
        "state": "IL",
        "postalCode": "60607",
        "country": "US"
      } ],
      "maritalStatus": {
        "coding": [ {
          "system": "http://terminology.hl7.org/CodeSystem/v3-MaritalStatus",
          "code": "M",
          "display": "Married"
        } ]
      },
      "contact": [ {
        "relationship": [ {
          "coding": [ {
            "system": "http://terminology.hl7.org/CodeSystem/v2-0131",
            "code": "C",
            "display": "Emergency Contact"
          } ]
        } ],
        "name": {
          "family": "Kern",
          "given": [ "Richard" ],
          "prefix": [ "Mr." ]
        },
        "telecom": [ {
          "system": "phone",
          "value": "(208)284-5330",
          "use": "home"
        }, {
          "system": "email",
          "value": "RichardMKern@armyspy.com",
          "use": "work"
        } ],
        "address": {
          "use": "home",
          "line": [ "3801 Fantages Way" ],
          "city": "Boise",
          "state": "ID",
          "postalCode": "83702",
          "country": "US"
        }
      } ],
      "communication": [ {
        "language": {
          "coding": [ {
            "system": "urn:ietf:bcp:47",
            "code": "spa"
          } ]
        },
        "preferred": true
      } ],
      "managingOrganization": {
        "reference": "Organization/e2c9a757-bf99-40e3-a473-8804bca890d7",
        "display": "Community Health and Hospitals"
      }
    }
  }, {
    "resource": {
      "resourceType": "Organization",
      "id": "e2c9a757-bf99-40e3-a473-8804bca890d7",
      "identifier": [ {
        "use": "official",
        "value": "2.16.840.1.113883.4.6"
      } ],
      "name": "Community Health and Hospitals",
      "telecom": [ {
        "system": "phone",
        "value": " 555-555-5000",
        "use": "work"
      } ],
      "address": [ {
        "line": [ "1001 Village Avenue" ],
        "city": "Portland",
        "state": "OR",
        "postalCode": "99123",
        "country": "US"
      } ]
    }
  }, {
    "resource": {
      "resourceType": "Practitioner",
      "id": "694ecf66-acb7-42da-b59a-c6c8aea25aa5",
      "identifier": [ {
        "use": "official",
        "system": "urn:oid:2.16.840.1.113883.4.6",
        "value": "99999999"
      } ],
      "name": [ {
        "family": "Seven",
        "given": [ "Henry" ],
        "suffix": [ "MD" ]
      } ],
      "telecom": [ {
        "system": "phone",
        "value": "555-555-1002",
        "use": "work"
      } ],
      "address": [ {
        "line": [ "1002 Healthcare Drive" ],
        "city": "Portland",
        "state": "OR",
        "postalCode": "99123",
        "country": "US"
      } ]
    }
  }, {
    "resource": {
      "resourceType": "Practitioner",
      "id": "015867fd-6197-48da-988b-6e56ae3e2df1",
      "identifier": [ {
        "use": "official",
        "system": "http://hl7.org/fhir/sid/us-npi",
        "value": "999999999"
      } ],
      "name": [ {
        "family": "Seven",
        "given": [ "Henry" ]
      } ],
      "telecom": [ {
        "system": "phone",
        "value": "555-555-1002",
        "use": "work"
      } ],
      "address": [ {
        "line": [ "1001 Village Avenue" ],
        "city": "Portland",
        "state": "OR",
        "postalCode": "99123",
        "country": "US"
      } ]
    }
  }, {
    "resource": {
      "resourceType": "Practitioner",
      "id": "8bbf8077-144a-4495-b01c-6d8a803fc26d",
      "identifier": [ {
        "use": "official",
        "system": "http://hl7.org/fhir/sid/us-npi",
        "value": "PseudoMD-1"
      } ],
      "name": [ {
        "family": "Seven",
        "given": [ "Henry" ],
        "suffix": [ "MD" ]
      } ],
      "telecom": [ {
        "system": "phone",
        "value": "+1-555-555-5000",
        "use": "home"
      } ],
      "address": [ {
        "line": [ "1001 Village Avenue" ],
        "city": "Portland",
        "state": "OR",
        "postalCode": "99123",
        "country": "US"
      } ]
    }
  }, {
    "resource": {
      "resourceType": "Organization",
      "id": "428a9248-5a08-4490-a9e4-2ee96ea05a24",
      "identifier": [ {
        "use": "official",
        "system": "urn:oid:2.16.840.1.113883.4.6",
        "value": "99999999"
      } ],
      "name": "Community Health and Hospitals",
      "telecom": [ {
        "system": "phone",
        "value": " 555-555-1002",
        "use": "work"
      } ],
      "address": [ {
        "use": "work",
        "line": [ "1002 Healthcare Drive" ],
        "city": "Portland",
        "state": "OR",
        "postalCode": "99123",
        "country": "US"
      } ]
    }
  }, {
    "resource": {
      "resourceType": "MedicationStatement",
      "id": "a73d86d4-70a3-4097-9094-fdace71a2450",
      "extension": [ {
        "url": "http://hl7.org/fhir/3.0/StructureDefinition/extension-MedicationStatement.status",
        "valueCode": "UNKNOWN"
      } ],
      "identifier": [ {
        "use": "official",
        "value": "cdbd33f0-6cde-11db-9fe1-0800200c9a66"
      } ],
      "status": "completed",
      "medicationReference": {
        "reference": "Medication/0a088ac9-b0a9-40de-8421-e1f36bc0a956",
        "display": "Warfarin Sodium 4 MG Oral Tablet [Coumadin]"
      },
      "subject": {
        "reference": "Patient/c0926fb6-adff-48b4-b7d4-5dffbcac1ba3",
        "display": "Neil Hicks"
      },
      "effectivePeriod": {
        "start": "2010-07-15T10:00:00+02:00"
      }
    }
  }, {
    "resource": {
      "resourceType": "Medication",
      "id": "0a088ac9-b0a9-40de-8421-e1f36bc0a956",
      "code": {
        "coding": [ {
          "system": "http://www.nlm.nih.gov/research/umls/rxnorm",
          "code": "855326",
          "display": "Warfarin Sodium 4 MG Oral Tablet [Coumadin]"
        } ]
      }
    }
  }, {
    "resource": {
      "resourceType": "MedicationStatement",
      "id": "d8956834-b6ee-424b-aef6-44a47d5c3ea5",
      "extension": [ {
        "url": "http://hl7.org/fhir/3.0/StructureDefinition/extension-MedicationStatement.status",
        "valueCode": "UNKNOWN"
      } ],
      "identifier": [ {
        "use": "official",
        "value": "cdbd33f0-6cde-11db-9fe1-0800200c9a66"
      } ],
      "status": "completed",
      "medicationReference": {
        "reference": "Medication/510a8bc2-5be2-4bee-9bca-687e2553d49d",
        "display": "Lisinopril 10 MG Oral Tablet"
      },
      "subject": {
        "reference": "Patient/c0926fb6-adff-48b4-b7d4-5dffbcac1ba3",
        "display": "Neil Hicks"
      },
      "effectivePeriod": {
        "start": "2010-07-15T10:00:00+02:00"
      }
    }
  }, {
    "resource": {
      "resourceType": "Medication",
      "id": "510a8bc2-5be2-4bee-9bca-687e2553d49d",
      "code": {
        "coding": [ {
          "system": "http://www.nlm.nih.gov/research/umls/rxnorm",
          "code": "314076",
          "display": "Lisinopril 10 MG Oral Tablet"
        } ]
      }
    }
  }, {
    "resource": {
      "resourceType": "MedicationStatement",
      "id": "ba1aaf6e-cd61-4104-b9b8-4c54c500055b",
      "extension": [ {
        "url": "http://hl7.org/fhir/3.0/StructureDefinition/extension-MedicationStatement.status",
        "valueCode": "UNKNOWN"
      } ],
      "identifier": [ {
        "use": "official",
        "value": "cdbd33f0-6cde-11db-9fe1-0800200c9a66"
      } ],
      "status": "completed",
      "medicationReference": {
        "reference": "Medication/f1d4e276-7ec5-4341-87ed-e00bd4cd8483",
        "display": "24 HR Nicotine 0.313 MG/HR Transdermal Patch"
      },
      "subject": {
        "reference": "Patient/c0926fb6-adff-48b4-b7d4-5dffbcac1ba3",
        "display": "Neil Hicks"
      },
      "effectivePeriod": {
        "start": "2010-11-10T10:00:00+01:00"
      }
    }
  }, {
    "resource": {
      "resourceType": "Medication",
      "id": "f1d4e276-7ec5-4341-87ed-e00bd4cd8483",
      "code": {
        "coding": [ {
          "system": "http://www.nlm.nih.gov/research/umls/rxnorm",
          "code": "1046847",
          "display": "24 HR Nicotine 0.313 MG/HR Transdermal Patch"
        } ]
      }
    }
  }, {
    "resource": {
      "resourceType": "MedicationStatement",
      "id": "2b86a8a2-3526-42e7-aad7-4ac4e8d7ee04",
      "extension": [ {
        "url": "http://hl7.org/fhir/3.0/StructureDefinition/extension-MedicationStatement.status",
        "valueCode": "UNKNOWN"
      } ],
      "identifier": [ {
        "use": "official",
        "value": "cdbd33f0-6cde-11db-9fe1-0800200c9a66"
      } ],
      "status": "completed",
      "medicationReference": {
        "reference": "Medication/e306c2ce-562e-43a1-a5ef-0116f6186365",
        "display": "Metoprolol Tartrate 25 MG Oral Tablet"
      },
      "subject": {
        "reference": "Patient/c0926fb6-adff-48b4-b7d4-5dffbcac1ba3",
        "display": "Neil Hicks"
      },
      "effectivePeriod": {
        "start": "2010-07-15T10:00:00+02:00"
      }
    }
  }, {
    "resource": {
      "resourceType": "Medication",
      "id": "e306c2ce-562e-43a1-a5ef-0116f6186365",
      "code": {
        "coding": [ {
          "system": "http://www.nlm.nih.gov/research/umls/rxnorm",
          "code": "866924",
          "display": "Metoprolol Tartrate 25 MG Oral Tablet"
        } ]
      }
    }
  }, {
    "resource": {
      "resourceType": "Procedure",
      "id": "b5f4ff64-5e98-4909-8332-94358ff57de0",
      "identifier": [ {
        "use": "official",
        "value": "e401f340-7be2-11db-9fe1-0800200c9a66"
      } ],
      "status": "completed",
      "code": {
        "coding": [ {
          "system": "http://www.ama-assn.org/go/cpt",
          "code": "55810",
          "display": "Extensive prostate surgery"
        }, {
          "system": "http://snomed.info/sct",
          "code": "176259004",
          "display": "Radical prostatectomy - unspecified excision of pelvic nodes"
        } ]
      },
      "subject": {
        "reference": "Patient/c0926fb6-adff-48b4-b7d4-5dffbcac1ba3",
        "display": "Neil Hicks"
      },
      "performedPeriod": {
        "start": "2010-08-31T10:00:00+02:00"
      }
    }
  }, {
    "resource": {
      "resourceType": "Observation",
      "id": "606262fe-f46e-4cc4-acf4-b7b2c4c401cb",
      "identifier": [ {
        "use": "official",
        "value": "c6f88321-67ad-11db-bd13-0800200c9a66"
      } ],
      "status": "final",
      "category": [ {
        "coding": [ {
          "system": "http://terminology.hl7.org/CodeSystem/observation-category",
          "code": "vital-signs",
          "display": "Vital Signs"
        } ]
      } ],
      "code": {
        "coding": [ {
          "system": "http://loinc.org",
          "code": "39156-5",
          "display": "BMI"
        } ]
      },
      "subject": {
        "reference": "Patient/c0926fb6-adff-48b4-b7d4-5dffbcac1ba3",
        "display": "Neil Hicks"
      },
      "effectivePeriod": {
        "start": "2010-07-15T10:00:00+02:00"
      },
      "valueQuantity": {
        "value": 23.2,
        "unit": "kg/m2",
        "system": "http://unitsofmeasure.org",
        "code": "kg/m2"
      }
    }
  }, {
    "resource": {
      "resourceType": "Observation",
      "id": "12870a41-0aee-4a22-8667-0f47cb7dd96e",
      "identifier": [ {
        "use": "official",
        "value": "c6f88321-67ad-11db-bd13-0800200c9a66"
      } ],
      "status": "final",
      "category": [ {
        "coding": [ {
          "system": "http://terminology.hl7.org/CodeSystem/observation-category",
          "code": "vital-signs",
          "display": "Vital Signs"
        } ]
      } ],
      "code": {
        "coding": [ {
          "system": "http://loinc.org",
          "code": "8867-4",
          "display": "Heart Rate"
        } ]
      },
      "subject": {
        "reference": "Patient/c0926fb6-adff-48b4-b7d4-5dffbcac1ba3",
        "display": "Neil Hicks"
      },
      "effectivePeriod": {
        "start": "2010-07-15T10:00:00+02:00"
      },
      "valueQuantity": {
        "value": 84,
        "unit": "/min",
        "system": "http://unitsofmeasure.org",
        "code": "/min"
      }
    }
  }, {
    "resource": {
      "resourceType": "Observation",
      "id": "55c133d9-03f2-41ab-aefd-7303dda77e47",
      "identifier": [ {
        "use": "official",
        "value": "c6f88321-67ad-11db-bd13-0800200c9a66"
      } ],
      "status": "final",
      "category": [ {
        "coding": [ {
          "system": "http://terminology.hl7.org/CodeSystem/observation-category",
          "code": "vital-signs",
          "display": "Vital Signs"
        } ]
      } ],
      "code": {
        "coding": [ {
          "system": "http://loinc.org",
          "code": "8462-4",
          "display": "BP Diastolic"
        } ]
      },
      "subject": {
        "reference": "Patient/c0926fb6-adff-48b4-b7d4-5dffbcac1ba3",
        "display": "Neil Hicks"
      },
      "effectivePeriod": {
        "start": "2010-07-15T10:00:00+02:00"
      },
      "valueQuantity": {
        "value": 74,
        "unit": "mm[Hg]",
        "system": "http://unitsofmeasure.org",
        "code": "mm[Hg]"
      }
    }
  }, {
    "resource": {
      "resourceType": "Observation",
      "id": "59a12998-e86e-4dde-a342-4bcf55968a1c",
      "identifier": [ {
        "use": "official",
        "value": "c6f88321-67ad-11db-bd13-0800200c9a66"
      } ],
      "status": "final",
      "category": [ {
        "coding": [ {
          "system": "http://terminology.hl7.org/CodeSystem/observation-category",
          "code": "vital-signs",
          "display": "Vital Signs"
        } ]
      } ],
      "code": {
        "coding": [ {
          "system": "http://loinc.org",
          "code": "8480-6",
          "display": "BP Systolic"
        } ]
      },
      "subject": {
        "reference": "Patient/c0926fb6-adff-48b4-b7d4-5dffbcac1ba3",
        "display": "Neil Hicks"
      },
      "effectivePeriod": {
        "start": "2010-07-15T10:00:00+02:00"
      },
      "valueQuantity": {
        "value": 126,
        "unit": "mm[Hg]",
        "system": "http://unitsofmeasure.org",
        "code": "mm[Hg]"
      }
    }
  }, {
    "resource": {
      "resourceType": "Observation",
      "id": "64ef8463-5807-46d3-a991-9cb5e2e6ebaf",
      "identifier": [ {
        "use": "official",
        "value": "c6f88321-67ad-11db-bd13-0800200c9a66"
      } ],
      "status": "final",
      "category": [ {
        "coding": [ {
          "system": "http://terminology.hl7.org/CodeSystem/observation-category",
          "code": "vital-signs",
          "display": "Vital Signs"
        } ]
      } ],
      "code": {
        "coding": [ {
          "system": "http://loinc.org",
          "code": "39156-5",
          "display": "BMI"
        } ]
      },
      "subject": {
        "reference": "Patient/c0926fb6-adff-48b4-b7d4-5dffbcac1ba3",
        "display": "Neil Hicks"
      },
      "effectivePeriod": {
        "start": "2010-09-30T10:00:00+02:00"
      },
      "valueQuantity": {
        "value": 22.6,
        "unit": "kg/m2",
        "system": "http://unitsofmeasure.org",
        "code": "kg/m2"
      }
    }
  }, {
    "resource": {
      "resourceType": "Condition",
      "id": "5a3fe800-7a22-4726-a1ad-0ac15c3c334b",
      "identifier": [ {
        "use": "official",
        "value": "9d3d416d-45ab-4da1-912f-4583e0632000"
      } ],
      "clinicalStatus": {
        "coding": [ {
          "system": "http://terminology.hl7.org/CodeSystem/condition-clinical",
          "code": "active",
          "display": "Active"
        } ]
      },
      "verificationStatus": {
        "coding": [ {
          "system": "http://terminology.hl7.org/CodeSystem/condition-ver-status",
          "code": "confirmed",
          "display": "Confirmed"
        } ]
      },
      "category": [ {
        "coding": [ {
          "system": "http://terminology.hl7.org/CodeSystem/condition-category",
          "code": "problem-list-item",
          "display": "Problem List Item"
        } ]
      } ],
      "code": {
        "coding": [ {
          "system": "http://snomed.info/sct",
          "code": "84114007",
          "display": "Heart failure"
        }, {
          "system": "urn:oid:2.16.840.1.113883.6.90",
          "code": "I50.9",
          "display": "Heart failure, unspecified"
        }, {
          "system": "urn:oid:2.16.840.1.113883.6.103",
          "code": "428.9",
          "display": "Heart failure, unspecified"
        } ]
      },
      "subject": {
        "reference": "Patient/c0926fb6-adff-48b4-b7d4-5dffbcac1ba3",
        "display": "Neil Hicks"
      },
      "onsetDateTime": "2010-07-15T10:00:00+02:00"
    }
  }, {
    "resource": {
      "resourceType": "Observation",
      "id": "add8f3ad-1165-4fe0-aa07-32cc96a0ae3a",
      "identifier": [ {
        "use": "official",
        "system": "urn:oid:2.16.840.1.113883.19",
        "value": "123456789"
      } ],
      "status": "final",
      "code": {
        "coding": [ {
          "system": "urn:oid:2.16.840.1.113883.5.4",
          "code": "ASSERTION"
        } ]
      },
      "subject": {
        "reference": "Patient/c0926fb6-adff-48b4-b7d4-5dffbcac1ba3",
        "display": "Neil Hicks"
      },
      "effectivePeriod": {
        "start": "2010-07-15T10:00:00+02:00"
      },
      "valueCodeableConcept": {
        "coding": [ {
          "system": "http://snomed.info/sct",
          "code": "266919005",
          "display": "Never smoker (Never Smoked)"
        }, {
          "system": "http://snomed.info/sct",
          "code": "449868002",
          "display": "Current every day smoker"
        } ]
      }
    }
  }, {
    "resource": {
      "resourceType": "AllergyIntolerance",
      "id": "778a45f5-9972-4c09-a7df-c45d28be079c",
      "identifier": [ {
        "use": "official",
        "value": "36e3e930-7b14-11db-9fe1-0800200c9a66"
      } ],
      "clinicalStatus": {
        "coding": [ {
          "system": "http://terminology.hl7.org/CodeSystem/allergyintolerance-clinical",
          "code": "active",
          "display": "Active"
        } ]
      },
      "verificationStatus": {
        "coding": [ {
          "system": "http://terminology.hl7.org/CodeSystem/allergyintolerance-verification",
          "code": "confirmed",
          "display": "Confirmed"
        } ]
      },
      "type": "allergy",
      "category": [ "medication" ],
      "code": {
        "coding": [ {
          "system": "http://www.nlm.nih.gov/research/umls/rxnorm",
          "code": "808917",
          "display": "Fosfomycin 33.3 MG/ML Oral Suspension"
        } ],
        "text": "Fosfomycin + Fosfomycin 33.3 MG/ML Oral Suspension"
      },
      "patient": {
        "reference": "Patient/c0926fb6-adff-48b4-b7d4-5dffbcac1ba3",
        "display": "Neil Hicks"
      },
      "recordedDate": "2010-07-15T10:00:00+02:00"
    }
  }, {
    "resource": {
      "resourceType": "AllergyIntolerance",
      "id": "0d4fb095-2dfa-4a0c-bcb4-4f040fa70774",
      "identifier": [ {
        "use": "official",
        "value": "36e3e930-7b14-11db-9fe1-0800200c9a66"
      } ],
      "clinicalStatus": {
        "coding": [ {
          "system": "http://terminology.hl7.org/CodeSystem/allergyintolerance-clinical",
          "code": "active",
          "display": "Active"
        } ]
      },
      "verificationStatus": {
        "coding": [ {
          "system": "http://terminology.hl7.org/CodeSystem/allergyintolerance-verification",
          "code": "confirmed",
          "display": "Confirmed"
        } ]
      },
      "type": "allergy",
      "category": [ "food" ],
      "code": {
        "coding": [ {
          "system": "http://fdasis.nlm.nih.gov",
          "code": "291P45F896",
          "display": "Eggs"
        }, {
          "system": "urn:oid:2.16.840.1.113883.6.103",
          "code": "V15.03",
          "display": "Allergy to eggs"
        } ],
        "text": "Allergy to Eggs + Eggs"
      },
      "patient": {
        "reference": "Patient/c0926fb6-adff-48b4-b7d4-5dffbcac1ba3",
        "display": "Neil Hicks"
      },
      "recordedDate": "2010-07-15T10:00:00+02:00"
    }
  }, {
    "resource": {
      "resourceType": "AllergyIntolerance",
      "id": "846b7bd5-2f5c-4b63-8531-7e28157afb7c",
      "identifier": [ {
        "use": "official",
        "value": "36e3e930-7b14-11db-9fe1-0800200c9a66"
      } ],
      "clinicalStatus": {
        "coding": [ {
          "system": "http://terminology.hl7.org/CodeSystem/allergyintolerance-clinical",
          "code": "active",
          "display": "Active"
        } ]
      },
      "verificationStatus": {
        "coding": [ {
          "system": "http://terminology.hl7.org/CodeSystem/allergyintolerance-verification",
          "code": "confirmed",
          "display": "Confirmed"
        } ]
      },
      "type": "allergy",
      "category": [ "medication" ],
      "code": {
        "coding": [ {
          "system": "urn:oid:2.16.840.1.113883.3.26.1.5",
          "code": "N0000011298",
          "display": "Penicillin V"
        } ],
        "text": "Penicillin V + Penicillin V"
      },
      "patient": {
        "reference": "Patient/c0926fb6-adff-48b4-b7d4-5dffbcac1ba3",
        "display": "Neil Hicks"
      },
      "recordedDate": "2010-07-15T10:00:00+02:00"
    }
  }, {
    "resource": {
      "resourceType": "DiagnosticReport",
      "id": "0bd94cfa-880d-4197-b070-2093811e13f2",
      "identifier": [ {
        "use": "official",
        "value": "7d5a02b0-67a4-11db-bd13-0800200c9a66"
      } ],
      "status": "final",
      "category": [ {
        "coding": [ {
          "system": "http://terminology.hl7.org/CodeSystem/v2-0074",
          "code": "LAB",
          "display": "Laboratory"
        } ]
      } ],
      "code": {
        "coding": [ {
          "system": "http://snomed.info/sct",
          "code": "166312007",
          "display": "Blood Chemistry"
        } ]
      },
      "subject": {
        "reference": "Patient/c0926fb6-adff-48b4-b7d4-5dffbcac1ba3",
        "display": "Neil Hicks"
      },
      "result": [ {
        "reference": "Observation/0ac04bab-dbda-4ab0-8b76-913993cd2038",
        "display": "PSA SerPl-aCnc"
      } ]
    }
  }, {
    "resource": {
      "resourceType": "Observation",
      "id": "0ac04bab-dbda-4ab0-8b76-913993cd2038",
      "identifier": [ {
        "use": "official",
        "value": "107c2dc0-67a5-11db-bd13-0800200c9a66"
      } ],
      "status": "final",
      "category": [ {
        "coding": [ {
          "system": "http://terminology.hl7.org/CodeSystem/observation-category",
          "code": "laboratory"
        } ]
      } ],
      "code": {
        "coding": [ {
          "system": "http://loinc.org",
          "code": "19195-7",
          "display": "PSA SerPl-aCnc"
        }, {
          "system": "http://www.ama-assn.org/go/cpt",
          "code": "84153",
          "display": "Assay of psa, total"
        }, {
          "system": "http://snomed.info/sct",
          "code": "63476009",
          "display": "Prostate specific antigen measurement"
        } ]
      },
      "subject": {
        "reference": "Patient/c0926fb6-adff-48b4-b7d4-5dffbcac1ba3",
        "display": "Neil Hicks"
      },
      "effectivePeriod": {
        "start": "2010-07-05T10:00:00+02:00"
      },
      "valueQuantity": {
        "value": 3,
        "unit": "ng/mL",
        "system": "http://unitsofmeasure.org",
        "code": "ng/mL"
      },
      "interpretation": [ {
        "coding": [ {
          "system": "http://terminology.hl7.org/CodeSystem/v3-ObservationInterpretation",
          "code": "N"
        } ]
      } ],
      "referenceRange": [ {
        "text": "<2.5 ng/mL"
      } ]
    }
  }, {
    "resource": {
      "resourceType": "DiagnosticReport",
      "id": "b3c82150-4573-4b38-b053-d818d1509e8f",
      "identifier": [ {
        "use": "official",
        "value": "7d5a02b0-67a4-11db-bd13-0800200c9a66"
      } ],
      "status": "final",
      "category": [ {
        "coding": [ {
          "system": "http://terminology.hl7.org/CodeSystem/v2-0074",
          "code": "LAB",
          "display": "Laboratory"
        } ]
      } ],
      "code": {
        "coding": [ {
          "system": "http://snomed.info/sct",
          "code": "16254007",
          "display": "Lipid Panel"
        } ]
      },
      "subject": {
        "reference": "Patient/c0926fb6-adff-48b4-b7d4-5dffbcac1ba3",
        "display": "Neil Hicks"
      },
      "result": [ {
        "reference": "Observation/73cf067b-9c72-4cdc-ad36-1544458cec00",
        "display": "LDLc SerPl-mCnc"
      }, {
        "reference": "Observation/0973afee-580b-4b2b-a09d-5c92db3ba77f",
        "display": "Cholest SerPl-mCnc"
      }, {
        "reference": "Observation/b662cfe7-232a-4119-8613-4033579503cb",
        "display": "HDLc SerPl-sCnc"
      }, {
        "reference": "Observation/7affdfed-ec01-41c3-91c6-3679119d24a4",
        "display": "Trigl SerPl Calc-mCnc"
      } ]
    }
  }, {
    "resource": {
      "resourceType": "Observation",
      "id": "73cf067b-9c72-4cdc-ad36-1544458cec00",
      "identifier": [ {
        "use": "official",
        "value": "107c2dc0-67a5-11db-bd13-0800200c9a66"
      } ],
      "status": "final",
      "category": [ {
        "coding": [ {
          "system": "http://terminology.hl7.org/CodeSystem/observation-category",
          "code": "laboratory"
        } ]
      } ],
      "code": {
        "coding": [ {
          "system": "http://loinc.org",
          "code": "2089-1",
          "display": "LDLc SerPl-mCnc"
        }, {
          "system": "http://www.ama-assn.org/go/cpt",
          "code": "83721",
          "display": "Assay of blood lipoprotein"
        }, {
          "system": "http://snomed.info/sct",
          "code": "113079009",
          "display": "Low density lipoprotein cholesterol measurement"
        } ]
      },
      "subject": {
        "reference": "Patient/c0926fb6-adff-48b4-b7d4-5dffbcac1ba3",
        "display": "Neil Hicks"
      },
      "effectivePeriod": {
        "start": "2010-07-15T10:00:00+02:00"
      },
      "valueQuantity": {
        "value": 100,
        "unit": "mg/dL",
        "system": "http://unitsofmeasure.org",
        "code": "mg/dL"
      },
      "interpretation": [ {
        "coding": [ {
          "system": "http://terminology.hl7.org/CodeSystem/v3-ObservationInterpretation",
          "code": "N"
        } ]
      } ],
      "referenceRange": [ {
        "text": "<130 mg/dL (calc)"
      } ]
    }
  }, {
    "resource": {
      "resourceType": "Observation",
      "id": "0973afee-580b-4b2b-a09d-5c92db3ba77f",
      "identifier": [ {
        "use": "official",
        "value": "107c2dc0-67a5-11db-bd13-0800200c9a66"
      } ],
      "status": "final",
      "category": [ {
        "coding": [ {
          "system": "http://terminology.hl7.org/CodeSystem/observation-category",
          "code": "laboratory"
        } ]
      } ],
      "code": {
        "coding": [ {
          "system": "http://loinc.org",
          "code": "2093-3",
          "display": "Cholest SerPl-mCnc"
        }, {
          "system": "http://www.ama-assn.org/go/cpt",
          "code": "82465",
          "display": "Assay, bld/serum cholesterol"
        }, {
          "system": "http://snomed.info/sct",
          "code": "121868005",
          "display": "Total cholesterol measurement"
        } ]
      },
      "subject": {
        "reference": "Patient/c0926fb6-adff-48b4-b7d4-5dffbcac1ba3",
        "display": "Neil Hicks"
      },
      "effectivePeriod": {
        "start": "2010-07-15T10:00:00+02:00"
      },
      "valueQuantity": {
        "value": 198,
        "unit": "mg/dL",
        "system": "http://unitsofmeasure.org",
        "code": "mg/dL"
      },
      "interpretation": [ {
        "coding": [ {
          "system": "http://terminology.hl7.org/CodeSystem/v3-ObservationInterpretation",
          "code": "N"
        } ]
      } ],
      "referenceRange": [ {
        "text": "125-200 mg/dL"
      } ]
    }
  }, {
    "resource": {
      "resourceType": "Observation",
      "id": "b662cfe7-232a-4119-8613-4033579503cb",
      "identifier": [ {
        "use": "official",
        "value": "107c2dc0-67a5-11db-bd13-0800200c9a66"
      } ],
      "status": "final",
      "category": [ {
        "coding": [ {
          "system": "http://terminology.hl7.org/CodeSystem/observation-category",
          "code": "laboratory"
        } ]
      } ],
      "code": {
        "coding": [ {
          "system": "http://loinc.org",
          "code": "14646-4",
          "display": "HDLc SerPl-sCnc"
        }, {
          "system": "http://www.ama-assn.org/go/cpt",
          "code": "83701",
          "display": "Lipoprotein bld, hr fraction"
        }, {
          "system": "http://snomed.info/sct",
          "code": "28036006",
          "display": "High density lipoprotein cholesterol measurement"
        } ]
      },
      "subject": {
        "reference": "Patient/c0926fb6-adff-48b4-b7d4-5dffbcac1ba3",
        "display": "Neil Hicks"
      },
      "effectivePeriod": {
        "start": "2010-07-15T10:00:00+02:00"
      },
      "valueQuantity": {
        "value": 65,
        "unit": "mg/dL",
        "system": "http://unitsofmeasure.org",
        "code": "mg/dL"
      },
      "interpretation": [ {
        "coding": [ {
          "system": "http://terminology.hl7.org/CodeSystem/v3-ObservationInterpretation",
          "code": "N"
        } ]
      } ],
      "referenceRange": [ {
        "text": ">=40 mg/dL"
      } ]
    }
  }, {
    "resource": {
      "resourceType": "Observation",
      "id": "7affdfed-ec01-41c3-91c6-3679119d24a4",
      "identifier": [ {
        "use": "official",
        "value": "107c2dc0-67a5-11db-bd13-0800200c9a66"
      } ],
      "status": "final",
      "category": [ {
        "coding": [ {
          "system": "http://terminology.hl7.org/CodeSystem/observation-category",
          "code": "laboratory"
        } ]
      } ],
      "code": {
        "coding": [ {
          "system": "http://loinc.org",
          "code": "12951-0",
          "display": "Trigl SerPl Calc-mCnc"
        }, {
          "system": "http://www.ama-assn.org/go/cpt",
          "code": "84478",
          "display": "Assay of triglycerides"
        }, {
          "system": "http://snomed.info/sct",
          "code": "14740000",
          "display": "Triglycerides measurement"
        } ]
      },
      "subject": {
        "reference": "Patient/c0926fb6-adff-48b4-b7d4-5dffbcac1ba3",
        "display": "Neil Hicks"
      },
      "effectivePeriod": {
        "start": "2010-07-15T10:00:00+02:00"
      },
      "valueQuantity": {
        "value": 165,
        "unit": "mg/dL",
        "system": "http://unitsofmeasure.org",
        "code": "mg/dL"
      },
      "interpretation": [ {
        "coding": [ {
          "system": "http://terminology.hl7.org/CodeSystem/v3-ObservationInterpretation",
          "code": "N"
        } ]
      } ],
      "referenceRange": [ {
        "text": "10-39 years: 55-110 mg/dL | 40-59 years: 70-150 mg/dL | >60 years: 80-150 mg/dL | Therapeutic Target: <100 mg/dL "
      } ]
    }
  }, {
    "resource": {
      "resourceType": "DiagnosticReport",
      "id": "64750586-abd8-4e43-a3bf-379dddd9d6c6",
      "identifier": [ {
        "use": "official",
        "value": "7d5a02b0-67a4-11db-bd13-0800200c9a66"
      } ],
      "status": "final",
      "category": [ {
        "coding": [ {
          "system": "http://terminology.hl7.org/CodeSystem/v2-0074",
          "code": "LAB",
          "display": "Laboratory"
        } ]
      } ],
      "code": {
        "coding": [ {
          "system": "http://snomed.info/sct",
          "code": "116784002",
          "display": "Pathology"
        } ]
      },
      "subject": {
        "reference": "Patient/c0926fb6-adff-48b4-b7d4-5dffbcac1ba3",
        "display": "Neil Hicks"
      },
      "result": [ {
        "reference": "Observation/f3031249-aab0-4749-9a65-b1b0604e3215",
        "display": "Gleason Score Spec Ql"
      } ]
    }
  }, {
    "resource": {
      "resourceType": "Observation",
      "id": "f3031249-aab0-4749-9a65-b1b0604e3215",
      "identifier": [ {
        "use": "official",
        "value": "107c2dc0-67a5-11db-bd13-0800200c9a66"
      } ],
      "status": "final",
      "category": [ {
        "coding": [ {
          "system": "http://terminology.hl7.org/CodeSystem/observation-category",
          "code": "laboratory"
        } ]
      } ],
      "code": {
        "coding": [ {
          "system": "http://loinc.org",
          "code": "35266-6",
          "display": "Gleason Score Spec Ql"
        }, {
          "system": "http://snomed.info/sct",
          "code": "384997002",
          "display": "Total Gleason score"
        } ]
      },
      "subject": {
        "reference": "Patient/c0926fb6-adff-48b4-b7d4-5dffbcac1ba3",
        "display": "Neil Hicks"
      },
      "effectivePeriod": {
        "start": "2010-07-05T10:00:00+02:00"
      },
      "valueQuantity": {
        "value": 5,
        "unit": "NA",
        "system": "http://unitsofmeasure.org",
        "code": "NA"
      },
      "interpretation": [ {
        "coding": [ {
          "system": "http://terminology.hl7.org/CodeSystem/v3-ObservationInterpretation",
          "code": "N"
        } ]
      } ],
      "referenceRange": [ {
        "text": "2-10"
      } ]
    }
  }, {
    "resource": {
      "resourceType": "Encounter",
      "id": "f9c1d5b6-a0ff-4b8b-9784-b684b9c5b24b",
      "identifier": [ {
        "use": "official",
        "value": "2a620155-9d11-439e-92b3-5d9815ff4de8"
      } ],
      "status": "finished",
      "type": [ {
        "coding": [ {
          "system": "http://www.ama-assn.org/go/cpt",
          "code": "99213",
          "display": "Office/outpatient visit, est"
        }, {
          "system": "urn:oid:2.16.840.1.113883.6.103",
          "code": "V70.0",
          "display": "Routine general medical examination at a health care facility"
        } ]
      } ],
      "subject": {
        "reference": "Patient/c0926fb6-adff-48b4-b7d4-5dffbcac1ba3",
        "display": "Neil Hicks"
      },
      "period": {
        "start": "2010-07-15T10:00:00+02:00"
      },
      "reasonCode": [ {
        "coding": [ {
          "system": "http://snomed.info/sct",
          "code": "49436004",
          "display": "Atrial Fibrillation"
        } ]
      }, {
        "coding": [ {
          "system": "http://snomed.info/sct",
          "code": "84114007",
          "display": "Heart Failure"
        } ]
      }, {
        "coding": [ {
          "system": "http://snomed.info/sct",
          "code": "59621000",
          "display": "Hypertension"
        } ]
      } ],
      "reasonReference": [ {
        "reference": "Condition/895069ed-39a2-42bc-9f5c-84b35df815e6",
        "display": "Hypertension"
      }, {
        "reference": "Condition/600d85bc-9d2f-4ad1-a9c4-9ad504ad43df",
        "display": "Heart Failure"
      }, {
        "reference": "Condition/bb9ab819-2e10-408c-86e4-c8e82d6a7762",
        "display": "Atrial Fibrillation"
      } ]
    }
  }, {
    "resource": {
      "resourceType": "Condition",
      "id": "895069ed-39a2-42bc-9f5c-84b35df815e6",
      "identifier": [ {
        "use": "official",
        "system": "urn:uuid:db734647-fc99-424c-a864-7e3cda82e703",
        "value": "45665"
      } ],
      "clinicalStatus": {
        "coding": [ {
          "system": "http://terminology.hl7.org/CodeSystem/condition-clinical",
          "code": "active",
          "display": "Active"
        } ]
      },
      "category": [ {
        "coding": [ {
          "system": "http://hl7.org/fhir/condition-category",
          "code": "encounter-diagnosis",
          "display": "Encounter Diagnosis"
        } ]
      } ],
      "code": {
        "coding": [ {
          "system": "http://snomed.info/sct",
          "code": "59621000",
          "display": "Hypertension"
        }, {
          "system": "urn:oid:2.16.840.1.113883.6.90",
          "code": "I10",
          "display": "Essential (primary) hypertension"
        }, {
          "system": "urn:oid:2.16.840.1.113883.6.103",
          "code": "401.9",
          "display": "Unspecified essential hypertension"
        } ]
      },
      "subject": {
        "reference": "Patient/c0926fb6-adff-48b4-b7d4-5dffbcac1ba3",
        "display": "Neil Hicks"
      },
      "onsetDateTime": "2010-07-15T10:00:00+02:00"
    }
  }, {
    "resource": {
      "resourceType": "Condition",
      "id": "600d85bc-9d2f-4ad1-a9c4-9ad504ad43df",
      "identifier": [ {
        "use": "official",
        "system": "urn:uuid:db734647-fc99-424c-a864-7e3cda82e703",
        "value": "45665"
      } ],
      "clinicalStatus": {
        "coding": [ {
          "system": "http://terminology.hl7.org/CodeSystem/condition-clinical",
          "code": "active",
          "display": "Active"
        } ]
      },
      "category": [ {
        "coding": [ {
          "system": "http://hl7.org/fhir/condition-category",
          "code": "encounter-diagnosis",
          "display": "Encounter Diagnosis"
        } ]
      } ],
      "code": {
        "coding": [ {
          "system": "http://snomed.info/sct",
          "code": "84114007",
          "display": "Heart Failure"
        }, {
          "system": "urn:oid:2.16.840.1.113883.6.90",
          "code": "I50.9",
          "display": "Heart failure, unspecified"
        }, {
          "system": "urn:oid:2.16.840.1.113883.6.103",
          "code": "428.9",
          "display": "Heart failure, unspecified"
        } ]
      },
      "subject": {
        "reference": "Patient/c0926fb6-adff-48b4-b7d4-5dffbcac1ba3",
        "display": "Neil Hicks"
      },
      "onsetDateTime": "2010-07-15T10:00:00+02:00"
    }
  }, {
    "resource": {
      "resourceType": "Condition",
      "id": "bb9ab819-2e10-408c-86e4-c8e82d6a7762",
      "identifier": [ {
        "use": "official",
        "system": "urn:uuid:db734647-fc99-424c-a864-7e3cda82e703",
        "value": "45665"
      } ],
      "clinicalStatus": {
        "coding": [ {
          "system": "http://terminology.hl7.org/CodeSystem/condition-clinical",
          "code": "active",
          "display": "Active"
        } ]
      },
      "category": [ {
        "coding": [ {
          "system": "http://hl7.org/fhir/condition-category",
          "code": "encounter-diagnosis",
          "display": "Encounter Diagnosis"
        } ]
      } ],
      "code": {
        "coding": [ {
          "system": "http://snomed.info/sct",
          "code": "49436004",
          "display": "Atrial Fibrillation"
        }, {
          "system": "urn:oid:2.16.840.1.113883.6.90",
          "code": "I48.91",
          "display": "Unspecified atrial fibrillation"
        }, {
          "system": "urn:oid:2.16.840.1.113883.6.103",
          "code": "427.31",
          "display": "Atrial fibrillation"
        } ]
      },
      "subject": {
        "reference": "Patient/c0926fb6-adff-48b4-b7d4-5dffbcac1ba3",
        "display": "Neil Hicks"
      },
      "onsetDateTime": "2010-07-15T10:00:00+02:00"
    }
  }, {
    "resource": {
      "resourceType": "Encounter",
      "id": "85daf027-3020-47a6-b2ef-0d1b8e1c7d3e",
      "identifier": [ {
        "use": "official",
        "value": "2a620155-9d11-439e-92b3-5d9815ff4de8"
      } ],
      "status": "finished",
      "type": [ {
        "coding": [ {
          "system": "http://www.ama-assn.org/go/cpt",
          "code": "99212",
          "display": "Office/outpatient visit, est"
        } ]
      } ],
      "subject": {
        "reference": "Patient/c0926fb6-adff-48b4-b7d4-5dffbcac1ba3",
        "display": "Neil Hicks"
      },
      "period": {
        "start": "2010-08-10T10:00:00+02:00"
      }
    }
  }, {
    "resource": {
      "resourceType": "Encounter",
      "id": "661d4f3e-46f3-493a-b48b-7729f7f645ad",
      "identifier": [ {
        "use": "official",
        "value": "2a620155-9d11-439e-92b3-5d9815ff4de8"
      } ],
      "status": "finished",
      "type": [ {
        "coding": [ {
          "system": "http://www.ama-assn.org/go/cpt",
          "code": "99213",
          "display": "Office/outpatient visit, est"
        }, {
          "system": "urn:oid:2.16.840.1.113883.6.103",
          "code": "V70.0",
          "display": "Routine general medical examination at a health care facility"
        } ]
      } ],
      "subject": {
        "reference": "Patient/c0926fb6-adff-48b4-b7d4-5dffbcac1ba3",
        "display": "Neil Hicks"
      },
      "period": {
        "start": "2010-09-15T10:00:00+02:00"
      },
      "reasonCode": [ {
        "coding": [ {
          "system": "http://snomed.info/sct",
          "code": "282743009",
          "display": "Pain Related to Prostate Cancer"
        } ]
      } ],
      "reasonReference": [ {
        "reference": "Condition/bb9ab819-2e10-408c-86e4-c8e82d6a7762",
        "display": "Atrial Fibrillation"
      } ]
    }
  }, {
    "resource": {
      "resourceType": "Encounter",
      "id": "056860e3-3d5b-4e12-93ed-5dddd820ca9a",
      "identifier": [ {
        "use": "official",
        "value": "2a620155-9d11-439e-92b3-5d9815ff4de8"
      } ],
      "status": "finished",
      "type": [ {
        "coding": [ {
          "system": "http://www.ama-assn.org/go/cpt",
          "code": "99238",
          "display": "Hospital discharge day"
        } ]
      } ],
      "subject": {
        "reference": "Patient/c0926fb6-adff-48b4-b7d4-5dffbcac1ba3",
        "display": "Neil Hicks"
      },
      "period": {
        "start": "2010-09-04T10:00:00+02:00"
      }
    }
  }, {
    "resource": {
      "resourceType": "Encounter",
      "id": "1f3cc5ad-8b30-4521-af4c-0500d6b7299b",
      "identifier": [ {
        "use": "official",
        "value": "2a620155-9d11-439e-92b3-5d9815ff4de8"
      } ],
      "status": "finished",
      "type": [ {
        "coding": [ {
          "system": "http://www.ama-assn.org/go/cpt",
          "code": "99251",
          "display": "Initial inpatient consult"
        } ]
      } ],
      "subject": {
        "reference": "Patient/c0926fb6-adff-48b4-b7d4-5dffbcac1ba3",
        "display": "Neil Hicks"
      },
      "period": {
        "start": "2010-08-31T10:00:00+02:00"
      },
      "reasonCode": [ {
        "coding": [ {
          "system": "http://snomed.info/sct",
          "code": "261650005",
          "display": "AJCC Cancer Stage Low Risk Recurrence Prostat"
        } ]
      }, {
        "coding": [ {
          "system": "http://snomed.info/sct",
          "code": "399068003",
          "display": "Prostate Cancer"
        } ]
      } ],
      "reasonReference": [ {
        "reference": "Condition/bb9ab819-2e10-408c-86e4-c8e82d6a7762",
        "display": "Atrial Fibrillation"
      }, {
        "reference": "Condition/bb9ab819-2e10-408c-86e4-c8e82d6a7762",
        "display": "Atrial Fibrillation"
      } ]
    }
  }, {
    "resource": {
      "resourceType": "Encounter",
      "id": "777d205f-0284-40ce-a0bb-d09882e56cf3",
      "identifier": [ {
        "use": "official",
        "value": "2a620155-9d11-439e-92b3-5d9815ff4de8"
      } ],
      "status": "finished",
      "type": [ {
        "coding": [ {
          "system": "http://www.ama-assn.org/go/cpt",
          "code": "99212",
          "display": "Office/outpatient visit, est"
        } ]
      } ],
      "subject": {
        "reference": "Patient/c0926fb6-adff-48b4-b7d4-5dffbcac1ba3",
        "display": "Neil Hicks"
      },
      "period": {
        "start": "2010-11-10T10:00:00+01:00"
      }
    }
  } ]
}