{
  "resourceType": "Bundle",
  "entry": [ {
    "resource": {
      "resourceType": "Composition",
      "id": "18adf8e8-db10-47e7-ba16-ed25cc6abe71",
      "identifier": {
        "use": "official",
        "value": "db734647-fc99-424c-a864-7e3cda82e703"
      },
      "status": "preliminary",
      "type": {
        "coding": [ {
          "system": "http://loinc.org",
          "code": "34133-9",
          "display": "Summarization of Episode Note"
        } ]
      },
      "category": [ {
        "coding": [ {
          "system": "http://hl7.org/fhir/ValueSet/doc-classcodes",
          "code": "LP173421-7",
          "display": "Note"
        } ]
      } ],
      "subject": {
        "reference": "Patient/4c05f511-7aaf-4377-93e8-4a392fee9229",
        "display": "Shannon Gibson"
      },
      "date": "2014-04-16T11:55:19+02:00",
      "author": [ {
        "reference": "Practitioner/3e45454b-fea7-43de-977e-96a46d7af6bb",
        "display": "Henry Seven MD"
      } ],
      "title": "Community Health and Hospitals: Health Summary",
      "confidentiality": "N",
      "attester": [ {
        "mode": "legal",
        "time": "2013-04-18T09:00:00+05:00",
        "party": {
          "reference": "Practitioner/2a2f2dd7-f6fc-44ff-8fd5-1809b3e35f18",
          "display": "Henry Seven"
        }
      }, {
        "mode": "professional",
        "time": "2014-04-16T11:55:19+02:00",
        "party": {
          "reference": "Practitioner/2a2f2dd7-f6fc-44ff-8fd5-1809b3e35f18",
          "display": "Henry Seven"
        }
      } ],
      "custodian": {
        "reference": "Organization/fac66c4a-5f09-4e49-96da-e6201296cc75",
        "display": "Community Health and Hospitals"
      },
      "event": [ {
        "period": {
          "start": "2010-03-31T10:00:00+02:00",
          "end": "2010-12-27T10:00:00+01:00"
        },
        "detail": [ {
          "reference": "Practitioner/82118acc-9736-4bfd-8e1a-6a8e7d15c5f5",
          "display": "Henry Seven MD"
        } ]
      } ],
      "section": [ {
        "title": "Social History",
        "code": {
          "coding": [ {
            "system": "http://loinc.org",
            "code": "29762-2",
            "display": "Social History"
          } ]
        },
        "text": {
          "status": "additional",
          "div": "<div xmlns=\"http://www.w3.org/1999/xhtml\"><table><thead><tr><th>Group Description</th><th>Code System</th><th>Code</th><th>Code Description</th><th>Date and Time</th><th>Status</th></tr></thead><tbody><tr><td>Tobacco Use</td><td>SNOMED-CT</td><td>266919005</td><td><span/>Never smoker (Never Smoked)</td><td>03-31-2010 10:00:00</td><td>Active</td></tr><tr><td/><td>SNOMED-CT</td><td>449868002</td><td>Current every day smoker</td><td/><td/></tr></tbody></table></div>"
        },
        "mode": "snapshot",
        "entry": [ {
          "reference": "Observation/1dbdecd8-ec4c-4f4f-a6bd-da6c16d7c34b"
        } ]
      }, {
        "title": "Problems",
        "code": {
          "coding": [ {
            "system": "http://loinc.org",
            "code": "11450-4",
            "display": "PROBLEM LIST"
          } ]
        },
        "text": {
          "status": "additional",
          "div": "<div xmlns=\"http://www.w3.org/1999/xhtml\"><table><thead><tr><th>Group Description</th><th>Code System</th><th>Code</th><th>Code Description</th><th>Date and Time</th><th>Status</th></tr></thead><tbody><tr><td>Asthma</td><td>SNOMED-CT</td><td>195979001</td><td><span/>Asthma unspecified</td><td>03-31-2010 10:00:00</td><td>Active</td></tr><tr><td/><td>ICD-10-CM</td><td>J45</td><td>Asthma</td><td/><td/></tr><tr><td/><td>ICD-9-CM</td><td>493.92</td><td>Asthma, unspecified type, with (acute) exacerbation</td><td/><td/></tr><tr><td>Asthma Daytime Symptoms</td><td>SNOMED-CT</td><td>373899003</td><td><span/>Asthma daytime symptoms</td><td>03-31-2010 10:00:00</td><td>Active</td></tr><tr><td>Asthma Nighttime Symptoms</td><td>SNOMED-CT</td><td>395022009</td><td><span/>Asthma night-time symptoms</td><td>03-31-2010 10:00:00</td><td>Active</td></tr><tr><td>Estimated Date of Conception</td><td>SNOMED-CT</td><td>248986005</td><td><span/>Estimated date of conception</td><td>04-15-2010 10:00:00</td><td>Active</td></tr><tr><td>Pregnancy</td><td>SNOMED-CT</td><td>315903005</td><td><span/>Pregnant state, incidental</td><td>06-15-2010 10:00:00</td><td>Active</td></tr><tr><td/><td>ICD-10-CM</td><td>Z33.1</td><td>Pregnant state, incidental</td><td/><td/></tr><tr><td/><td>ICD-9-CM</td><td>V22.2</td><td>Pregnant state, incidental</td><td/><td/></tr><tr><td>Pregnancy-related diagnosis</td><td>SNOMED-CT</td><td>199305006</td><td><span/>Complications specific to multiple gestation</td><td>12-27-2010 10:00:00</td><td>Active</td></tr><tr><td/><td>ICD-10-CM</td><td>O30</td><td>Multiple gestation</td><td/><td/></tr><tr><td/><td>ICD-9-CM</td><td>651.90</td><td>Unspecified multiple gestation, unspecified as to episode of care or not applicable</td><td/><td/></tr></tbody></table></div>"
        },
        "mode": "snapshot",
        "entry": [ {
          "reference": "Condition/d138fa62-0fb6-4dc7-a000-407a7613ee8d",
          "display": "Asthma unspecified"
        } ]
      }, {
        "title": "Allergies,  Adverse Reactions & Alerts",
        "code": {
          "coding": [ {
            "system": "http://loinc.org",
            "code": "48765-2",
            "display": "Allergies, adverse reactions, alerts"
          } ]
        },
        "text": {
          "status": "additional",
          "div": "<div xmlns=\"http://www.w3.org/1999/xhtml\"><table><thead><tr><th>Group Description</th><th>Code System</th><th>Code</th><th>Code Description</th><th>Severity</th><th>Susceptibility</th><th>Date and Time</th><th>Status</th></tr></thead><tbody><tr><td>Allergy to Eggs</td><td>UNII</td><td>291P45F896</td><td><span/>Eggs</td><td><span/>Mild</td><td>Moderately Susceptible</td><td>03-31-2010 10:00:00</td><td>Active</td></tr><tr><td/><td>ICD-9-CM</td><td>V15.03</td><td>Allergy to eggs</td><td/><td/><td/><td/></tr><tr><td>Fosfomycin</td><td>RxNorm</td><td>808917</td><td><span/>Fosfomycin 33.3 MG/ML Oral Suspension</td><td><span/>Moderate</td><td>Very susceptible</td><td>03-31-2010 10:00:00</td><td>Active</td></tr><tr><td>Tetracyclines</td><td>RxNorm</td><td>406524</td><td><span/>Doxycycline 75 MG Enteric Coated Tablet</td><td><span/>Moderate</td><td>Susceptible</td><td>03-31-2010 10:00:00</td><td>Active</td></tr><tr><td/><td>NDF-RT</td><td>N0000006275</td><td>Tetracycline</td><td/><td/><td/><td/></tr></tbody></table></div>"
        },
        "mode": "snapshot",
        "entry": [ {
          "reference": "AllergyIntolerance/b7abb90d-9e33-435e-913e-abc2fd041e32",
          "display": "Fosfomycin + Fosfomycin 33.3 MG/ML Oral Suspension"
        }, {
          "reference": "AllergyIntolerance/b41b07a0-79cb-4258-a409-5db8e7015e8a",
          "display": "Allergy to Eggs + Eggs"
        }, {
          "reference": "AllergyIntolerance/2fb4f649-d870-44ca-a107-8cd59abf56a0",
          "display": "Tetracyclines + Doxycycline 75 MG Enteric Coated Tablet"
        } ]
      }, {
        "title": "Medications",
        "code": {
          "coding": [ {
            "system": "http://loinc.org",
            "code": "10160-0",
            "display": "History of Medication Use"
          } ]
        },
        "text": {
          "status": "additional",
          "div": "<div xmlns=\"http://www.w3.org/1999/xhtml\"><table><thead><tr><th>Group Description</th><th>Code System</th><th>Code</th><th>Code Description</th><th>Date and Time</th><th>Status</th></tr></thead><tbody><tr><td>Long acting inhaled beta 2 agonist</td><td>RxNorm</td><td>318142</td><td><span/>salmeterol 0.05 MG/ACTUAT Inhalant Powder</td><td>03-31-2010 10:00:00</td><td>Active</td></tr><tr><td>Short acting beta 2 agonist</td><td>RxNorm</td><td>630208</td><td><span/>Albuterol 0.83 MG/ML Inhalant Solution</td><td>03-31-2010 10:00:00</td><td>Active</td></tr></tbody></table></div>"
        },
        "mode": "snapshot",
        "entry": [ {
          "reference": "MedicationStatement/5e77b714-f641-48fb-aebb-ed01f6935b37",
          "display": "Albuterol 0.83 MG/ML Inhalant Solution"
        }, {
          "reference": "MedicationStatement/15874660-06f7-4c96-8d66-94537510c458",
          "display": "salmeterol 0.05 MG/ACTUAT Inhalant Powder"
        } ]
      }, {
        "title": "Procedures",
        "code": {
          "coding": [ {
            "system": "http://loinc.org",
            "code": "47519-4",
            "display": "HISTORY OF PROCEDURES"
          } ]
        },
        "text": {
          "status": "additional",
          "div": "<div xmlns=\"http://www.w3.org/1999/xhtml\"><table><thead><tr><th>Group Description</th><th>Code System</th><th>Code</th><th>Code Description</th><th>Date and Time</th><th>Status</th></tr></thead><tbody><tr><td>Asthma Symptom Assessment Tool</td><td>SNOMED-CT</td><td>401011001</td><td><span/>Peak expiratory flow rate monitoring using diary</td><td>03-31-2010 10:00:00</td><td>Performed</td></tr><tr><td>Delivery Live Births-Procedure</td><td>CPT</td><td>59410</td><td><span/>Obstetrical care</td><td>12-27-2010 10:00:00</td><td>Performed</td></tr><tr><td/><td>SNOMED-CT</td><td>169961004</td><td>Normal birth</td><td/><td/></tr></tbody></table></div>"
        },
        "mode": "snapshot",
        "entry": [ {
          "reference": "Procedure/a264d2cb-6248-46f5-aec7-835b0945e832",
          "display": "Obstetrical care"
        } ]
      }, {
        "title": "Encounters",
        "code": {
          "coding": [ {
            "system": "http://loinc.org",
            "code": "46240-8",
            "display": "History of encounters"
          } ]
        },
        "text": {
          "status": "additional",
          "div": "<div xmlns=\"http://www.w3.org/1999/xhtml\"><table><thead><tr><th>Group Description</th><th>Code System</th><th>Code</th><th>Code Description</th><th>Date and Time</th><th>Status</th></tr></thead><tbody><tr><td>Encounter Outpatient</td><td>CPT</td><td>99213</td><td><span/>Office/outpatient visit, est</td><td>03-31-2010 10:00:00</td><td>Performed</td></tr><tr><td/><td>ICD-9-CM</td><td>V70.0</td><td>Routine general medical examination at a health care facility</td><td/><td/></tr><tr><td>Encounter Outpatient</td><td>CPT</td><td>99213</td><td><span/>Office/outpatient visit, est</td><td>06-15-2010 10:00:00</td><td>Performed</td></tr><tr><td/><td>ICD-9-CM</td><td>V70.0</td><td>Routine general medical examination at a health care facility</td><td/><td/></tr><tr><td>Prenatal Visit</td><td>SNOMED-CT</td><td>424619006</td><td><span/>Prenatal visit</td><td>07-09-2010 10:00:00</td><td>Performed</td></tr><tr><td/><td>ICD-10-CM</td><td>Z34.9</td><td>Encounter for supervision of normal pregnancy, unspecified</td><td/><td/></tr><tr><td/><td>ICD-9-CM</td><td>V22.2</td><td>Pregnant state, incidental</td><td/><td/></tr><tr><td>Prenatal Visit</td><td>SNOMED-CT</td><td>424619006</td><td><span/>Prenatal visit</td><td>10-01-2010 10:00:00</td><td>Performed</td></tr><tr><td/><td>ICD-10-CM</td><td>Z34.9</td><td>Encounter for supervision of normal pregnancy, unspecified</td><td/><td/></tr><tr><td/><td>ICD-9-CM</td><td>V22.2</td><td>Pregnant state, incidental</td><td/><td/></tr><tr><td>Prenatal Visit</td><td>SNOMED-CT</td><td>424619006</td><td><span/>Prenatal visit</td><td>11-01-2010 10:00:00</td><td>Performed</td></tr><tr><td/><td>ICD-10-CM</td><td>Z34.9</td><td>Encounter for supervision of normal pregnancy, unspecified</td><td/><td/></tr><tr><td/><td>ICD-9-CM</td><td>V22.2</td><td>Pregnant state, incidental</td><td/><td/></tr><tr><td>Prenatal Visit</td><td>SNOMED-CT</td><td>424619006</td><td><span/>Prenatal visit</td><td>11-25-2010 10:00:00</td><td>Performed</td></tr><tr><td/><td>ICD-10-CM</td><td>Z34.9</td><td>Encounter for supervision of normal pregnancy, unspecified</td><td/><td/></tr><tr><td/><td>ICD-9-CM</td><td>V22.2</td><td>Pregnant state, incidental</td><td/><td/></tr><tr><td>Prenatal Visit</td><td>SNOMED-CT</td><td>424619006</td><td><span/>Prenatal visit</td><td>12-06-2010 10:00:00</td><td>Performed</td></tr><tr><td/><td>ICD-10-CM</td><td>Z34.9</td><td>Encounter for supervision of normal pregnancy, unspecified</td><td/><td/></tr><tr><td/><td>ICD-9-CM</td><td>V22.2</td><td>Pregnant state, incidental</td><td/><td/></tr><tr><td>Prenatal Visit</td><td>SNOMED-CT</td><td>424619006</td><td><span/>Prenatal visit</td><td>12-16-2010 10:00:00</td><td>Performed</td></tr><tr><td/><td>ICD-10-CM</td><td>Z34.9</td><td>Encounter for supervision of normal pregnancy, unspecified</td><td/><td/></tr><tr><td/><td>ICD-9-CM</td><td>V22.2</td><td>Pregnant state, incidental</td><td/><td/></tr><tr><td>Encounter Acute Inpt</td><td>CPT</td><td>99251</td><td><span/>Initial inpatient consult</td><td>12-27-2010 10:00:00</td><td>Performed</td></tr></tbody></table></div>"
        },
        "mode": "snapshot",
        "entry": [ {
          "reference": "Encounter/d1acd965-37ef-42e9-8000-11554b59d999",
          "display": "Office/outpatient visit, est"
        }, {
          "reference": "Encounter/39cbaa77-d827-4abc-ba1a-10816a835c26",
          "display": "Prenatal visit"
        }, {
          "reference": "Encounter/55a42c05-67d3-42e9-bf75-4d514ce1284d",
          "display": "Initial inpatient consult"
        }, {
          "reference": "Encounter/291c02ea-ca21-4ef1-ac09-f0465054ab28",
          "display": "Prenatal visit"
        }, {
          "reference": "Encounter/fee9e589-779a-48f3-b6cd-c3cd659fd2b9",
          "display": "Office/outpatient visit, est"
        }, {
          "reference": "Encounter/910a06e8-d0b4-4fd9-8a52-eacbfdab88cb",
          "display": "Prenatal visit"
        }, {
          "reference": "Encounter/6877737f-6ea7-4018-8393-448ea2a3ccce",
          "display": "Prenatal visit"
        }, {
          "reference": "Encounter/3e581c29-3bc2-4664-b38d-1f1c99f4472f",
          "display": "Prenatal visit"
        }, {
          "reference": "Encounter/4a377c0b-debb-42d1-8fee-f5eda1ca6140",
          "display": "Prenatal visit"
        } ]
      }, {
        "title": "Results",
        "code": {
          "coding": [ {
            "system": "http://loinc.org",
            "code": "30954-2",
            "display": "Results"
          } ]
        },
        "text": {
          "status": "additional",
          "div": "<div xmlns=\"http://www.w3.org/1999/xhtml\"><table><thead><tr><th>Group Description</th><th>Code System</th><th>Code</th><th>Code Description</th><th>Value</th><th>Unit</th><th>Reference Range</th><th>Date and Time</th><th>Status</th></tr></thead><tbody><tr><td>Chlamydia Screening</td><td>LOINC</td><td>31777-6</td><td><span/>C trach Ag XXX Ql</td><td>negative</td><td/><td>NA</td><td>03-31-2010 10:00:00</td><td>Completed</td></tr><tr><td/><td>CPT</td><td>87270</td><td>Chlamydia trachomatis ag if</td><td/><td/><td/><td/><td/></tr><tr><td/><td>SNOMED-CT</td><td>121953005</td><td>Measurement of Chlamydia pneumoniae antibody</td><td/><td/><td/><td/><td/></tr><tr><td>Pap Test</td><td>LOINC</td><td>10524-7</td><td><span/>Cyto Cervix</td><td>normal</td><td/><td>NA</td><td>03-31-2010 10:00:00</td><td>Completed</td></tr><tr><td/><td>CPT</td><td>88174</td><td>Cytopath, c/v auto, in fluid</td><td/><td/><td/><td/><td/></tr><tr><td/><td>HCPCS</td><td>G0147</td><td>Scr c/v cyto, automated sys</td><td/><td/><td/><td/><td/></tr><tr><td/><td>ICD-10-CM</td><td>Z12.4</td><td>Encounter for screening for malignant neoplasm of cervix</td><td/><td/><td/><td/><td/></tr><tr><td/><td>ICD-9-CM</td><td>V72.32</td><td>Encounter for Papanicolaou cervical smear to confirm findings of recent normal smear following initial abnormal smear</td><td/><td/><td/><td/><td/></tr><tr><td/><td>SNOMED-CT</td><td>440623000</td><td>Microscopic examination of cervical Papanicolaou smear</td><td/><td/><td/><td/><td/></tr><tr><td>Pregnancy Test</td><td>LOINC</td><td>2119-6</td><td><span/>HCG SerPl-sCnc</td><td>positive</td><td/><td>NA</td><td>06-15-2010 10:00:00</td><td>Completed</td></tr><tr><td/><td>CPT</td><td>84702</td><td>Chorionic gonadotropin test</td><td/><td/><td/><td/><td/></tr><tr><td>HIV Screening</td><td>LOINC</td><td>73906-0</td><td><span/>HIV1+2 IgG Bld Ql EIA.rapid</td><td>non-reactive</td><td/><td>NA</td><td>10-01-2010 10:00:00</td><td>Completed</td></tr><tr><td/><td>CPT</td><td>87389</td><td>Hiv-1 ag w/hiv-1 &amp; hiv-2 ab</td><td/><td/><td/><td/><td/></tr><tr><td/><td>SNOMED-CT</td><td>171121004</td><td>Human immunodeficiency virus screening</td><td/><td/><td/><td/><td/></tr><tr><td>Rh Status Mother</td><td>LOINC</td><td>1314-4</td><td><span/>Rh Ig Scn Bld-Imp</td><td>positive</td><td/><td>NA</td><td>10-01-2010 10:00:00</td><td>Completed</td></tr></tbody></table></div>"
        },
        "mode": "snapshot",
        "entry": [ {
          "reference": "DiagnosticReport/38a6351c-6717-4d64-8485-6c2671f237ee",
          "display": "Cytology"
        }, {
          "reference": "DiagnosticReport/eb7a6be8-0343-4b8f-a9a0-eee79e4482dc",
          "display": "Microbiology"
        }, {
          "reference": "DiagnosticReport/eb4e8c94-b3e6-4101-8004-2817267ca579",
          "display": "Serology"
        }, {
          "reference": "DiagnosticReport/eec50b67-6e3f-495a-b0c3-d03e5126ea1f",
          "display": "Serology"
        } ]
      }, {
        "title": "Vital Signs",
        "code": {
          "coding": [ {
            "system": "http://loinc.org",
            "code": "8716-3",
            "display": "Vital Signs"
          } ]
        },
        "text": {
          "status": "additional",
          "div": "<div xmlns=\"http://www.w3.org/1999/xhtml\"><table><thead><tr><th>Group Description</th><th>Code System</th><th>Code</th><th>Code Description</th><th>Value</th><th>Unit</th><th>Date and Time</th><th>Status</th></tr></thead><tbody><tr><td>Diastolic Blood Pressure</td><td>LOINC</td><td>8462-4</td><td><span/>BP Diastolic</td><td>66</td><td>mm[Hg]</td><td>07-09-2010 10:00:00</td><td>Finding</td></tr><tr><td>Systolic Blood Pressure</td><td>LOINC</td><td>8480-6</td><td><span/>BP Systolic</td><td>114</td><td>mm[Hg]</td><td>07-09-2010 10:00:00</td><td>Finding</td></tr><tr><td>Diastolic Blood Pressure</td><td>LOINC</td><td>8462-4</td><td><span/>BP Diastolic</td><td>66</td><td>mm[Hg]</td><td>10-01-2010 10:00:00</td><td>Finding</td></tr><tr><td>Systolic Blood Pressure</td><td>LOINC</td><td>8480-6</td><td><span/>BP Systolic</td><td>116</td><td>mm[Hg]</td><td>10-01-2010 10:00:00</td><td>Finding</td></tr><tr><td>Diastolic Blood Pressure</td><td>LOINC</td><td>8462-4</td><td><span/>BP Diastolic</td><td>68</td><td>mm[Hg]</td><td>11-01-2010 10:00:00</td><td>Finding</td></tr><tr><td>Systolic Blood Pressure</td><td>LOINC</td><td>8480-6</td><td><span/>BP Systolic</td><td>118</td><td>mm[Hg]</td><td>11-01-2010 10:00:00</td><td>Finding</td></tr><tr><td>Diastolic Blood Pressure</td><td>LOINC</td><td>8462-4</td><td><span/>BP Diastolic</td><td>70</td><td>mm[Hg]</td><td>11-25-2010 10:00:00</td><td>Finding</td></tr><tr><td>Systolic Blood Pressure</td><td>LOINC</td><td>8480-6</td><td><span/>BP Systolic</td><td>120</td><td>mm[Hg]</td><td>11-25-2010 10:00:00</td><td>Finding</td></tr><tr><td>Diastolic Blood Pressure</td><td>LOINC</td><td>8462-4</td><td><span/>BP Diastolic</td><td>70</td><td>mm[Hg]</td><td>12-06-2010 10:00:00</td><td>Finding</td></tr><tr><td>Systolic Blood Pressure</td><td>LOINC</td><td>8480-6</td><td><span/>BP Systolic</td><td>118</td><td>mm[Hg]</td><td>12-06-2010 10:00:00</td><td>Finding</td></tr><tr><td>Diastolic Blood Pressure</td><td>LOINC</td><td>8462-4</td><td><span/>BP Diastolic</td><td>68</td><td>mm[Hg]</td><td>12-16-2010 10:00:00</td><td>Finding</td></tr><tr><td>Systolic Blood Pressure</td><td>LOINC</td><td>8480-6</td><td><span/>BP Systolic</td><td>116</td><td>mm[Hg]</td><td>12-16-2010 10:00:00</td><td>Finding</td></tr></tbody></table></div>"
        },
        "mode": "snapshot",
        "entry": [ {
          "reference": "Observation/4ff2c3c6-46c6-4ffa-867a-63d33dde493e",
          "display": "BP Systolic"
        }, {
          "reference": "Observation/805fb962-f6d5-42f4-b33e-a39768e03bdf",
          "display": "BP Diastolic"
        }, {
          "reference": "Observation/e6c08d34-814f-4b83-9237-d8446b01164a",
          "display": "BP Systolic"
        }, {
          "reference": "Observation/85596c6b-7fdd-4d2e-8c7d-e10159d5093e",
          "display": "BP Diastolic"
        }, {
          "reference": "Observation/d4eb06e1-69d4-401d-aa22-9d0b7d84cabd",
          "display": "BP Systolic"
        }, {
          "reference": "Observation/104e7cab-5a88-4b6f-a6e6-8db2bde7eb27",
          "display": "BP Diastolic"
        }, {
          "reference": "Observation/c2e0eb9a-f49e-4089-b3b8-3e50ded2790f",
          "display": "BP Diastolic"
        }, {
          "reference": "Observation/86f29abd-03be-4019-8734-27faf1d881e4",
          "display": "BP Systolic"
        }, {
          "reference": "Observation/22526534-c0cd-413c-b302-bc4b1d648465",
          "display": "BP Systolic"
        }, {
          "reference": "Observation/6d2da381-a898-4193-9e01-77ebfa815092",
          "display": "BP Diastolic"
        }, {
          "reference": "Observation/48f7d68f-7c32-47a7-960c-a14e94dee394",
          "display": "BP Diastolic"
        }, {
          "reference": "Observation/cf74f232-7f48-4473-8d5f-0148f75200cb",
          "display": "BP Systolic"
        } ]
      } ]
    }
  }, {
    "resource": {
      "resourceType": "Patient",
      "id": "4c05f511-7aaf-4377-93e8-4a392fee9229",
      "extension": [ {
        "url": "http://hl7.org/fhir/StructureDefinition/patient-religion",
        "valueCodeableConcept": {
          "coding": [ {
            "system": "urn:oid:2.16.840.1.113883.5.1076",
            "code": "1077",
            "display": "Protestant"
          } ]
        }
      }, {
        "url": "http://hl7.org/fhir/us/core/StructureDefinition/us-core-race",
        "extension": [ {
          "url": "text",
          "valueString": "Native Hawaiian or Other Pacific Islander"
        }, {
          "url": "ombCategory",
          "valueCoding": {
            "system": "urn:oid:2.16.840.1.113883.6.238",
            "code": "2076-8",
            "display": "Native Hawaiian or Other Pacific Islander"
          }
        } ]
      }, {
        "url": "http://hl7.org/fhir/us/core/StructureDefinition/us-core-ethnicity",
        "extension": [ {
          "url": "text",
          "valueString": "Not Hispanic or Latino"
        }, {
          "url": "ombCategory",
          "valueCoding": {
            "system": "urn:oid:2.16.840.1.113883.6.238",
            "code": "2186-5",
            "display": "Not Hispanic or Latino"
          }
        } ]
      }, {
        "url": "http://hl7.org/fhir/StructureDefinition/patient-birthPlace",
        "valueAddress": {
          "city": "Dayton",
          "state": "OH",
          "postalCode": "45402",
          "country": "US"
        }
      } ],
      "identifier": [ {
        "use": "official",
        "system": "urn:oid:2.16.840.1.113883.19.5.99999.2",
        "value": "998991"
      }, {
        "use": "official",
        "system": "urn:oid:2.16.840.1.113883.4.1",
        "value": "111-00-2330"
      } ],
      "name": [ {
        "use": "usual",
        "family": "Gibson",
        "given": [ "Shannon" ]
      } ],
      "telecom": [ {
        "system": "phone",
        "value": "(520)808-6518",
        "use": "mobile"
      } ],
      "gender": "female",
      "birthDate": "1989-05-02",
      "address": [ {
        "use": "home",
        "line": [ "2098 Polk Street" ],
        "city": "Tucson",
        "state": "AZ",
        "postalCode": "85714",
        "country": "US"
      } ],
      "maritalStatus": {
        "coding": [ {
          "system": "http://terminology.hl7.org/CodeSystem/v3-MaritalStatus",
          "code": "M",
          "display": "Married"
        } ]
      },
      "contact": [ {
        "relationship": [ {
          "coding": [ {
            "system": "http://terminology.hl7.org/CodeSystem/v2-0131",
            "code": "C",
            "display": "Emergency Contact"
          } ]
        } ],
        "name": {
          "family": "Powers",
          "given": [ "Joey" ],
          "prefix": [ "Mr." ]
        },
        "telecom": [ {
          "system": "phone",
          "value": "(812)241-8718",
          "use": "home"
        }, {
          "system": "email",
          "value": "JoeyJPowers@einrot.com",
          "use": "work"
        } ],
        "address": {
          "use": "home",
          "line": [ "3331 Charack Road" ],
          "city": "Terre Haute",
          "state": "IN",
          "postalCode": "47802",
          "country": "US"
        }
      } ],
      "communication": [ {
        "language": {
          "coding": [ {
            "system": "urn:ietf:bcp:47",
            "code": "spa"
          } ]
        },
        "preferred": true
      } ],
      "managingOrganization": {
        "reference": "Organization/5fa6aaf4-19c6-4f95-9120-ffb0b62acb47",
        "display": "Community Health and Hospitals"
      }
    }
  }, {
    "resource": {
      "resourceType": "Organization",
      "id": "5fa6aaf4-19c6-4f95-9120-ffb0b62acb47",
      "identifier": [ {
        "use": "official",
        "value": "2.16.840.1.113883.4.6"
      } ],
      "name": "Community Health and Hospitals",
      "telecom": [ {
        "system": "phone",
        "value": " 555-555-5000",
        "use": "work"
      } ],
      "address": [ {
        "line": [ "1001 Village Avenue" ],
        "city": "Portland",
        "state": "OR",
        "postalCode": "99123",
        "country": "US"
      } ]
    }
  }, {
    "resource": {
      "resourceType": "Practitioner",
      "id": "3e45454b-fea7-43de-977e-96a46d7af6bb",
      "identifier": [ {
        "use": "official",
        "system": "urn:oid:2.16.840.1.113883.4.6",
        "value": "99999999"
      } ],
      "name": [ {
        "family": "Seven",
        "given": [ "Henry" ],
        "suffix": [ "MD" ]
      } ],
      "telecom": [ {
        "system": "phone",
        "value": "555-555-1002",
        "use": "work"
      } ],
      "address": [ {
        "line": [ "1002 Healthcare Drive" ],
        "city": "Portland",
        "state": "OR",
        "postalCode": "99123",
        "country": "US"
      } ]
    }
  }, {
    "resource": {
      "resourceType": "Practitioner",
      "id": "2a2f2dd7-f6fc-44ff-8fd5-1809b3e35f18",
      "identifier": [ {
        "use": "official",
        "system": "http://hl7.org/fhir/sid/us-npi",
        "value": "999999999"
      } ],
      "name": [ {
        "family": "Seven",
        "given": [ "Henry" ]
      } ],
      "telecom": [ {
        "system": "phone",
        "value": "555-555-1002",
        "use": "work"
      } ],
      "address": [ {
        "line": [ "1001 Village Avenue" ],
        "city": "Portland",
        "state": "OR",
        "postalCode": "99123",
        "country": "US"
      } ]
    }
  }, {
    "resource": {
      "resourceType": "Practitioner",
      "id": "82118acc-9736-4bfd-8e1a-6a8e7d15c5f5",
      "identifier": [ {
        "use": "official",
        "system": "http://hl7.org/fhir/sid/us-npi",
        "value": "PseudoMD-1"
      } ],
      "name": [ {
        "family": "Seven",
        "given": [ "Henry" ],
        "suffix": [ "MD" ]
      } ],
      "telecom": [ {
        "system": "phone",
        "value": "+1-555-555-5000",
        "use": "home"
      } ],
      "address": [ {
        "line": [ "1001 Village Avenue" ],
        "city": "Portland",
        "state": "OR",
        "postalCode": "99123",
        "country": "US"
      } ]
    }
  }, {
    "resource": {
      "resourceType": "Organization",
      "id": "fac66c4a-5f09-4e49-96da-e6201296cc75",
      "identifier": [ {
        "use": "official",
        "system": "urn:oid:2.16.840.1.113883.4.6",
        "value": "99999999"
      } ],
      "name": "Community Health and Hospitals",
      "telecom": [ {
        "system": "phone",
        "value": " 555-555-1002",
        "use": "work"
      } ],
      "address": [ {
        "use": "work",
        "line": [ "1002 Healthcare Drive" ],
        "city": "Portland",
        "state": "OR",
        "postalCode": "99123",
        "country": "US"
      } ]
    }
  }, {
    "resource": {
      "resourceType": "Observation",
      "id": "1dbdecd8-ec4c-4f4f-a6bd-da6c16d7c34b",
      "identifier": [ {
        "use": "official",
        "system": "urn:oid:2.16.840.1.113883.19",
        "value": "123456789"
      } ],
      "status": "final",
      "code": {
        "coding": [ {
          "system": "urn:oid:2.16.840.1.113883.5.4",
          "code": "ASSERTION"
        } ]
      },
      "subject": {
        "reference": "Patient/4c05f511-7aaf-4377-93e8-4a392fee9229",
        "display": "Shannon Gibson"
      },
      "effectivePeriod": {
        "start": "2010-03-31T10:00:00+02:00"
      },
      "valueCodeableConcept": {
        "coding": [ {
          "system": "http://snomed.info/sct",
          "code": "266919005",
          "display": "Never smoker (Never Smoked)"
        }, {
          "system": "http://snomed.info/sct",
          "code": "449868002",
          "display": "Current every day smoker"
        } ]
      }
    }
  }, {
    "resource": {
      "resourceType": "Condition",
      "id": "d138fa62-0fb6-4dc7-a000-407a7613ee8d",
      "identifier": [ {
        "use": "official",
        "value": "9d3d416d-45ab-4da1-912f-4583e0632000"
      } ],
      "clinicalStatus": {
        "coding": [ {
          "system": "http://terminology.hl7.org/CodeSystem/condition-clinical",
          "code": "active",
          "display": "Active"
        } ]
      },
      "verificationStatus": {
        "coding": [ {
          "system": "http://terminology.hl7.org/CodeSystem/condition-ver-status",
          "code": "confirmed",
          "display": "Confirmed"
        } ]
      },
      "category": [ {
        "coding": [ {
          "system": "http://terminology.hl7.org/CodeSystem/condition-category",
          "code": "problem-list-item",
          "display": "Problem List Item"
        } ]
      } ],
      "code": {
        "coding": [ {
          "system": "http://snomed.info/sct",
          "code": "195979001",
          "display": "Asthma unspecified"
        }, {
          "system": "urn:oid:2.16.840.1.113883.6.90",
          "code": "J45",
          "display": "Asthma"
        }, {
          "system": "urn:oid:2.16.840.1.113883.6.103",
          "code": "493.92",
          "display": "Asthma, unspecified type, with (acute) exacerbation"
        } ]
      },
      "subject": {
        "reference": "Patient/4c05f511-7aaf-4377-93e8-4a392fee9229",
        "display": "Shannon Gibson"
      },
      "onsetDateTime": "2010-03-31T10:00:00+02:00"
    }
  }, {
    "resource": {
      "resourceType": "AllergyIntolerance",
      "id": "b7abb90d-9e33-435e-913e-abc2fd041e32",
      "identifier": [ {
        "use": "official",
        "value": "36e3e930-7b14-11db-9fe1-0800200c9a66"
      } ],
      "clinicalStatus": {
        "coding": [ {
          "system": "http://terminology.hl7.org/CodeSystem/allergyintolerance-clinical",
          "code": "active",
          "display": "Active"
        } ]
      },
      "verificationStatus": {
        "coding": [ {
          "system": "http://terminology.hl7.org/CodeSystem/allergyintolerance-verification",
          "code": "confirmed",
          "display": "Confirmed"
        } ]
      },
      "type": "allergy",
      "category": [ "medication" ],
      "code": {
        "coding": [ {
          "system": "http://www.nlm.nih.gov/research/umls/rxnorm",
          "code": "808917",
          "display": "Fosfomycin 33.3 MG/ML Oral Suspension"
        } ],
        "text": "Fosfomycin + Fosfomycin 33.3 MG/ML Oral Suspension"
      },
      "patient": {
        "reference": "Patient/4c05f511-7aaf-4377-93e8-4a392fee9229",
        "display": "Shannon Gibson"
      },
      "recordedDate": "2010-03-31T10:00:00+02:00"
    }
  }, {
    "resource": {
      "resourceType": "AllergyIntolerance",
      "id": "b41b07a0-79cb-4258-a409-5db8e7015e8a",
      "identifier": [ {
        "use": "official",
        "value": "36e3e930-7b14-11db-9fe1-0800200c9a66"
      } ],
      "clinicalStatus": {
        "coding": [ {
          "system": "http://terminology.hl7.org/CodeSystem/allergyintolerance-clinical",
          "code": "active",
          "display": "Active"
        } ]
      },
      "verificationStatus": {
        "coding": [ {
          "system": "http://terminology.hl7.org/CodeSystem/allergyintolerance-verification",
          "code": "confirmed",
          "display": "Confirmed"
        } ]
      },
      "type": "allergy",
      "category": [ "food" ],
      "code": {
        "coding": [ {
          "system": "http://fdasis.nlm.nih.gov",
          "code": "291P45F896",
          "display": "Eggs"
        }, {
          "system": "urn:oid:2.16.840.1.113883.6.103",
          "code": "V15.03",
          "display": "Allergy to eggs"
        } ],
        "text": "Allergy to Eggs + Eggs"
      },
      "patient": {
        "reference": "Patient/4c05f511-7aaf-4377-93e8-4a392fee9229",
        "display": "Shannon Gibson"
      },
      "recordedDate": "2010-03-31T10:00:00+02:00"
    }
  }, {
    "resource": {
      "resourceType": "AllergyIntolerance",
      "id": "2fb4f649-d870-44ca-a107-8cd59abf56a0",
      "identifier": [ {
        "use": "official",
        "value": "36e3e930-7b14-11db-9fe1-0800200c9a66"
      } ],
      "clinicalStatus": {
        "coding": [ {
          "system": "http://terminology.hl7.org/CodeSystem/allergyintolerance-clinical",
          "code": "active",
          "display": "Active"
        } ]
      },
      "verificationStatus": {
        "coding": [ {
          "system": "http://terminology.hl7.org/CodeSystem/allergyintolerance-verification",
          "code": "confirmed",
          "display": "Confirmed"
        } ]
      },
      "type": "allergy",
      "category": [ "medication" ],
      "code": {
        "coding": [ {
          "system": "http://www.nlm.nih.gov/research/umls/rxnorm",
          "code": "406524",
          "display": "Doxycycline 75 MG Enteric Coated Tablet"
        }, {
          "system": "urn:oid:2.16.840.1.113883.3.26.1.5",
          "code": "N0000006275",
          "display": "Tetracycline"
        } ],
        "text": "Tetracyclines + Doxycycline 75 MG Enteric Coated Tablet"
      },
      "patient": {
        "reference": "Patient/4c05f511-7aaf-4377-93e8-4a392fee9229",
        "display": "Shannon Gibson"
      },
      "recordedDate": "2010-03-31T10:00:00+02:00"
    }
  }, {
    "resource": {
      "resourceType": "MedicationStatement",
      "id": "5e77b714-f641-48fb-aebb-ed01f6935b37",
      "extension": [ {
        "url": "http://hl7.org/fhir/3.0/StructureDefinition/extension-MedicationStatement.status",
        "valueCode": "UNKNOWN"
      } ],
      "identifier": [ {
        "use": "official",
        "value": "cdbd33f0-6cde-11db-9fe1-0800200c9a66"
      } ],
      "status": "completed",
      "medicationReference": {
        "reference": "Medication/a6ec8f96-9643-49d1-97a6-38385e10aa4a",
        "display": "Albuterol 0.83 MG/ML Inhalant Solution"
      },
      "subject": {
        "reference": "Patient/4c05f511-7aaf-4377-93e8-4a392fee9229",
        "display": "Shannon Gibson"
      },
      "effectivePeriod": {
        "start": "2010-03-31T10:00:00+02:00"
      }
    }
  }, {
    "resource": {
      "resourceType": "Medication",
      "id": "a6ec8f96-9643-49d1-97a6-38385e10aa4a",
      "code": {
        "coding": [ {
          "system": "http://www.nlm.nih.gov/research/umls/rxnorm",
          "code": "630208",
          "display": "Albuterol 0.83 MG/ML Inhalant Solution"
        } ]
      }
    }
  }, {
    "resource": {
      "resourceType": "MedicationStatement",
      "id": "15874660-06f7-4c96-8d66-94537510c458",
      "extension": [ {
        "url": "http://hl7.org/fhir/3.0/StructureDefinition/extension-MedicationStatement.status",
        "valueCode": "UNKNOWN"
      } ],
      "identifier": [ {
        "use": "official",
        "value": "cdbd33f0-6cde-11db-9fe1-0800200c9a66"
      } ],
      "status": "completed",
      "medicationReference": {
        "reference": "Medication/fb76860a-f333-435a-b3b7-a5a23ba61853",
        "display": "salmeterol 0.05 MG/ACTUAT Inhalant Powder"
      },
      "subject": {
        "reference": "Patient/4c05f511-7aaf-4377-93e8-4a392fee9229",
        "display": "Shannon Gibson"
      },
      "effectivePeriod": {
        "start": "2010-03-31T10:00:00+02:00"
      }
    }
  }, {
    "resource": {
      "resourceType": "Medication",
      "id": "fb76860a-f333-435a-b3b7-a5a23ba61853",
      "code": {
        "coding": [ {
          "system": "http://www.nlm.nih.gov/research/umls/rxnorm",
          "code": "318142",
          "display": "salmeterol 0.05 MG/ACTUAT Inhalant Powder"
        } ]
      }
    }
  }, {
    "resource": {
      "resourceType": "Procedure",
      "id": "a264d2cb-6248-46f5-aec7-835b0945e832",
      "identifier": [ {
        "use": "official",
        "value": "e401f340-7be2-11db-9fe1-0800200c9a66"
      } ],
      "status": "completed",
      "code": {
        "coding": [ {
          "system": "http://www.ama-assn.org/go/cpt",
          "code": "59410",
          "display": "Obstetrical care"
        }, {
          "system": "http://snomed.info/sct",
          "code": "169961004",
          "display": "Normal birth"
        } ]
      },
      "subject": {
        "reference": "Patient/4c05f511-7aaf-4377-93e8-4a392fee9229",
        "display": "Shannon Gibson"
      },
      "performedPeriod": {
        "start": "2010-12-27T10:00:00+01:00"
      }
    }
  }, {
    "resource": {
      "resourceType": "Encounter",
      "id": "d1acd965-37ef-42e9-8000-11554b59d999",
      "identifier": [ {
        "use": "official",
        "value": "2a620155-9d11-439e-92b3-5d9815ff4de8"
      } ],
      "status": "finished",
      "type": [ {
        "coding": [ {
          "system": "http://www.ama-assn.org/go/cpt",
          "code": "99213",
          "display": "Office/outpatient visit, est"
        }, {
          "system": "urn:oid:2.16.840.1.113883.6.103",
          "code": "V70.0",
          "display": "Routine general medical examination at a health care facility"
        } ]
      } ],
      "subject": {
        "reference": "Patient/4c05f511-7aaf-4377-93e8-4a392fee9229",
        "display": "Shannon Gibson"
      },
      "period": {
        "start": "2010-06-15T10:00:00+02:00"
      },
      "reasonCode": [ {
        "coding": [ {
          "system": "http://snomed.info/sct",
          "code": "315903005",
          "display": "Pregnancy"
        } ]
      } ],
      "reasonReference": [ {
        "reference": "Condition/4a8501bc-176a-498f-833e-db244cb98fd0",
        "display": "Pregnancy"
      } ]
    }
  }, {
    "resource": {
      "resourceType": "Condition",
      "id": "4a8501bc-176a-498f-833e-db244cb98fd0",
      "identifier": [ {
        "use": "official",
        "system": "urn:uuid:db734647-fc99-424c-a864-7e3cda82e703",
        "value": "45665"
      } ],
      "clinicalStatus": {
        "coding": [ {
          "system": "http://terminology.hl7.org/CodeSystem/condition-clinical",
          "code": "active",
          "display": "Active"
        } ]
      },
      "category": [ {
        "coding": [ {
          "system": "http://hl7.org/fhir/condition-category",
          "code": "encounter-diagnosis",
          "display": "Encounter Diagnosis"
        } ]
      } ],
      "code": {
        "coding": [ {
          "system": "http://snomed.info/sct",
          "code": "315903005",
          "display": "Pregnancy"
        }, {
          "system": "urn:oid:2.16.840.1.113883.6.90",
          "code": "Z33.1",
          "display": "Pregnant state, incidental"
        }, {
          "system": "urn:oid:2.16.840.1.113883.6.103",
          "code": "V22.2",
          "display": "Pregnant state, incidental"
        } ]
      },
      "subject": {
        "reference": "Patient/4c05f511-7aaf-4377-93e8-4a392fee9229",
        "display": "Shannon Gibson"
      },
      "onsetDateTime": "2010-06-15T10:00:00+02:00"
    }
  }, {
    "resource": {
      "resourceType": "Encounter",
      "id": "39cbaa77-d827-4abc-ba1a-10816a835c26",
      "identifier": [ {
        "use": "official",
        "value": "2a620155-9d11-439e-92b3-5d9815ff4de8"
      } ],
      "status": "finished",
      "type": [ {
        "coding": [ {
          "system": "http://snomed.info/sct",
          "code": "424619006",
          "display": "Prenatal visit"
        }, {
          "system": "urn:oid:2.16.840.1.113883.6.90",
          "code": "Z34.9",
          "display": "Encounter for supervision of normal pregnancy, unspecified"
        }, {
          "system": "urn:oid:2.16.840.1.113883.6.103",
          "code": "V22.2",
          "display": "Pregnant state, incidental"
        } ]
      } ],
      "subject": {
        "reference": "Patient/4c05f511-7aaf-4377-93e8-4a392fee9229",
        "display": "Shannon Gibson"
      },
      "period": {
        "start": "2010-11-01T10:00:00+01:00"
      }
    }
  }, {
    "resource": {
      "resourceType": "Encounter",
      "id": "55a42c05-67d3-42e9-bf75-4d514ce1284d",
      "identifier": [ {
        "use": "official",
        "value": "2a620155-9d11-439e-92b3-5d9815ff4de8"
      } ],
      "status": "finished",
      "type": [ {
        "coding": [ {
          "system": "http://www.ama-assn.org/go/cpt",
          "code": "99251",
          "display": "Initial inpatient consult"
        } ]
      } ],
      "subject": {
        "reference": "Patient/4c05f511-7aaf-4377-93e8-4a392fee9229",
        "display": "Shannon Gibson"
      },
      "period": {
        "start": "2010-12-27T10:00:00+01:00"
      },
      "reasonCode": [ {
        "coding": [ {
          "system": "http://snomed.info/sct",
          "code": "199305006",
          "display": "Pregnancy-related diagnosis"
        } ]
      } ],
      "reasonReference": [ {
        "reference": "Condition/4a8501bc-176a-498f-833e-db244cb98fd0",
        "display": "Pregnancy"
      } ]
    }
  }, {
    "resource": {
      "resourceType": "Encounter",
      "id": "291c02ea-ca21-4ef1-ac09-f0465054ab28",
      "identifier": [ {
        "use": "official",
        "value": "2a620155-9d11-439e-92b3-5d9815ff4de8"
      } ],
      "status": "finished",
      "type": [ {
        "coding": [ {
          "system": "http://snomed.info/sct",
          "code": "424619006",
          "display": "Prenatal visit"
        }, {
          "system": "urn:oid:2.16.840.1.113883.6.90",
          "code": "Z34.9",
          "display": "Encounter for supervision of normal pregnancy, unspecified"
        }, {
          "system": "urn:oid:2.16.840.1.113883.6.103",
          "code": "V22.2",
          "display": "Pregnant state, incidental"
        } ]
      } ],
      "subject": {
        "reference": "Patient/4c05f511-7aaf-4377-93e8-4a392fee9229",
        "display": "Shannon Gibson"
      },
      "period": {
        "start": "2010-12-16T10:00:00+01:00"
      }
    }
  }, {
    "resource": {
      "resourceType": "Encounter",
      "id": "fee9e589-779a-48f3-b6cd-c3cd659fd2b9",
      "identifier": [ {
        "use": "official",
        "value": "2a620155-9d11-439e-92b3-5d9815ff4de8"
      } ],
      "status": "finished",
      "type": [ {
        "coding": [ {
          "system": "http://www.ama-assn.org/go/cpt",
          "code": "99213",
          "display": "Office/outpatient visit, est"
        }, {
          "system": "urn:oid:2.16.840.1.113883.6.103",
          "code": "V70.0",
          "display": "Routine general medical examination at a health care facility"
        } ]
      } ],
      "subject": {
        "reference": "Patient/4c05f511-7aaf-4377-93e8-4a392fee9229",
        "display": "Shannon Gibson"
      },
      "period": {
        "start": "2010-03-31T10:00:00+02:00"
      },
      "reasonCode": [ {
        "coding": [ {
          "system": "http://snomed.info/sct",
          "code": "195979001",
          "display": "Asthma"
        } ]
      }, {
        "coding": [ {
          "system": "http://snomed.info/sct",
          "code": "373899003",
          "display": "Asthma Daytime Symptoms"
        } ]
      }, {
        "coding": [ {
          "system": "http://snomed.info/sct",
          "code": "395022009",
          "display": "Asthma Nighttime Symptoms"
        } ]
      } ],
      "reasonReference": [ {
        "reference": "Condition/4a8501bc-176a-498f-833e-db244cb98fd0",
        "display": "Pregnancy"
      }, {
        "reference": "Condition/4a8501bc-176a-498f-833e-db244cb98fd0",
        "display": "Pregnancy"
      }, {
        "reference": "Condition/4a8501bc-176a-498f-833e-db244cb98fd0",
        "display": "Pregnancy"
      } ]
    }
  }, {
    "resource": {
      "resourceType": "Encounter",
      "id": "910a06e8-d0b4-4fd9-8a52-eacbfdab88cb",
      "identifier": [ {
        "use": "official",
        "value": "2a620155-9d11-439e-92b3-5d9815ff4de8"
      } ],
      "status": "finished",
      "type": [ {
        "coding": [ {
          "system": "http://snomed.info/sct",
          "code": "424619006",
          "display": "Prenatal visit"
        }, {
          "system": "urn:oid:2.16.840.1.113883.6.90",
          "code": "Z34.9",
          "display": "Encounter for supervision of normal pregnancy, unspecified"
        }, {
          "system": "urn:oid:2.16.840.1.113883.6.103",
          "code": "V22.2",
          "display": "Pregnant state, incidental"
        } ]
      } ],
      "subject": {
        "reference": "Patient/4c05f511-7aaf-4377-93e8-4a392fee9229",
        "display": "Shannon Gibson"
      },
      "period": {
        "start": "2010-07-09T10:00:00+02:00"
      }
    }
  }, {
    "resource": {
      "resourceType": "Encounter",
      "id": "6877737f-6ea7-4018-8393-448ea2a3ccce",
      "identifier": [ {
        "use": "official",
        "value": "2a620155-9d11-439e-92b3-5d9815ff4de8"
      } ],
      "status": "finished",
      "type": [ {
        "coding": [ {
          "system": "http://snomed.info/sct",
          "code": "424619006",
          "display": "Prenatal visit"
        }, {
          "system": "urn:oid:2.16.840.1.113883.6.90",
          "code": "Z34.9",
          "display": "Encounter for supervision of normal pregnancy, unspecified"
        }, {
          "system": "urn:oid:2.16.840.1.113883.6.103",
          "code": "V22.2",
          "display": "Pregnant state, incidental"
        } ]
      } ],
      "subject": {
        "reference": "Patient/4c05f511-7aaf-4377-93e8-4a392fee9229",
        "display": "Shannon Gibson"
      },
      "period": {
        "start": "2010-12-06T10:00:00+01:00"
      }
    }
  }, {
    "resource": {
      "resourceType": "Encounter",
      "id": "3e581c29-3bc2-4664-b38d-1f1c99f4472f",
      "identifier": [ {
        "use": "official",
        "value": "2a620155-9d11-439e-92b3-5d9815ff4de8"
      } ],
      "status": "finished",
      "type": [ {
        "coding": [ {
          "system": "http://snomed.info/sct",
          "code": "424619006",
          "display": "Prenatal visit"
        }, {
          "system": "urn:oid:2.16.840.1.113883.6.90",
          "code": "Z34.9",
          "display": "Encounter for supervision of normal pregnancy, unspecified"
        }, {
          "system": "urn:oid:2.16.840.1.113883.6.103",
          "code": "V22.2",
          "display": "Pregnant state, incidental"
        } ]
      } ],
      "subject": {
        "reference": "Patient/4c05f511-7aaf-4377-93e8-4a392fee9229",
        "display": "Shannon Gibson"
      },
      "period": {
        "start": "2010-10-01T10:00:00+02:00"
      }
    }
  }, {
    "resource": {
      "resourceType": "Encounter",
      "id": "4a377c0b-debb-42d1-8fee-f5eda1ca6140",
      "identifier": [ {
        "use": "official",
        "value": "2a620155-9d11-439e-92b3-5d9815ff4de8"
      } ],
      "status": "finished",
      "type": [ {
        "coding": [ {
          "system": "http://snomed.info/sct",
          "code": "424619006",
          "display": "Prenatal visit"
        }, {
          "system": "urn:oid:2.16.840.1.113883.6.90",
          "code": "Z34.9",
          "display": "Encounter for supervision of normal pregnancy, unspecified"
        }, {
          "system": "urn:oid:2.16.840.1.113883.6.103",
          "code": "V22.2",
          "display": "Pregnant state, incidental"
        } ]
      } ],
      "subject": {
        "reference": "Patient/4c05f511-7aaf-4377-93e8-4a392fee9229",
        "display": "Shannon Gibson"
      },
      "period": {
        "start": "2010-11-25T10:00:00+01:00"
      }
    }
  }, {
    "resource": {
      "resourceType": "DiagnosticReport",
      "id": "38a6351c-6717-4d64-8485-6c2671f237ee",
      "identifier": [ {
        "use": "official",
        "value": "7d5a02b0-67a4-11db-bd13-0800200c9a66"
      } ],
      "status": "final",
      "category": [ {
        "coding": [ {
          "system": "http://terminology.hl7.org/CodeSystem/v2-0074",
          "code": "LAB",
          "display": "Laboratory"
        } ]
      } ],
      "code": {
        "coding": [ {
          "system": "http://snomed.info/sct",
          "code": "116147009",
          "display": "Cytology"
        } ]
      },
      "subject": {
        "reference": "Patient/4c05f511-7aaf-4377-93e8-4a392fee9229",
        "display": "Shannon Gibson"
      },
      "result": [ {
        "reference": "Observation/d6af7e80-8a74-4ba0-9086-e2e19cc5ceb9",
        "display": "Cyto Cervix"
      } ]
    }
  }, {
    "resource": {
      "resourceType": "Observation",
      "id": "d6af7e80-8a74-4ba0-9086-e2e19cc5ceb9",
      "identifier": [ {
        "use": "official",
        "value": "107c2dc0-67a5-11db-bd13-0800200c9a66"
      } ],
      "status": "final",
      "category": [ {
        "coding": [ {
          "system": "http://terminology.hl7.org/CodeSystem/observation-category",
          "code": "laboratory"
        } ]
      } ],
      "code": {
        "coding": [ {
          "system": "http://loinc.org",
          "code": "10524-7",
          "display": "Cyto Cervix"
        }, {
          "system": "http://www.ama-assn.org/go/cpt",
          "code": "88174",
          "display": "Cytopath, c/v auto, in fluid"
        }, {
          "system": "urn:oid:2.16.840.1.113883.6.13",
          "code": "G0147",
          "display": "Scr c/v cyto, automated sys"
        }, {
          "system": "urn:oid:2.16.840.1.113883.6.90",
          "code": "Z12.4",
          "display": "Encounter for screening for malignant neoplasm of cervix"
        }, {
          "system": "urn:oid:2.16.840.1.113883.6.103",
          "code": "V72.32",
          "display": "Encounter for Papanicolaou cervical smear to confirm findings of recent normal smear following initial abnormal smear"
        }, {
          "system": "http://snomed.info/sct",
          "code": "440623000",
          "display": "Microscopic examination of cervical Papanicolaou smear"
        } ]
      },
      "subject": {
        "reference": "Patient/4c05f511-7aaf-4377-93e8-4a392fee9229",
        "display": "Shannon Gibson"
      },
      "effectivePeriod": {
        "start": "2010-03-31T10:00:00+02:00"
      },
      "valueCodeableConcept": {
        "coding": [ {
          "system": "http://snomed.info/sct",
          "code": "17621005",
          "display": "normal"
        } ]
      },
      "interpretation": [ {
        "coding": [ {
          "system": "http://terminology.hl7.org/CodeSystem/v3-ObservationInterpretation",
          "code": "N"
        } ]
      } ],
      "referenceRange": [ {
        "text": "NA"
      } ]
    }
  }, {
    "resource": {
      "resourceType": "DiagnosticReport",
      "id": "eb7a6be8-0343-4b8f-a9a0-eee79e4482dc",
      "identifier": [ {
        "use": "official",
        "value": "7d5a02b0-67a4-11db-bd13-0800200c9a66"
      } ],
      "status": "final",
      "category": [ {
        "coding": [ {
          "system": "http://terminology.hl7.org/CodeSystem/v2-0074",
          "code": "LAB",
          "display": "Laboratory"
        } ]
      } ],
      "code": {
        "coding": [ {
          "system": "http://snomed.info/sct",
          "code": "269934003",
          "display": "Microbiology"
        } ]
      },
      "subject": {
        "reference": "Patient/4c05f511-7aaf-4377-93e8-4a392fee9229",
        "display": "Shannon Gibson"
      },
      "result": [ {
        "reference": "Observation/4ea0d155-2352-4169-b008-0ec6fd72c34b",
        "display": "C trach Ag XXX Ql"
      } ]
    }
  }, {
    "resource": {
      "resourceType": "Observation",
      "id": "4ea0d155-2352-4169-b008-0ec6fd72c34b",
      "identifier": [ {
        "use": "official",
        "value": "107c2dc0-67a5-11db-bd13-0800200c9a66"
      } ],
      "status": "final",
      "category": [ {
        "coding": [ {
          "system": "http://terminology.hl7.org/CodeSystem/observation-category",
          "code": "laboratory"
        } ]
      } ],
      "code": {
        "coding": [ {
          "system": "http://loinc.org",
          "code": "31777-6",
          "display": "C trach Ag XXX Ql"
        }, {
          "system": "http://www.ama-assn.org/go/cpt",
          "code": "87270",
          "display": "Chlamydia trachomatis ag if"
        }, {
          "system": "http://snomed.info/sct",
          "code": "121953005",
          "display": "Measurement of Chlamydia pneumoniae antibody"
        } ]
      },
      "subject": {
        "reference": "Patient/4c05f511-7aaf-4377-93e8-4a392fee9229",
        "display": "Shannon Gibson"
      },
      "effectivePeriod": {
        "start": "2010-03-31T10:00:00+02:00"
      },
      "valueCodeableConcept": {
        "coding": [ {
          "system": "http://snomed.info/sct",
          "code": "260385009",
          "display": "negative"
        } ]
      },
      "interpretation": [ {
        "coding": [ {
          "system": "http://terminology.hl7.org/CodeSystem/v3-ObservationInterpretation",
          "code": "N"
        } ]
      } ],
      "referenceRange": [ {
        "text": "NA"
      } ]
    }
  }, {
    "resource": {
      "resourceType": "DiagnosticReport",
      "id": "eb4e8c94-b3e6-4101-8004-2817267ca579",
      "identifier": [ {
        "use": "official",
        "value": "7d5a02b0-67a4-11db-bd13-0800200c9a66"
      } ],
      "status": "final",
      "category": [ {
        "coding": [ {
          "system": "http://terminology.hl7.org/CodeSystem/v2-0074",
          "code": "LAB",
          "display": "Laboratory"
        } ]
      } ],
      "code": {
        "coding": [ {
          "system": "http://snomed.info/sct",
          "code": "275711006",
          "display": "Serology"
        } ]
      },
      "subject": {
        "reference": "Patient/4c05f511-7aaf-4377-93e8-4a392fee9229",
        "display": "Shannon Gibson"
      },
      "result": [ {
        "reference": "Observation/054640b0-37e5-4ff9-8365-9cde94bbe78e",
        "display": "Rh Ig Scn Bld-Imp"
      }, {
        "reference": "Observation/61e67347-63cd-4e17-aa4d-f951293d9d13",
        "display": "HIV1+2 IgG Bld Ql EIA.rapid"
      } ]
    }
  }, {
    "resource": {
      "resourceType": "Observation",
      "id": "054640b0-37e5-4ff9-8365-9cde94bbe78e",
      "identifier": [ {
        "use": "official",
        "value": "107c2dc0-67a5-11db-bd13-0800200c9a66"
      } ],
      "status": "final",
      "category": [ {
        "coding": [ {
          "system": "http://terminology.hl7.org/CodeSystem/observation-category",
          "code": "laboratory"
        } ]
      } ],
      "code": {
        "coding": [ {
          "system": "http://loinc.org",
          "code": "1314-4",
          "display": "Rh Ig Scn Bld-Imp"
        } ]
      },
      "subject": {
        "reference": "Patient/4c05f511-7aaf-4377-93e8-4a392fee9229",
        "display": "Shannon Gibson"
      },
      "effectivePeriod": {
        "start": "2010-10-01T10:00:00+02:00"
      },
      "valueCodeableConcept": {
        "coding": [ {
          "system": "http://snomed.info/sct",
          "code": "10828004",
          "display": "positive"
        } ]
      },
      "interpretation": [ {
        "coding": [ {
          "system": "http://terminology.hl7.org/CodeSystem/v3-ObservationInterpretation",
          "code": "N"
        } ]
      } ],
      "referenceRange": [ {
        "text": "NA"
      } ]
    }
  }, {
    "resource": {
      "resourceType": "Observation",
      "id": "61e67347-63cd-4e17-aa4d-f951293d9d13",
      "identifier": [ {
        "use": "official",
        "value": "107c2dc0-67a5-11db-bd13-0800200c9a66"
      } ],
      "status": "final",
      "category": [ {
        "coding": [ {
          "system": "http://terminology.hl7.org/CodeSystem/observation-category",
          "code": "laboratory"
        } ]
      } ],
      "code": {
        "coding": [ {
          "system": "http://loinc.org",
          "code": "73906-0",
          "display": "HIV1+2 IgG Bld Ql EIA.rapid"
        }, {
          "system": "http://www.ama-assn.org/go/cpt",
          "code": "87389",
          "display": "Hiv-1 ag w/hiv-1 & hiv-2 ab"
        }, {
          "system": "http://snomed.info/sct",
          "code": "171121004",
          "display": "Human immunodeficiency virus screening"
        } ]
      },
      "subject": {
        "reference": "Patient/4c05f511-7aaf-4377-93e8-4a392fee9229",
        "display": "Shannon Gibson"
      },
      "effectivePeriod": {
        "start": "2010-10-01T10:00:00+02:00"
      },
      "valueCodeableConcept": {
        "coding": [ {
          "system": "http://snomed.info/sct",
          "code": "131194007",
          "display": "non-reactive"
        } ]
      },
      "interpretation": [ {
        "coding": [ {
          "system": "http://terminology.hl7.org/CodeSystem/v3-ObservationInterpretation",
          "code": "N"
        } ]
      } ],
      "referenceRange": [ {
        "text": "NA"
      } ]
    }
  }, {
    "resource": {
      "resourceType": "DiagnosticReport",
      "id": "eec50b67-6e3f-495a-b0c3-d03e5126ea1f",
      "identifier": [ {
        "use": "official",
        "value": "7d5a02b0-67a4-11db-bd13-0800200c9a66"
      } ],
      "status": "final",
      "category": [ {
        "coding": [ {
          "system": "http://terminology.hl7.org/CodeSystem/v2-0074",
          "code": "LAB",
          "display": "Laboratory"
        } ]
      } ],
      "code": {
        "coding": [ {
          "system": "http://snomed.info/sct",
          "code": "275711006",
          "display": "Serology"
        } ]
      },
      "subject": {
        "reference": "Patient/4c05f511-7aaf-4377-93e8-4a392fee9229",
        "display": "Shannon Gibson"
      },
      "result": [ {
        "reference": "Observation/e73af996-791e-440f-8f5f-1e9f401ad43c",
        "display": "HCG SerPl-sCnc"
      } ]
    }
  }, {
    "resource": {
      "resourceType": "Observation",
      "id": "e73af996-791e-440f-8f5f-1e9f401ad43c",
      "identifier": [ {
        "use": "official",
        "value": "107c2dc0-67a5-11db-bd13-0800200c9a66"
      } ],
      "status": "final",
      "category": [ {
        "coding": [ {
          "system": "http://terminology.hl7.org/CodeSystem/observation-category",
          "code": "laboratory"
        } ]
      } ],
      "code": {
        "coding": [ {
          "system": "http://loinc.org",
          "code": "2119-6",
          "display": "HCG SerPl-sCnc"
        }, {
          "system": "http://www.ama-assn.org/go/cpt",
          "code": "84702",
          "display": "Chorionic gonadotropin test"
        } ]
      },
      "subject": {
        "reference": "Patient/4c05f511-7aaf-4377-93e8-4a392fee9229",
        "display": "Shannon Gibson"
      },
      "effectivePeriod": {
        "start": "2010-06-15T10:00:00+02:00"
      },
      "valueCodeableConcept": {
        "coding": [ {
          "system": "http://snomed.info/sct",
          "code": "10828004",
          "display": "positive"
        } ]
      },
      "interpretation": [ {
        "coding": [ {
          "system": "http://terminology.hl7.org/CodeSystem/v3-ObservationInterpretation",
          "code": "N"
        } ]
      } ],
      "referenceRange": [ {
        "text": "NA"
      } ]
    }
  }, {
    "resource": {
      "resourceType": "Observation",
      "id": "4ff2c3c6-46c6-4ffa-867a-63d33dde493e",
      "identifier": [ {
        "use": "official",
        "value": "c6f88321-67ad-11db-bd13-0800200c9a66"
      } ],
      "status": "final",
      "category": [ {
        "coding": [ {
          "system": "http://terminology.hl7.org/CodeSystem/observation-category",
          "code": "vital-signs",
          "display": "Vital Signs"
        } ]
      } ],
      "code": {
        "coding": [ {
          "system": "http://loinc.org",
          "code": "8480-6",
          "display": "BP Systolic"
        } ]
      },
      "subject": {
        "reference": "Patient/4c05f511-7aaf-4377-93e8-4a392fee9229",
        "display": "Shannon Gibson"
      },
      "effectivePeriod": {
        "start": "2010-12-16T10:00:00+01:00"
      },
      "valueQuantity": {
        "value": 116,
        "unit": "mm[Hg]",
        "system": "http://unitsofmeasure.org",
        "code": "mm[Hg]"
      }
    }
  }, {
    "resource": {
      "resourceType": "Observation",
      "id": "805fb962-f6d5-42f4-b33e-a39768e03bdf",
      "identifier": [ {
        "use": "official",
        "value": "c6f88321-67ad-11db-bd13-0800200c9a66"
      } ],
      "status": "final",
      "category": [ {
        "coding": [ {
          "system": "http://terminology.hl7.org/CodeSystem/observation-category",
          "code": "vital-signs",
          "display": "Vital Signs"
        } ]
      } ],
      "code": {
        "coding": [ {
          "system": "http://loinc.org",
          "code": "8462-4",
          "display": "BP Diastolic"
        } ]
      },
      "subject": {
        "reference": "Patient/4c05f511-7aaf-4377-93e8-4a392fee9229",
        "display": "Shannon Gibson"
      },
      "effectivePeriod": {
        "start": "2010-12-16T10:00:00+01:00"
      },
      "valueQuantity": {
        "value": 68,
        "unit": "mm[Hg]",
        "system": "http://unitsofmeasure.org",
        "code": "mm[Hg]"
      }
    }
  }, {
    "resource": {
      "resourceType": "Observation",
      "id": "e6c08d34-814f-4b83-9237-d8446b01164a",
      "identifier": [ {
        "use": "official",
        "value": "c6f88321-67ad-11db-bd13-0800200c9a66"
      } ],
      "status": "final",
      "category": [ {
        "coding": [ {
          "system": "http://terminology.hl7.org/CodeSystem/observation-category",
          "code": "vital-signs",
          "display": "Vital Signs"
        } ]
      } ],
      "code": {
        "coding": [ {
          "system": "http://loinc.org",
          "code": "8480-6",
          "display": "BP Systolic"
        } ]
      },
      "subject": {
        "reference": "Patient/4c05f511-7aaf-4377-93e8-4a392fee9229",
        "display": "Shannon Gibson"
      },
      "effectivePeriod": {
        "start": "2010-10-01T10:00:00+02:00"
      },
      "valueQuantity": {
        "value": 116,
        "unit": "mm[Hg]",
        "system": "http://unitsofmeasure.org",
        "code": "mm[Hg]"
      }
    }
  }, {
    "resource": {
      "resourceType": "Observation",
      "id": "85596c6b-7fdd-4d2e-8c7d-e10159d5093e",
      "identifier": [ {
        "use": "official",
        "value": "c6f88321-67ad-11db-bd13-0800200c9a66"
      } ],
      "status": "final",
      "category": [ {
        "coding": [ {
          "system": "http://terminology.hl7.org/CodeSystem/observation-category",
          "code": "vital-signs",
          "display": "Vital Signs"
        } ]
      } ],
      "code": {
        "coding": [ {
          "system": "http://loinc.org",
          "code": "8462-4",
          "display": "BP Diastolic"
        } ]
      },
      "subject": {
        "reference": "Patient/4c05f511-7aaf-4377-93e8-4a392fee9229",
        "display": "Shannon Gibson"
      },
      "effectivePeriod": {
        "start": "2010-10-01T10:00:00+02:00"
      },
      "valueQuantity": {
        "value": 66,
        "unit": "mm[Hg]",
        "system": "http://unitsofmeasure.org",
        "code": "mm[Hg]"
      }
    }
  }, {
    "resource": {
      "resourceType": "Observation",
      "id": "d4eb06e1-69d4-401d-aa22-9d0b7d84cabd",
      "identifier": [ {
        "use": "official",
        "value": "c6f88321-67ad-11db-bd13-0800200c9a66"
      } ],
      "status": "final",
      "category": [ {
        "coding": [ {
          "system": "http://terminology.hl7.org/CodeSystem/observation-category",
          "code": "vital-signs",
          "display": "Vital Signs"
        } ]
      } ],
      "code": {
        "coding": [ {
          "system": "http://loinc.org",
          "code": "8480-6",
          "display": "BP Systolic"
        } ]
      },
      "subject": {
        "reference": "Patient/4c05f511-7aaf-4377-93e8-4a392fee9229",
        "display": "Shannon Gibson"
      },
      "effectivePeriod": {
        "start": "2010-11-01T10:00:00+01:00"
      },
      "valueQuantity": {
        "value": 118,
        "unit": "mm[Hg]",
        "system": "http://unitsofmeasure.org",
        "code": "mm[Hg]"
      }
    }
  }, {
    "resource": {
      "resourceType": "Observation",
      "id": "104e7cab-5a88-4b6f-a6e6-8db2bde7eb27",
      "identifier": [ {
        "use": "official",
        "value": "c6f88321-67ad-11db-bd13-0800200c9a66"
      } ],
      "status": "final",
      "category": [ {
        "coding": [ {
          "system": "http://terminology.hl7.org/CodeSystem/observation-category",
          "code": "vital-signs",
          "display": "Vital Signs"
        } ]
      } ],
      "code": {
        "coding": [ {
          "system": "http://loinc.org",
          "code": "8462-4",
          "display": "BP Diastolic"
        } ]
      },
      "subject": {
        "reference": "Patient/4c05f511-7aaf-4377-93e8-4a392fee9229",
        "display": "Shannon Gibson"
      },
      "effectivePeriod": {
        "start": "2010-11-01T10:00:00+01:00"
      },
      "valueQuantity": {
        "value": 68,
        "unit": "mm[Hg]",
        "system": "http://unitsofmeasure.org",
        "code": "mm[Hg]"
      }
    }
  }, {
    "resource": {
      "resourceType": "Observation",
      "id": "c2e0eb9a-f49e-4089-b3b8-3e50ded2790f",
      "identifier": [ {
        "use": "official",
        "value": "c6f88321-67ad-11db-bd13-0800200c9a66"
      } ],
      "status": "final",
      "category": [ {
        "coding": [ {
          "system": "http://terminology.hl7.org/CodeSystem/observation-category",
          "code": "vital-signs",
          "display": "Vital Signs"
        } ]
      } ],
      "code": {
        "coding": [ {
          "system": "http://loinc.org",
          "code": "8462-4",
          "display": "BP Diastolic"
        } ]
      },
      "subject": {
        "reference": "Patient/4c05f511-7aaf-4377-93e8-4a392fee9229",
        "display": "Shannon Gibson"
      },
      "effectivePeriod": {
        "start": "2010-12-06T10:00:00+01:00"
      },
      "valueQuantity": {
        "value": 70,
        "unit": "mm[Hg]",
        "system": "http://unitsofmeasure.org",
        "code": "mm[Hg]"
      }
    }
  }, {
    "resource": {
      "resourceType": "Observation",
      "id": "86f29abd-03be-4019-8734-27faf1d881e4",
      "identifier": [ {
        "use": "official",
        "value": "c6f88321-67ad-11db-bd13-0800200c9a66"
      } ],
      "status": "final",
      "category": [ {
        "coding": [ {
          "system": "http://terminology.hl7.org/CodeSystem/observation-category",
          "code": "vital-signs",
          "display": "Vital Signs"
        } ]
      } ],
      "code": {
        "coding": [ {
          "system": "http://loinc.org",
          "code": "8480-6",
          "display": "BP Systolic"
        } ]
      },
      "subject": {
        "reference": "Patient/4c05f511-7aaf-4377-93e8-4a392fee9229",
        "display": "Shannon Gibson"
      },
      "effectivePeriod": {
        "start": "2010-12-06T10:00:00+01:00"
      },
      "valueQuantity": {
        "value": 118,
        "unit": "mm[Hg]",
        "system": "http://unitsofmeasure.org",
        "code": "mm[Hg]"
      }
    }
  }, {
    "resource": {
      "resourceType": "Observation",
      "id": "22526534-c0cd-413c-b302-bc4b1d648465",
      "identifier": [ {
        "use": "official",
        "value": "c6f88321-67ad-11db-bd13-0800200c9a66"
      } ],
      "status": "final",
      "category": [ {
        "coding": [ {
          "system": "http://terminology.hl7.org/CodeSystem/observation-category",
          "code": "vital-signs",
          "display": "Vital Signs"
        } ]
      } ],
      "code": {
        "coding": [ {
          "system": "http://loinc.org",
          "code": "8480-6",
          "display": "BP Systolic"
        } ]
      },
      "subject": {
        "reference": "Patient/4c05f511-7aaf-4377-93e8-4a392fee9229",
        "display": "Shannon Gibson"
      },
      "effectivePeriod": {
        "start": "2010-11-25T10:00:00+01:00"
      },
      "valueQuantity": {
        "value": 120,
        "unit": "mm[Hg]",
        "system": "http://unitsofmeasure.org",
        "code": "mm[Hg]"
      }
    }
  }, {
    "resource": {
      "resourceType": "Observation",
      "id": "6d2da381-a898-4193-9e01-77ebfa815092",
      "identifier": [ {
        "use": "official",
        "value": "c6f88321-67ad-11db-bd13-0800200c9a66"
      } ],
      "status": "final",
      "category": [ {
        "coding": [ {
          "system": "http://terminology.hl7.org/CodeSystem/observation-category",
          "code": "vital-signs",
          "display": "Vital Signs"
        } ]
      } ],
      "code": {
        "coding": [ {
          "system": "http://loinc.org",
          "code": "8462-4",
          "display": "BP Diastolic"
        } ]
      },
      "subject": {
        "reference": "Patient/4c05f511-7aaf-4377-93e8-4a392fee9229",
        "display": "Shannon Gibson"
      },
      "effectivePeriod": {
        "start": "2010-11-25T10:00:00+01:00"
      },
      "valueQuantity": {
        "value": 70,
        "unit": "mm[Hg]",
        "system": "http://unitsofmeasure.org",
        "code": "mm[Hg]"
      }
    }
  }, {
    "resource": {
      "resourceType": "Observation",
      "id": "48f7d68f-7c32-47a7-960c-a14e94dee394",
      "identifier": [ {
        "use": "official",
        "value": "c6f88321-67ad-11db-bd13-0800200c9a66"
      } ],
      "status": "final",
      "category": [ {
        "coding": [ {
          "system": "http://terminology.hl7.org/CodeSystem/observation-category",
          "code": "vital-signs",
          "display": "Vital Signs"
        } ]
      } ],
      "code": {
        "coding": [ {
          "system": "http://loinc.org",
          "code": "8462-4",
          "display": "BP Diastolic"
        } ]
      },
      "subject": {
        "reference": "Patient/4c05f511-7aaf-4377-93e8-4a392fee9229",
        "display": "Shannon Gibson"
      },
      "effectivePeriod": {
        "start": "2010-07-09T10:00:00+02:00"
      },
      "valueQuantity": {
        "value": 66,
        "unit": "mm[Hg]",
        "system": "http://unitsofmeasure.org",
        "code": "mm[Hg]"
      }
    }
  }, {
    "resource": {
      "resourceType": "Observation",
      "id": "cf74f232-7f48-4473-8d5f-0148f75200cb",
      "identifier": [ {
        "use": "official",
        "value": "c6f88321-67ad-11db-bd13-0800200c9a66"
      } ],
      "status": "final",
      "category": [ {
        "coding": [ {
          "system": "http://terminology.hl7.org/CodeSystem/observation-category",
          "code": "vital-signs",
          "display": "Vital Signs"
        } ]
      } ],
      "code": {
        "coding": [ {
          "system": "http://loinc.org",
          "code": "8480-6",
          "display": "BP Systolic"
        } ]
      },
      "subject": {
        "reference": "Patient/4c05f511-7aaf-4377-93e8-4a392fee9229",
        "display": "Shannon Gibson"
      },
      "effectivePeriod": {
        "start": "2010-07-09T10:00:00+02:00"
      },
      "valueQuantity": {
        "value": 114,
        "unit": "mm[Hg]",
        "system": "http://unitsofmeasure.org",
        "code": "mm[Hg]"
      }
    }
  } ]
}