{
  "resourceType": "Bundle",
  "entry": [ {
    "resource": {
      "resourceType": "Composition",
      "id": "6e0f2b4b-9904-4ac8-b62e-d5ce3526f860",
      "identifier": {
        "use": "official",
        "value": "db734647-fc99-424c-a864-7e3cda82e703"
      },
      "status": "preliminary",
      "type": {
        "coding": [ {
          "system": "http://loinc.org",
          "code": "34133-9",
          "display": "Summarization of Episode Note"
        } ]
      },
      "category": [ {
        "coding": [ {
          "system": "http://hl7.org/fhir/ValueSet/doc-classcodes",
          "code": "LP173421-7",
          "display": "Note"
        } ]
      } ],
      "subject": {
        "reference": "Patient/806837b9-69f2-4f71-bb92-6899ca80ed2c",
        "display": "Julie Salazar"
      },
      "date": "2014-04-16T11:54:48+02:00",
      "author": [ {
        "reference": "Practitioner/265008cb-dbf1-4736-9038-62de3a26381c",
        "display": "Henry Seven MD"
      } ],
      "title": "Community Health and Hospitals: Health Summary",
      "confidentiality": "N",
      "attester": [ {
        "mode": "legal",
        "time": "2013-04-18T09:00:00+05:00",
        "party": {
          "reference": "Practitioner/d47be4c3-70da-43ee-8528-39d54c2cff5f",
          "display": "Henry Seven"
        }
      }, {
        "mode": "professional",
        "time": "2014-04-16T11:54:48+02:00",
        "party": {
          "reference": "Practitioner/d47be4c3-70da-43ee-8528-39d54c2cff5f",
          "display": "Henry Seven"
        }
      } ],
      "custodian": {
        "reference": "Organization/a4674d7f-3f3c-42e9-873a-b0208fbe66d4",
        "display": "Community Health and Hospitals"
      },
      "event": [ {
        "period": {
          "start": "2009-12-02T10:00:00+01:00",
          "end": "2010-11-22T10:00:00+01:00"
        },
        "detail": [ {
          "reference": "Practitioner/8d0841f6-b929-43ae-bbb4-d64623c499fa",
          "display": "Henry Seven MD"
        } ]
      } ],
      "section": [ {
        "title": "Social History",
        "code": {
          "coding": [ {
            "system": "http://loinc.org",
            "code": "29762-2",
            "display": "Social History"
          } ]
        },
        "text": {
          "status": "additional",
          "div": "<div xmlns=\"http://www.w3.org/1999/xhtml\"><table><thead><tr><th>Group Description</th><th>Code System</th><th>Code</th><th>Code Description</th><th>Date and Time</th><th>Status</th></tr></thead><tbody><tr><td>Tobacco Use</td><td>SNOMED-CT</td><td>266919005</td><td><span/>Never smoker (Never Smoked)</td><td>12-02-2009 10:00:00</td><td>Active</td></tr><tr><td/><td>SNOMED-CT</td><td>449868002</td><td>Current every day smoker</td><td/><td/></tr></tbody></table></div>"
        },
        "mode": "snapshot",
        "entry": [ {
          "reference": "Observation/9de45a41-9037-403e-9dcb-4445a9b3a303"
        } ]
      }, {
        "title": "Medications",
        "code": {
          "coding": [ {
            "system": "http://loinc.org",
            "code": "10160-0",
            "display": "History of Medication Use"
          } ]
        },
        "text": {
          "status": "additional",
          "div": "<div xmlns=\"http://www.w3.org/1999/xhtml\"><table><thead><tr><th>Group Description</th><th>Code System</th><th>Code</th><th>Code Description</th><th>Date and Time</th><th>Status</th></tr></thead><tbody><tr><td>Tamoxifen or Aromatase Inhibitor Therapy</td><td>RxNorm</td><td>313195</td><td><span/>Tamoxifen 20 MG Oral Tablet</td><td>07-15-2010 10:00:00</td><td>Active</td></tr></tbody></table></div>"
        },
        "mode": "snapshot",
        "entry": [ {
          "reference": "MedicationStatement/71ba63cb-f197-48bc-9240-f096e9728467",
          "display": "Tamoxifen 20 MG Oral Tablet"
        } ]
      }, {
        "title": "Procedures",
        "code": {
          "coding": [ {
            "system": "http://loinc.org",
            "code": "47519-4",
            "display": "HISTORY OF PROCEDURES"
          } ]
        },
        "text": {
          "status": "additional",
          "div": "<div xmlns=\"http://www.w3.org/1999/xhtml\"><table><thead><tr><th>Group Description</th><th>Code System</th><th>Code</th><th>Code Description</th><th>Date and Time</th><th>Status</th></tr></thead><tbody><tr><td>Tobacco Use Cessation Counseling</td><td>CPT</td><td>99406</td><td><span/>Behav chng smoking 3-10 min</td><td>12-05-2009 10:00:00</td><td>Performed</td></tr><tr><td/><td>SNOMED-CT</td><td>384742004</td><td>Smoking cessation assistance</td><td/><td/></tr><tr><td>Breast Cancer Screening</td><td>CPT</td><td>77057</td><td><span/>Mammogram, screening</td><td>06-10-2010 10:00:00</td><td>Performed</td></tr><tr><td/><td>HCPCS</td><td>G0202</td><td>Screeningmammographydigital</td><td/><td/></tr><tr><td/><td>ICD-10-CM</td><td>Z12.31</td><td>Encounter for screening mammogram for malignant neoplasm of breast</td><td/><td/></tr><tr><td/><td>ICD-9-CM</td><td>V76.12</td><td>Other screening mammogram</td><td/><td/></tr><tr><td/><td>SNOMED-CT</td><td>24623002</td><td>Screening mammography</td><td/><td/></tr><tr><td>Counseling For Nutrition</td><td>CPT</td><td>97802</td><td><span/>Medical nutrition, indiv, in</td><td>11-22-2010 10:00:00</td><td>Performed</td></tr><tr><td/><td>HCPCS</td><td>S9470</td><td>Nutritional counseling, diet</td><td/><td/></tr><tr><td/><td>ICD-10-CM</td><td>Z00.8</td><td>Encounter for other general examination</td><td/><td/></tr><tr><td/><td>ICD-9-CM</td><td>V65.3</td><td>Dietary surveillance and counseling</td><td/><td/></tr><tr><td>Counseling For Physical Activity</td><td>HCPCS</td><td>S9451</td><td><span/>Exercise class</td><td>11-22-2010 10:00:00</td><td>Performed</td></tr><tr><td/><td>ICD-10-CM</td><td>Z71.3</td><td>Dietary counseling and surveillance</td><td/><td/></tr><tr><td/><td>ICD-9-CM</td><td>V65.41</td><td>Exercise counseling</td><td/><td/></tr></tbody></table></div>"
        },
        "mode": "snapshot"
      }, {
        "title": "Problems",
        "code": {
          "coding": [ {
            "system": "http://loinc.org",
            "code": "11450-4",
            "display": "PROBLEM LIST"
          } ]
        },
        "text": {
          "status": "additional",
          "div": "<div xmlns=\"http://www.w3.org/1999/xhtml\"><table><thead><tr><th>Group Description</th><th>Code System</th><th>Code</th><th>Code Description</th><th>Date and Time</th><th>Status</th></tr></thead><tbody><tr><td>ischemic vascular disease</td><td>SNOMED-CT</td><td>52674009</td><td><span/>Ischemia</td><td>12-02-2009 10:00:00</td><td>Active</td></tr><tr><td/><td>ICD-10-CM</td><td>I24</td><td>Other acute ischemic heart diseases</td><td/><td/></tr><tr><td/><td>ICD-9-CM</td><td>411.89</td><td>Other acute and subacute forms of ischemic heart disease, other</td><td/><td/></tr><tr><td>Breast Cancer</td><td>SNOMED-CT</td><td>188161004</td><td><span/>Malignant neoplasm of female breast NOS</td><td>07-10-2010 10:00:00</td><td>Active</td></tr><tr><td/><td>ICD-10-CM</td><td>C50</td><td>Malignant neoplasm of breast</td><td/><td/></tr><tr><td/><td>ICD-9-CM</td><td>174.9</td><td>Malignant neoplasm of breast (female), unspecified</td><td/><td/></tr><tr><td>Breast Cancer ER or PR Positive</td><td>SNOMED-CT</td><td>417742002</td><td><span/>Hormone receptor positive tumor</td><td>07-10-2010 10:00:00</td><td>Active</td></tr><tr><td>Breast Cancer Stage IC-IIIC</td><td>SNOMED-CT</td><td>261653007</td><td><span/>Tumor stage T2c</td><td>07-10-2010 10:00:00</td><td>Active</td></tr></tbody></table></div>"
        },
        "mode": "snapshot",
        "entry": [ {
          "reference": "Condition/69d1f66a-e660-4dc9-843b-e15a30c0e2e2",
          "display": "Tumor stage T2c"
        } ]
      }, {
        "title": "Vital Signs",
        "code": {
          "coding": [ {
            "system": "http://loinc.org",
            "code": "8716-3",
            "display": "Vital Signs"
          } ]
        },
        "text": {
          "status": "additional",
          "div": "<div xmlns=\"http://www.w3.org/1999/xhtml\"><table><thead><tr><th>Group Description</th><th>Code System</th><th>Code</th><th>Code Description</th><th>Value</th><th>Unit</th><th>Date and Time</th><th>Status</th></tr></thead><tbody><tr><td>Diastolic Blood Pressure</td><td>LOINC</td><td>8462-4</td><td><span/>BP Diastolic</td><td>76</td><td>mm[Hg]</td><td>05-22-2010 10:00:00</td><td>Finding</td></tr><tr><td>Systolic Blood Pressure</td><td>LOINC</td><td>8480-6</td><td><span/>BP Systolic</td><td>128</td><td>mm[Hg]</td><td>05-22-2010 10:00:00</td><td>Finding</td></tr><tr><td>BMI</td><td>LOINC</td><td>39156-5</td><td><span/>BMI</td><td>25.8</td><td>kg/m2</td><td>09-06-2010 10:00:00</td><td>Finding</td></tr><tr><td>Diastolic Blood Pressure</td><td>LOINC</td><td>8462-4</td><td><span/>BP Diastolic</td><td>76</td><td>mm[Hg]</td><td>09-06-2010 10:00:00</td><td>Finding</td></tr><tr><td>Systolic Blood Pressure</td><td>LOINC</td><td>8480-6</td><td><span/>BP Systolic</td><td>126</td><td>mm[Hg]</td><td>09-06-2010 10:00:00</td><td>Finding</td></tr><tr><td>BMI</td><td>LOINC</td><td>39156-5</td><td><span/>BMI</td><td>24.9</td><td>kg/m2</td><td>11-22-2010 10:00:00</td><td>Finding</td></tr><tr><td>Diastolic Blood Pressure</td><td>LOINC</td><td>8462-4</td><td><span/>BP Diastolic</td><td>80</td><td>mm[Hg]</td><td>11-22-2010 10:00:00</td><td>Finding</td></tr><tr><td>Systolic Blood Pressure</td><td>LOINC</td><td>8480-6</td><td><span/>BP Systolic</td><td>130</td><td>mm[Hg]</td><td>11-22-2010 10:00:00</td><td>Finding</td></tr></tbody></table></div>"
        },
        "mode": "snapshot",
        "entry": [ {
          "reference": "Observation/5dae2bb0-afcd-4faa-af45-9a9c4db1092c",
          "display": "BMI"
        }, {
          "reference": "Observation/1d1c640f-ee1b-4f3e-b7c2-edb6d6711d7f",
          "display": "BP Systolic"
        }, {
          "reference": "Observation/0e7b0b82-66d2-4e78-bebf-8b6ae29f8df6",
          "display": "BP Diastolic"
        }, {
          "reference": "Observation/a90c45e8-91c6-49e0-a5a8-835a14cde0a2",
          "display": "BP Systolic"
        }, {
          "reference": "Observation/aaec1a1f-b24f-408a-a3f5-61d518e7627c",
          "display": "BP Diastolic"
        }, {
          "reference": "Observation/a0f5d957-034d-4021-922a-bb74b69ffdee",
          "display": "BP Systolic"
        }, {
          "reference": "Observation/e7c301e5-2476-4a06-a668-a83424724ea7",
          "display": "BP Diastolic"
        }, {
          "reference": "Observation/a4098c8d-fe8e-4762-85de-f7d8653bc6cf",
          "display": "BMI"
        } ]
      }, {
        "title": "Allergies,  Adverse Reactions & Alerts",
        "code": {
          "coding": [ {
            "system": "http://loinc.org",
            "code": "48765-2",
            "display": "Allergies, adverse reactions, alerts"
          } ]
        },
        "text": {
          "status": "additional",
          "div": "<div xmlns=\"http://www.w3.org/1999/xhtml\"><table><thead><tr><th>Group Description</th><th>Code System</th><th>Code</th><th>Code Description</th><th>Severity</th><th>Susceptibility</th><th>Date and Time</th><th>Status</th></tr></thead><tbody><tr><td>Allergy to Eggs</td><td>UNII</td><td>291P45F896</td><td><span/>Eggs</td><td><span/>Fatal</td><td>Very susceptible</td><td>12-02-2009 10:00:00</td><td>Active</td></tr><tr><td/><td>ICD-9-CM</td><td>V15.03</td><td>Allergy to eggs</td><td/><td/><td/><td/></tr><tr><td>Fosfomycin</td><td>RxNorm</td><td>808917</td><td><span/>Fosfomycin 33.3 MG/ML Oral Suspension</td><td><span/>Moderate to severe</td><td>Susceptible</td><td>12-02-2009 10:00:00</td><td>Active</td></tr><tr><td>Tetracyclines</td><td>RxNorm</td><td>406524</td><td><span/>Doxycycline 75 MG Enteric Coated Tablet</td><td><span/>Severe</td><td>Very susceptible</td><td>12-02-2009 10:00:00</td><td>Active</td></tr><tr><td/><td>NDF-RT</td><td>N0000006275</td><td>Tetracycline</td><td/><td/><td/><td/></tr></tbody></table></div>"
        },
        "mode": "snapshot",
        "entry": [ {
          "reference": "AllergyIntolerance/662a6f49-b0d2-4eb2-a474-ec51a787c9e1",
          "display": "Allergy to Eggs + Eggs"
        }, {
          "reference": "AllergyIntolerance/3dd3d98e-a97c-4b03-a371-4c3106089fc2",
          "display": "Tetracyclines + Doxycycline 75 MG Enteric Coated Tablet"
        }, {
          "reference": "AllergyIntolerance/3105ec1b-3a85-4f05-bfef-98a94f401ed2",
          "display": "Fosfomycin + Fosfomycin 33.3 MG/ML Oral Suspension"
        } ]
      }, {
        "title": "Encounters",
        "code": {
          "coding": [ {
            "system": "http://loinc.org",
            "code": "46240-8",
            "display": "History of encounters"
          } ]
        },
        "text": {
          "status": "additional",
          "div": "<div xmlns=\"http://www.w3.org/1999/xhtml\"><table><thead><tr><th>Group Description</th><th>Code System</th><th>Code</th><th>Code Description</th><th>Date and Time</th><th>Status</th></tr></thead><tbody><tr><td>Encounter Acute Inpt</td><td>CPT</td><td>99251</td><td><span/>Initial inpatient consult</td><td>12-02-2009 10:00:00</td><td>Performed</td></tr><tr><td>Encounter Inpatient Discharge</td><td>CPT</td><td>99238</td><td><span/>Hospital discharge day</td><td>12-05-2009 10:00:00</td><td>Performed</td></tr><tr><td>Encounter Office Visit</td><td>CPT</td><td>99212</td><td><span/>Office/outpatient visit, est</td><td>03-31-2010 10:00:00</td><td>Performed</td></tr><tr><td>Encounter Outpatient</td><td>CPT</td><td>99213</td><td><span/>Office/outpatient visit, est</td><td>05-22-2010 10:00:00</td><td>Performed</td></tr><tr><td/><td>ICD-9-CM</td><td>V70.0</td><td>Routine general medical examination at a health care facility</td><td/><td/></tr><tr><td>Encounter Acute Inpt</td><td>CPT</td><td>99251</td><td><span/>Initial inpatient consult</td><td>07-08-2010 10:00:00</td><td>Performed</td></tr><tr><td>Encounter Inpatient Discharge</td><td>CPT</td><td>99238</td><td><span/>Hospital discharge day</td><td>07-10-2010 10:00:00</td><td>Performed</td></tr><tr><td>Encounter Office Visit</td><td>CPT</td><td>99212</td><td><span/>Office/outpatient visit, est</td><td>09-06-2010 10:00:00</td><td>Performed</td></tr><tr><td>Encounter Outpatient</td><td>CPT</td><td>99213</td><td><span/>Office/outpatient visit, est</td><td>11-22-2010 10:00:00</td><td>Performed</td></tr><tr><td/><td>ICD-9-CM</td><td>V70.0</td><td>Routine general medical examination at a health care facility</td><td/><td/></tr></tbody></table></div>"
        },
        "mode": "snapshot",
        "entry": [ {
          "reference": "Encounter/484cb71c-7e73-4717-9598-1f1d6f9ef7b1",
          "display": "Hospital discharge day"
        }, {
          "reference": "Encounter/85694a22-61bc-4418-bad8-0c0c45458204",
          "display": "Office/outpatient visit, est"
        }, {
          "reference": "Encounter/48206824-8cb1-4af2-92a2-82d058923a35",
          "display": "Hospital discharge day"
        }, {
          "reference": "Encounter/cfaf60cc-6378-421a-9d22-6a54e21ed45a",
          "display": "Initial inpatient consult"
        }, {
          "reference": "Encounter/503fa86c-eb72-4e25-a5bb-5acea66826be",
          "display": "Office/outpatient visit, est"
        }, {
          "reference": "Encounter/3e878411-6143-4594-8b9d-3f9d93584f62",
          "display": "Initial inpatient consult"
        }, {
          "reference": "Encounter/d1d4ea2a-38d7-486e-95d7-90788620e7ef",
          "display": "Office/outpatient visit, est"
        }, {
          "reference": "Encounter/509cb79a-6c42-4897-b032-577141f0a162",
          "display": "Office/outpatient visit, est"
        } ]
      }, {
        "title": "Results",
        "code": {
          "coding": [ {
            "system": "http://loinc.org",
            "code": "30954-2",
            "display": "Results"
          } ]
        },
        "text": {
          "status": "additional",
          "div": "<div xmlns=\"http://www.w3.org/1999/xhtml\"><table><thead><tr><th>Group Description</th><th>Code System</th><th>Code</th><th>Code Description</th><th>Value</th><th>Unit</th><th>Reference Range</th><th>Date and Time</th><th>Status</th></tr></thead><tbody><tr><td>FOBT</td><td>LOINC</td><td>2335-8</td><td><span/>Hemoccult Stl Ql</td><td>negative</td><td/><td>NA</td><td>05-22-2010 10:00:00</td><td>Completed</td></tr><tr><td/><td>CPT</td><td>82274</td><td>Assay test for blood, fecal</td><td/><td/><td/><td/><td/></tr><tr><td/><td>HCPCS</td><td>G0328</td><td>Fecal blood scrn immunoassay</td><td/><td/><td/><td/><td/></tr><tr><td/><td>ICD-9-CM</td><td>V76.51</td><td>Special screening for malignant neoplasms of colon</td><td/><td/><td/><td/><td/></tr><tr><td/><td>SNOMED-CT</td><td>252156002</td><td>Occult blood screening</td><td/><td/><td/><td/><td/></tr><tr><td>Pap Test</td><td>LOINC</td><td>10524-7</td><td><span/>Cyto Cervix</td><td>normal</td><td/><td>NA</td><td>05-22-2010 10:00:00</td><td>Completed</td></tr><tr><td/><td>CPT</td><td>88174</td><td>Cytopath, c/v auto, in fluid</td><td/><td/><td/><td/><td/></tr><tr><td/><td>HCPCS</td><td>G0147</td><td>Scr c/v cyto, automated sys</td><td/><td/><td/><td/><td/></tr><tr><td/><td>ICD-10-CM</td><td>Z12.4</td><td>Encounter for screening for malignant neoplasm of cervix</td><td/><td/><td/><td/><td/></tr><tr><td/><td>ICD-9-CM</td><td>V72.32</td><td>Encounter for Papanicolaou cervical smear to confirm findings of recent normal smear following initial abnormal smear</td><td/><td/><td/><td/><td/></tr><tr><td/><td>SNOMED-CT</td><td>440623000</td><td>Microscopic examination of cervical Papanicolaou smear</td><td/><td/><td/><td/><td/></tr></tbody></table></div>"
        },
        "mode": "snapshot",
        "entry": [ {
          "reference": "DiagnosticReport/a4600a03-8fa3-4a84-a2b6-fc2a9dc1be39",
          "display": "FOBT"
        }, {
          "reference": "DiagnosticReport/bd75c0a0-2d0c-483d-8ac8-b3062ee846ce",
          "display": "Cytology"
        } ]
      } ]
    }
  }, {
    "resource": {
      "resourceType": "Patient",
      "id": "806837b9-69f2-4f71-bb92-6899ca80ed2c",
      "extension": [ {
        "url": "http://hl7.org/fhir/StructureDefinition/patient-religion",
        "valueCodeableConcept": {
          "coding": [ {
            "system": "urn:oid:2.16.840.1.113883.5.1076",
            "code": "1077",
            "display": "Protestant"
          } ]
        }
      }, {
        "url": "http://hl7.org/fhir/us/core/StructureDefinition/us-core-race",
        "extension": [ {
          "url": "text",
          "valueString": "Asian"
        }, {
          "url": "ombCategory",
          "valueCoding": {
            "system": "urn:oid:2.16.840.1.113883.6.238",
            "code": "2028-9",
            "display": "Asian"
          }
        } ]
      }, {
        "url": "http://hl7.org/fhir/us/core/StructureDefinition/us-core-ethnicity",
        "extension": [ {
          "url": "text",
          "valueString": "Not Hispanic or Latino"
        }, {
          "url": "ombCategory",
          "valueCoding": {
            "system": "urn:oid:2.16.840.1.113883.6.238",
            "code": "2186-5",
            "display": "Not Hispanic or Latino"
          }
        } ]
      }, {
        "url": "http://hl7.org/fhir/StructureDefinition/patient-birthPlace",
        "valueAddress": {
          "city": "Conway",
          "state": "SC",
          "postalCode": "29528",
          "country": "US"
        }
      } ],
      "identifier": [ {
        "use": "official",
        "system": "urn:oid:2.16.840.1.113883.19.5.99999.2",
        "value": "998991"
      }, {
        "use": "official",
        "system": "urn:oid:2.16.840.1.113883.4.1",
        "value": "111-00-2330"
      } ],
      "name": [ {
        "use": "usual",
        "family": "Salazar",
        "given": [ "Julie" ]
      } ],
      "telecom": [ {
        "system": "phone",
        "value": "(510)741-9831",
        "use": "mobile"
      } ],
      "gender": "female",
      "birthDate": "1950-01-13",
      "address": [ {
        "use": "home",
        "line": [ "3518 Green Avenue" ],
        "city": "Hercules",
        "state": "CA",
        "postalCode": "94547",
        "country": "US"
      } ],
      "maritalStatus": {
        "coding": [ {
          "system": "http://terminology.hl7.org/CodeSystem/v3-MaritalStatus",
          "code": "M",
          "display": "Married"
        } ]
      },
      "contact": [ {
        "relationship": [ {
          "coding": [ {
            "system": "http://terminology.hl7.org/CodeSystem/v2-0131",
            "code": "C",
            "display": "Emergency Contact"
          } ]
        } ],
        "name": {
          "family": "Warden",
          "given": [ "Andrew" ],
          "prefix": [ "Mr." ]
        },
        "telecom": [ {
          "system": "phone",
          "value": "(602)779-6592",
          "use": "home"
        }, {
          "system": "email",
          "value": "AndrewHWarden@cuvox.de",
          "use": "work"
        } ],
        "address": {
          "use": "home",
          "line": [ "1894 Crowfield Road" ],
          "city": "Phoenix",
          "state": "AZ",
          "postalCode": "85016",
          "country": "US"
        }
      } ],
      "communication": [ {
        "language": {
          "coding": [ {
            "system": "urn:ietf:bcp:47",
            "code": "spa"
          } ]
        },
        "preferred": true
      } ],
      "managingOrganization": {
        "reference": "Organization/3c946cf5-9075-4cdb-99d3-4158b44aeab4",
        "display": "Community Health and Hospitals"
      }
    }
  }, {
    "resource": {
      "resourceType": "Organization",
      "id": "3c946cf5-9075-4cdb-99d3-4158b44aeab4",
      "identifier": [ {
        "use": "official",
        "value": "2.16.840.1.113883.4.6"
      } ],
      "name": "Community Health and Hospitals",
      "telecom": [ {
        "system": "phone",
        "value": " 555-555-5000",
        "use": "work"
      } ],
      "address": [ {
        "line": [ "1001 Village Avenue" ],
        "city": "Portland",
        "state": "OR",
        "postalCode": "99123",
        "country": "US"
      } ]
    }
  }, {
    "resource": {
      "resourceType": "Practitioner",
      "id": "265008cb-dbf1-4736-9038-62de3a26381c",
      "identifier": [ {
        "use": "official",
        "system": "urn:oid:2.16.840.1.113883.4.6",
        "value": "99999999"
      } ],
      "name": [ {
        "family": "Seven",
        "given": [ "Henry" ],
        "suffix": [ "MD" ]
      } ],
      "telecom": [ {
        "system": "phone",
        "value": "555-555-1002",
        "use": "work"
      } ],
      "address": [ {
        "line": [ "1002 Healthcare Drive" ],
        "city": "Portland",
        "state": "OR",
        "postalCode": "99123",
        "country": "US"
      } ]
    }
  }, {
    "resource": {
      "resourceType": "Practitioner",
      "id": "d47be4c3-70da-43ee-8528-39d54c2cff5f",
      "identifier": [ {
        "use": "official",
        "system": "http://hl7.org/fhir/sid/us-npi",
        "value": "999999999"
      } ],
      "name": [ {
        "family": "Seven",
        "given": [ "Henry" ]
      } ],
      "telecom": [ {
        "system": "phone",
        "value": "555-555-1002",
        "use": "work"
      } ],
      "address": [ {
        "line": [ "1001 Village Avenue" ],
        "city": "Portland",
        "state": "OR",
        "postalCode": "99123",
        "country": "US"
      } ]
    }
  }, {
    "resource": {
      "resourceType": "Practitioner",
      "id": "8d0841f6-b929-43ae-bbb4-d64623c499fa",
      "identifier": [ {
        "use": "official",
        "system": "http://hl7.org/fhir/sid/us-npi",
        "value": "PseudoMD-1"
      } ],
      "name": [ {
        "family": "Seven",
        "given": [ "Henry" ],
        "suffix": [ "MD" ]
      } ],
      "telecom": [ {
        "system": "phone",
        "value": "+1-555-555-5000",
        "use": "home"
      } ],
      "address": [ {
        "line": [ "1001 Village Avenue" ],
        "city": "Portland",
        "state": "OR",
        "postalCode": "99123",
        "country": "US"
      } ]
    }
  }, {
    "resource": {
      "resourceType": "Organization",
      "id": "a4674d7f-3f3c-42e9-873a-b0208fbe66d4",
      "identifier": [ {
        "use": "official",
        "system": "urn:oid:2.16.840.1.113883.4.6",
        "value": "99999999"
      } ],
      "name": "Community Health and Hospitals",
      "telecom": [ {
        "system": "phone",
        "value": " 555-555-1002",
        "use": "work"
      } ],
      "address": [ {
        "use": "work",
        "line": [ "1002 Healthcare Drive" ],
        "city": "Portland",
        "state": "OR",
        "postalCode": "99123",
        "country": "US"
      } ]
    }
  }, {
    "resource": {
      "resourceType": "Observation",
      "id": "9de45a41-9037-403e-9dcb-4445a9b3a303",
      "identifier": [ {
        "use": "official",
        "system": "urn:oid:2.16.840.1.113883.19",
        "value": "123456789"
      } ],
      "status": "final",
      "code": {
        "coding": [ {
          "system": "urn:oid:2.16.840.1.113883.5.4",
          "code": "ASSERTION"
        } ]
      },
      "subject": {
        "reference": "Patient/806837b9-69f2-4f71-bb92-6899ca80ed2c",
        "display": "Julie Salazar"
      },
      "effectivePeriod": {
        "start": "2009-12-02T10:00:00+01:00"
      },
      "valueCodeableConcept": {
        "coding": [ {
          "system": "http://snomed.info/sct",
          "code": "266919005",
          "display": "Never smoker (Never Smoked)"
        }, {
          "system": "http://snomed.info/sct",
          "code": "449868002",
          "display": "Current every day smoker"
        } ]
      }
    }
  }, {
    "resource": {
      "resourceType": "MedicationStatement",
      "id": "71ba63cb-f197-48bc-9240-f096e9728467",
      "extension": [ {
        "url": "http://hl7.org/fhir/3.0/StructureDefinition/extension-MedicationStatement.status",
        "valueCode": "UNKNOWN"
      } ],
      "identifier": [ {
        "use": "official",
        "value": "cdbd33f0-6cde-11db-9fe1-0800200c9a66"
      } ],
      "status": "completed",
      "medicationReference": {
        "reference": "Medication/fbbdba52-9a29-41b9-9229-c46dfde012fe",
        "display": "Tamoxifen 20 MG Oral Tablet"
      },
      "subject": {
        "reference": "Patient/806837b9-69f2-4f71-bb92-6899ca80ed2c",
        "display": "Julie Salazar"
      },
      "effectivePeriod": {
        "start": "2010-07-15T10:00:00+02:00"
      }
    }
  }, {
    "resource": {
      "resourceType": "Medication",
      "id": "fbbdba52-9a29-41b9-9229-c46dfde012fe",
      "code": {
        "coding": [ {
          "system": "http://www.nlm.nih.gov/research/umls/rxnorm",
          "code": "313195",
          "display": "Tamoxifen 20 MG Oral Tablet"
        } ]
      }
    }
  }, {
    "resource": {
      "resourceType": "Condition",
      "id": "69d1f66a-e660-4dc9-843b-e15a30c0e2e2",
      "identifier": [ {
        "use": "official",
        "value": "9d3d416d-45ab-4da1-912f-4583e0632000"
      } ],
      "clinicalStatus": {
        "coding": [ {
          "system": "http://terminology.hl7.org/CodeSystem/condition-clinical",
          "code": "active",
          "display": "Active"
        } ]
      },
      "verificationStatus": {
        "coding": [ {
          "system": "http://terminology.hl7.org/CodeSystem/condition-ver-status",
          "code": "confirmed",
          "display": "Confirmed"
        } ]
      },
      "category": [ {
        "coding": [ {
          "system": "http://terminology.hl7.org/CodeSystem/condition-category",
          "code": "problem-list-item",
          "display": "Problem List Item"
        } ]
      } ],
      "code": {
        "coding": [ {
          "system": "http://snomed.info/sct",
          "code": "261653007",
          "display": "Tumor stage T2c"
        } ]
      },
      "subject": {
        "reference": "Patient/806837b9-69f2-4f71-bb92-6899ca80ed2c",
        "display": "Julie Salazar"
      },
      "onsetDateTime": "2010-07-10T10:00:00+02:00"
    }
  }, {
    "resource": {
      "resourceType": "Observation",
      "id": "5dae2bb0-afcd-4faa-af45-9a9c4db1092c",
      "identifier": [ {
        "use": "official",
        "value": "c6f88321-67ad-11db-bd13-0800200c9a66"
      } ],
      "status": "final",
      "category": [ {
        "coding": [ {
          "system": "http://terminology.hl7.org/CodeSystem/observation-category",
          "code": "vital-signs",
          "display": "Vital Signs"
        } ]
      } ],
      "code": {
        "coding": [ {
          "system": "http://loinc.org",
          "code": "39156-5",
          "display": "BMI"
        } ]
      },
      "subject": {
        "reference": "Patient/806837b9-69f2-4f71-bb92-6899ca80ed2c",
        "display": "Julie Salazar"
      },
      "effectivePeriod": {
        "start": "2010-09-06T10:00:00+02:00"
      },
      "valueQuantity": {
        "value": 25.8,
        "unit": "kg/m2",
        "system": "http://unitsofmeasure.org",
        "code": "kg/m2"
      }
    }
  }, {
    "resource": {
      "resourceType": "Observation",
      "id": "1d1c640f-ee1b-4f3e-b7c2-edb6d6711d7f",
      "identifier": [ {
        "use": "official",
        "value": "c6f88321-67ad-11db-bd13-0800200c9a66"
      } ],
      "status": "final",
      "category": [ {
        "coding": [ {
          "system": "http://terminology.hl7.org/CodeSystem/observation-category",
          "code": "vital-signs",
          "display": "Vital Signs"
        } ]
      } ],
      "code": {
        "coding": [ {
          "system": "http://loinc.org",
          "code": "8480-6",
          "display": "BP Systolic"
        } ]
      },
      "subject": {
        "reference": "Patient/806837b9-69f2-4f71-bb92-6899ca80ed2c",
        "display": "Julie Salazar"
      },
      "effectivePeriod": {
        "start": "2010-09-06T10:00:00+02:00"
      },
      "valueQuantity": {
        "value": 126,
        "unit": "mm[Hg]",
        "system": "http://unitsofmeasure.org",
        "code": "mm[Hg]"
      }
    }
  }, {
    "resource": {
      "resourceType": "Observation",
      "id": "0e7b0b82-66d2-4e78-bebf-8b6ae29f8df6",
      "identifier": [ {
        "use": "official",
        "value": "c6f88321-67ad-11db-bd13-0800200c9a66"
      } ],
      "status": "final",
      "category": [ {
        "coding": [ {
          "system": "http://terminology.hl7.org/CodeSystem/observation-category",
          "code": "vital-signs",
          "display": "Vital Signs"
        } ]
      } ],
      "code": {
        "coding": [ {
          "system": "http://loinc.org",
          "code": "8462-4",
          "display": "BP Diastolic"
        } ]
      },
      "subject": {
        "reference": "Patient/806837b9-69f2-4f71-bb92-6899ca80ed2c",
        "display": "Julie Salazar"
      },
      "effectivePeriod": {
        "start": "2010-09-06T10:00:00+02:00"
      },
      "valueQuantity": {
        "value": 76,
        "unit": "mm[Hg]",
        "system": "http://unitsofmeasure.org",
        "code": "mm[Hg]"
      }
    }
  }, {
    "resource": {
      "resourceType": "Observation",
      "id": "a90c45e8-91c6-49e0-a5a8-835a14cde0a2",
      "identifier": [ {
        "use": "official",
        "value": "c6f88321-67ad-11db-bd13-0800200c9a66"
      } ],
      "status": "final",
      "category": [ {
        "coding": [ {
          "system": "http://terminology.hl7.org/CodeSystem/observation-category",
          "code": "vital-signs",
          "display": "Vital Signs"
        } ]
      } ],
      "code": {
        "coding": [ {
          "system": "http://loinc.org",
          "code": "8480-6",
          "display": "BP Systolic"
        } ]
      },
      "subject": {
        "reference": "Patient/806837b9-69f2-4f71-bb92-6899ca80ed2c",
        "display": "Julie Salazar"
      },
      "effectivePeriod": {
        "start": "2010-05-22T10:00:00+02:00"
      },
      "valueQuantity": {
        "value": 128,
        "unit": "mm[Hg]",
        "system": "http://unitsofmeasure.org",
        "code": "mm[Hg]"
      }
    }
  }, {
    "resource": {
      "resourceType": "Observation",
      "id": "aaec1a1f-b24f-408a-a3f5-61d518e7627c",
      "identifier": [ {
        "use": "official",
        "value": "c6f88321-67ad-11db-bd13-0800200c9a66"
      } ],
      "status": "final",
      "category": [ {
        "coding": [ {
          "system": "http://terminology.hl7.org/CodeSystem/observation-category",
          "code": "vital-signs",
          "display": "Vital Signs"
        } ]
      } ],
      "code": {
        "coding": [ {
          "system": "http://loinc.org",
          "code": "8462-4",
          "display": "BP Diastolic"
        } ]
      },
      "subject": {
        "reference": "Patient/806837b9-69f2-4f71-bb92-6899ca80ed2c",
        "display": "Julie Salazar"
      },
      "effectivePeriod": {
        "start": "2010-05-22T10:00:00+02:00"
      },
      "valueQuantity": {
        "value": 76,
        "unit": "mm[Hg]",
        "system": "http://unitsofmeasure.org",
        "code": "mm[Hg]"
      }
    }
  }, {
    "resource": {
      "resourceType": "Observation",
      "id": "a0f5d957-034d-4021-922a-bb74b69ffdee",
      "identifier": [ {
        "use": "official",
        "value": "c6f88321-67ad-11db-bd13-0800200c9a66"
      } ],
      "status": "final",
      "category": [ {
        "coding": [ {
          "system": "http://terminology.hl7.org/CodeSystem/observation-category",
          "code": "vital-signs",
          "display": "Vital Signs"
        } ]
      } ],
      "code": {
        "coding": [ {
          "system": "http://loinc.org",
          "code": "8480-6",
          "display": "BP Systolic"
        } ]
      },
      "subject": {
        "reference": "Patient/806837b9-69f2-4f71-bb92-6899ca80ed2c",
        "display": "Julie Salazar"
      },
      "effectivePeriod": {
        "start": "2010-11-22T10:00:00+01:00"
      },
      "valueQuantity": {
        "value": 130,
        "unit": "mm[Hg]",
        "system": "http://unitsofmeasure.org",
        "code": "mm[Hg]"
      }
    }
  }, {
    "resource": {
      "resourceType": "Observation",
      "id": "e7c301e5-2476-4a06-a668-a83424724ea7",
      "identifier": [ {
        "use": "official",
        "value": "c6f88321-67ad-11db-bd13-0800200c9a66"
      } ],
      "status": "final",
      "category": [ {
        "coding": [ {
          "system": "http://terminology.hl7.org/CodeSystem/observation-category",
          "code": "vital-signs",
          "display": "Vital Signs"
        } ]
      } ],
      "code": {
        "coding": [ {
          "system": "http://loinc.org",
          "code": "8462-4",
          "display": "BP Diastolic"
        } ]
      },
      "subject": {
        "reference": "Patient/806837b9-69f2-4f71-bb92-6899ca80ed2c",
        "display": "Julie Salazar"
      },
      "effectivePeriod": {
        "start": "2010-11-22T10:00:00+01:00"
      },
      "valueQuantity": {
        "value": 80,
        "unit": "mm[Hg]",
        "system": "http://unitsofmeasure.org",
        "code": "mm[Hg]"
      }
    }
  }, {
    "resource": {
      "resourceType": "Observation",
      "id": "a4098c8d-fe8e-4762-85de-f7d8653bc6cf",
      "identifier": [ {
        "use": "official",
        "value": "c6f88321-67ad-11db-bd13-0800200c9a66"
      } ],
      "status": "final",
      "category": [ {
        "coding": [ {
          "system": "http://terminology.hl7.org/CodeSystem/observation-category",
          "code": "vital-signs",
          "display": "Vital Signs"
        } ]
      } ],
      "code": {
        "coding": [ {
          "system": "http://loinc.org",
          "code": "39156-5",
          "display": "BMI"
        } ]
      },
      "subject": {
        "reference": "Patient/806837b9-69f2-4f71-bb92-6899ca80ed2c",
        "display": "Julie Salazar"
      },
      "effectivePeriod": {
        "start": "2010-11-22T10:00:00+01:00"
      },
      "valueQuantity": {
        "value": 24.9,
        "unit": "kg/m2",
        "system": "http://unitsofmeasure.org",
        "code": "kg/m2"
      }
    }
  }, {
    "resource": {
      "resourceType": "AllergyIntolerance",
      "id": "662a6f49-b0d2-4eb2-a474-ec51a787c9e1",
      "identifier": [ {
        "use": "official",
        "value": "36e3e930-7b14-11db-9fe1-0800200c9a66"
      } ],
      "clinicalStatus": {
        "coding": [ {
          "system": "http://terminology.hl7.org/CodeSystem/allergyintolerance-clinical",
          "code": "active",
          "display": "Active"
        } ]
      },
      "verificationStatus": {
        "coding": [ {
          "system": "http://terminology.hl7.org/CodeSystem/allergyintolerance-verification",
          "code": "confirmed",
          "display": "Confirmed"
        } ]
      },
      "type": "allergy",
      "category": [ "food" ],
      "code": {
        "coding": [ {
          "system": "http://fdasis.nlm.nih.gov",
          "code": "291P45F896",
          "display": "Eggs"
        }, {
          "system": "urn:oid:2.16.840.1.113883.6.103",
          "code": "V15.03",
          "display": "Allergy to eggs"
        } ],
        "text": "Allergy to Eggs + Eggs"
      },
      "patient": {
        "reference": "Patient/806837b9-69f2-4f71-bb92-6899ca80ed2c",
        "display": "Julie Salazar"
      },
      "recordedDate": "2009-12-02T10:00:00+01:00"
    }
  }, {
    "resource": {
      "resourceType": "AllergyIntolerance",
      "id": "3dd3d98e-a97c-4b03-a371-4c3106089fc2",
      "identifier": [ {
        "use": "official",
        "value": "36e3e930-7b14-11db-9fe1-0800200c9a66"
      } ],
      "clinicalStatus": {
        "coding": [ {
          "system": "http://terminology.hl7.org/CodeSystem/allergyintolerance-clinical",
          "code": "active",
          "display": "Active"
        } ]
      },
      "verificationStatus": {
        "coding": [ {
          "system": "http://terminology.hl7.org/CodeSystem/allergyintolerance-verification",
          "code": "confirmed",
          "display": "Confirmed"
        } ]
      },
      "type": "allergy",
      "category": [ "medication" ],
      "code": {
        "coding": [ {
          "system": "http://www.nlm.nih.gov/research/umls/rxnorm",
          "code": "406524",
          "display": "Doxycycline 75 MG Enteric Coated Tablet"
        }, {
          "system": "urn:oid:2.16.840.1.113883.3.26.1.5",
          "code": "N0000006275",
          "display": "Tetracycline"
        } ],
        "text": "Tetracyclines + Doxycycline 75 MG Enteric Coated Tablet"
      },
      "patient": {
        "reference": "Patient/806837b9-69f2-4f71-bb92-6899ca80ed2c",
        "display": "Julie Salazar"
      },
      "recordedDate": "2009-12-02T10:00:00+01:00"
    }
  }, {
    "resource": {
      "resourceType": "AllergyIntolerance",
      "id": "3105ec1b-3a85-4f05-bfef-98a94f401ed2",
      "identifier": [ {
        "use": "official",
        "value": "36e3e930-7b14-11db-9fe1-0800200c9a66"
      } ],
      "clinicalStatus": {
        "coding": [ {
          "system": "http://terminology.hl7.org/CodeSystem/allergyintolerance-clinical",
          "code": "active",
          "display": "Active"
        } ]
      },
      "verificationStatus": {
        "coding": [ {
          "system": "http://terminology.hl7.org/CodeSystem/allergyintolerance-verification",
          "code": "confirmed",
          "display": "Confirmed"
        } ]
      },
      "type": "allergy",
      "category": [ "medication" ],
      "code": {
        "coding": [ {
          "system": "http://www.nlm.nih.gov/research/umls/rxnorm",
          "code": "808917",
          "display": "Fosfomycin 33.3 MG/ML Oral Suspension"
        } ],
        "text": "Fosfomycin + Fosfomycin 33.3 MG/ML Oral Suspension"
      },
      "patient": {
        "reference": "Patient/806837b9-69f2-4f71-bb92-6899ca80ed2c",
        "display": "Julie Salazar"
      },
      "recordedDate": "2009-12-02T10:00:00+01:00"
    }
  }, {
    "resource": {
      "resourceType": "Encounter",
      "id": "484cb71c-7e73-4717-9598-1f1d6f9ef7b1",
      "identifier": [ {
        "use": "official",
        "value": "2a620155-9d11-439e-92b3-5d9815ff4de8"
      } ],
      "status": "finished",
      "type": [ {
        "coding": [ {
          "system": "http://www.ama-assn.org/go/cpt",
          "code": "99238",
          "display": "Hospital discharge day"
        } ]
      } ],
      "subject": {
        "reference": "Patient/806837b9-69f2-4f71-bb92-6899ca80ed2c",
        "display": "Julie Salazar"
      },
      "period": {
        "start": "2009-12-05T10:00:00+01:00"
      }
    }
  }, {
    "resource": {
      "resourceType": "Encounter",
      "id": "85694a22-61bc-4418-bad8-0c0c45458204",
      "identifier": [ {
        "use": "official",
        "value": "2a620155-9d11-439e-92b3-5d9815ff4de8"
      } ],
      "status": "finished",
      "type": [ {
        "coding": [ {
          "system": "http://www.ama-assn.org/go/cpt",
          "code": "99212",
          "display": "Office/outpatient visit, est"
        } ]
      } ],
      "subject": {
        "reference": "Patient/806837b9-69f2-4f71-bb92-6899ca80ed2c",
        "display": "Julie Salazar"
      },
      "period": {
        "start": "2010-03-31T10:00:00+02:00"
      }
    }
  }, {
    "resource": {
      "resourceType": "Encounter",
      "id": "48206824-8cb1-4af2-92a2-82d058923a35",
      "identifier": [ {
        "use": "official",
        "value": "2a620155-9d11-439e-92b3-5d9815ff4de8"
      } ],
      "status": "finished",
      "type": [ {
        "coding": [ {
          "system": "http://www.ama-assn.org/go/cpt",
          "code": "99238",
          "display": "Hospital discharge day"
        } ]
      } ],
      "subject": {
        "reference": "Patient/806837b9-69f2-4f71-bb92-6899ca80ed2c",
        "display": "Julie Salazar"
      },
      "period": {
        "start": "2010-07-10T10:00:00+02:00"
      },
      "reasonCode": [ {
        "coding": [ {
          "system": "http://snomed.info/sct",
          "code": "188161004",
          "display": "Breast Cancer"
        } ]
      }, {
        "coding": [ {
          "system": "http://snomed.info/sct",
          "code": "417742002",
          "display": "Breast Cancer ER or PR Positive"
        } ]
      }, {
        "coding": [ {
          "system": "http://snomed.info/sct",
          "code": "261653007",
          "display": "Breast Cancer Stage IC-IIIC"
        } ]
      } ],
      "reasonReference": [ {
        "reference": "Condition/a6db5cc7-3537-477c-8819-43389a73ef49",
        "display": "Breast Cancer ER or PR Positive"
      }, {
        "reference": "Condition/951e460b-a61f-41d8-8fff-6755b545fa1d",
        "display": "Breast Cancer Stage IC-IIIC"
      }, {
        "reference": "Condition/e9987c6a-cc96-49af-bbc4-9fc4a3b47532",
        "display": "Breast Cancer"
      } ]
    }
  }, {
    "resource": {
      "resourceType": "Condition",
      "id": "a6db5cc7-3537-477c-8819-43389a73ef49",
      "identifier": [ {
        "use": "official",
        "system": "urn:uuid:db734647-fc99-424c-a864-7e3cda82e703",
        "value": "45665"
      } ],
      "clinicalStatus": {
        "coding": [ {
          "system": "http://terminology.hl7.org/CodeSystem/condition-clinical",
          "code": "active",
          "display": "Active"
        } ]
      },
      "category": [ {
        "coding": [ {
          "system": "http://hl7.org/fhir/condition-category",
          "code": "encounter-diagnosis",
          "display": "Encounter Diagnosis"
        } ]
      } ],
      "code": {
        "coding": [ {
          "system": "http://snomed.info/sct",
          "code": "417742002",
          "display": "Breast Cancer ER or PR Positive"
        } ]
      },
      "subject": {
        "reference": "Patient/806837b9-69f2-4f71-bb92-6899ca80ed2c",
        "display": "Julie Salazar"
      },
      "onsetDateTime": "2010-07-10T10:00:00+02:00"
    }
  }, {
    "resource": {
      "resourceType": "Condition",
      "id": "951e460b-a61f-41d8-8fff-6755b545fa1d",
      "identifier": [ {
        "use": "official",
        "system": "urn:uuid:db734647-fc99-424c-a864-7e3cda82e703",
        "value": "45665"
      } ],
      "clinicalStatus": {
        "coding": [ {
          "system": "http://terminology.hl7.org/CodeSystem/condition-clinical",
          "code": "active",
          "display": "Active"
        } ]
      },
      "category": [ {
        "coding": [ {
          "system": "http://hl7.org/fhir/condition-category",
          "code": "encounter-diagnosis",
          "display": "Encounter Diagnosis"
        } ]
      } ],
      "code": {
        "coding": [ {
          "system": "http://snomed.info/sct",
          "code": "261653007",
          "display": "Breast Cancer Stage IC-IIIC"
        } ]
      },
      "subject": {
        "reference": "Patient/806837b9-69f2-4f71-bb92-6899ca80ed2c",
        "display": "Julie Salazar"
      },
      "onsetDateTime": "2010-07-10T10:00:00+02:00"
    }
  }, {
    "resource": {
      "resourceType": "Condition",
      "id": "e9987c6a-cc96-49af-bbc4-9fc4a3b47532",
      "identifier": [ {
        "use": "official",
        "system": "urn:uuid:db734647-fc99-424c-a864-7e3cda82e703",
        "value": "45665"
      } ],
      "clinicalStatus": {
        "coding": [ {
          "system": "http://terminology.hl7.org/CodeSystem/condition-clinical",
          "code": "active",
          "display": "Active"
        } ]
      },
      "category": [ {
        "coding": [ {
          "system": "http://hl7.org/fhir/condition-category",
          "code": "encounter-diagnosis",
          "display": "Encounter Diagnosis"
        } ]
      } ],
      "code": {
        "coding": [ {
          "system": "http://snomed.info/sct",
          "code": "188161004",
          "display": "Breast Cancer"
        }, {
          "system": "urn:oid:2.16.840.1.113883.6.90",
          "code": "C50",
          "display": "Malignant neoplasm of breast"
        }, {
          "system": "urn:oid:2.16.840.1.113883.6.103",
          "code": "174.9",
          "display": "Malignant neoplasm of breast (female), unspecified"
        } ]
      },
      "subject": {
        "reference": "Patient/806837b9-69f2-4f71-bb92-6899ca80ed2c",
        "display": "Julie Salazar"
      },
      "onsetDateTime": "2010-07-10T10:00:00+02:00"
    }
  }, {
    "resource": {
      "resourceType": "Encounter",
      "id": "cfaf60cc-6378-421a-9d22-6a54e21ed45a",
      "identifier": [ {
        "use": "official",
        "value": "2a620155-9d11-439e-92b3-5d9815ff4de8"
      } ],
      "status": "finished",
      "type": [ {
        "coding": [ {
          "system": "http://www.ama-assn.org/go/cpt",
          "code": "99251",
          "display": "Initial inpatient consult"
        } ]
      } ],
      "subject": {
        "reference": "Patient/806837b9-69f2-4f71-bb92-6899ca80ed2c",
        "display": "Julie Salazar"
      },
      "period": {
        "start": "2010-07-08T10:00:00+02:00"
      }
    }
  }, {
    "resource": {
      "resourceType": "Encounter",
      "id": "503fa86c-eb72-4e25-a5bb-5acea66826be",
      "identifier": [ {
        "use": "official",
        "value": "2a620155-9d11-439e-92b3-5d9815ff4de8"
      } ],
      "status": "finished",
      "type": [ {
        "coding": [ {
          "system": "http://www.ama-assn.org/go/cpt",
          "code": "99213",
          "display": "Office/outpatient visit, est"
        }, {
          "system": "urn:oid:2.16.840.1.113883.6.103",
          "code": "V70.0",
          "display": "Routine general medical examination at a health care facility"
        } ]
      } ],
      "subject": {
        "reference": "Patient/806837b9-69f2-4f71-bb92-6899ca80ed2c",
        "display": "Julie Salazar"
      },
      "period": {
        "start": "2010-05-22T10:00:00+02:00"
      }
    }
  }, {
    "resource": {
      "resourceType": "Encounter",
      "id": "3e878411-6143-4594-8b9d-3f9d93584f62",
      "identifier": [ {
        "use": "official",
        "value": "2a620155-9d11-439e-92b3-5d9815ff4de8"
      } ],
      "status": "finished",
      "type": [ {
        "coding": [ {
          "system": "http://www.ama-assn.org/go/cpt",
          "code": "99251",
          "display": "Initial inpatient consult"
        } ]
      } ],
      "subject": {
        "reference": "Patient/806837b9-69f2-4f71-bb92-6899ca80ed2c",
        "display": "Julie Salazar"
      },
      "period": {
        "start": "2009-12-02T10:00:00+01:00"
      },
      "reasonCode": [ {
        "coding": [ {
          "system": "http://snomed.info/sct",
          "code": "52674009",
          "display": "ischemic vascular disease"
        } ]
      } ],
      "reasonReference": [ {
        "reference": "Condition/e9987c6a-cc96-49af-bbc4-9fc4a3b47532",
        "display": "Breast Cancer"
      } ]
    }
  }, {
    "resource": {
      "resourceType": "Encounter",
      "id": "d1d4ea2a-38d7-486e-95d7-90788620e7ef",
      "identifier": [ {
        "use": "official",
        "value": "2a620155-9d11-439e-92b3-5d9815ff4de8"
      } ],
      "status": "finished",
      "type": [ {
        "coding": [ {
          "system": "http://www.ama-assn.org/go/cpt",
          "code": "99212",
          "display": "Office/outpatient visit, est"
        } ]
      } ],
      "subject": {
        "reference": "Patient/806837b9-69f2-4f71-bb92-6899ca80ed2c",
        "display": "Julie Salazar"
      },
      "period": {
        "start": "2010-09-06T10:00:00+02:00"
      }
    }
  }, {
    "resource": {
      "resourceType": "Encounter",
      "id": "509cb79a-6c42-4897-b032-577141f0a162",
      "identifier": [ {
        "use": "official",
        "value": "2a620155-9d11-439e-92b3-5d9815ff4de8"
      } ],
      "status": "finished",
      "type": [ {
        "coding": [ {
          "system": "http://www.ama-assn.org/go/cpt",
          "code": "99213",
          "display": "Office/outpatient visit, est"
        }, {
          "system": "urn:oid:2.16.840.1.113883.6.103",
          "code": "V70.0",
          "display": "Routine general medical examination at a health care facility"
        } ]
      } ],
      "subject": {
        "reference": "Patient/806837b9-69f2-4f71-bb92-6899ca80ed2c",
        "display": "Julie Salazar"
      },
      "period": {
        "start": "2010-11-22T10:00:00+01:00"
      }
    }
  }, {
    "resource": {
      "resourceType": "DiagnosticReport",
      "id": "a4600a03-8fa3-4a84-a2b6-fc2a9dc1be39",
      "identifier": [ {
        "use": "official",
        "value": "7d5a02b0-67a4-11db-bd13-0800200c9a66"
      } ],
      "status": "final",
      "category": [ {
        "coding": [ {
          "system": "http://terminology.hl7.org/CodeSystem/v2-0074",
          "code": "LAB",
          "display": "Laboratory"
        } ]
      } ],
      "code": {
        "coding": [ {
          "system": "http://snomed.info/sct",
          "code": "167670005",
          "display": "FOBT"
        } ]
      },
      "subject": {
        "reference": "Patient/806837b9-69f2-4f71-bb92-6899ca80ed2c",
        "display": "Julie Salazar"
      },
      "result": [ {
        "reference": "Observation/029d1ab0-fa88-4b64-bfeb-75d0aadb8073",
        "display": "Hemoccult Stl Ql"
      } ]
    }
  }, {
    "resource": {
      "resourceType": "Observation",
      "id": "029d1ab0-fa88-4b64-bfeb-75d0aadb8073",
      "identifier": [ {
        "use": "official",
        "value": "107c2dc0-67a5-11db-bd13-0800200c9a66"
      } ],
      "status": "final",
      "category": [ {
        "coding": [ {
          "system": "http://terminology.hl7.org/CodeSystem/observation-category",
          "code": "laboratory"
        } ]
      } ],
      "code": {
        "coding": [ {
          "system": "http://loinc.org",
          "code": "2335-8",
          "display": "Hemoccult Stl Ql"
        }, {
          "system": "http://www.ama-assn.org/go/cpt",
          "code": "82274",
          "display": "Assay test for blood, fecal"
        }, {
          "system": "urn:oid:2.16.840.1.113883.6.13",
          "code": "G0328",
          "display": "Fecal blood scrn immunoassay"
        }, {
          "system": "urn:oid:2.16.840.1.113883.6.103",
          "code": "V76.51",
          "display": "Special screening for malignant neoplasms of colon"
        }, {
          "system": "http://snomed.info/sct",
          "code": "252156002",
          "display": "Occult blood screening"
        } ]
      },
      "subject": {
        "reference": "Patient/806837b9-69f2-4f71-bb92-6899ca80ed2c",
        "display": "Julie Salazar"
      },
      "effectivePeriod": {
        "start": "2010-05-22T10:00:00+02:00"
      },
      "valueCodeableConcept": {
        "coding": [ {
          "system": "http://snomed.info/sct",
          "code": "260385009",
          "display": "negative"
        } ]
      },
      "interpretation": [ {
        "coding": [ {
          "system": "http://terminology.hl7.org/CodeSystem/v3-ObservationInterpretation",
          "code": "N"
        } ]
      } ],
      "referenceRange": [ {
        "text": "NA"
      } ]
    }
  }, {
    "resource": {
      "resourceType": "DiagnosticReport",
      "id": "bd75c0a0-2d0c-483d-8ac8-b3062ee846ce",
      "identifier": [ {
        "use": "official",
        "value": "7d5a02b0-67a4-11db-bd13-0800200c9a66"
      } ],
      "status": "final",
      "category": [ {
        "coding": [ {
          "system": "http://terminology.hl7.org/CodeSystem/v2-0074",
          "code": "LAB",
          "display": "Laboratory"
        } ]
      } ],
      "code": {
        "coding": [ {
          "system": "http://snomed.info/sct",
          "code": "116147009",
          "display": "Cytology"
        } ]
      },
      "subject": {
        "reference": "Patient/806837b9-69f2-4f71-bb92-6899ca80ed2c",
        "display": "Julie Salazar"
      },
      "result": [ {
        "reference": "Observation/22f03a65-e2d3-4bd4-945c-933170156282",
        "display": "Cyto Cervix"
      } ]
    }
  }, {
    "resource": {
      "resourceType": "Observation",
      "id": "22f03a65-e2d3-4bd4-945c-933170156282",
      "identifier": [ {
        "use": "official",
        "value": "107c2dc0-67a5-11db-bd13-0800200c9a66"
      } ],
      "status": "final",
      "category": [ {
        "coding": [ {
          "system": "http://terminology.hl7.org/CodeSystem/observation-category",
          "code": "laboratory"
        } ]
      } ],
      "code": {
        "coding": [ {
          "system": "http://loinc.org",
          "code": "10524-7",
          "display": "Cyto Cervix"
        }, {
          "system": "http://www.ama-assn.org/go/cpt",
          "code": "88174",
          "display": "Cytopath, c/v auto, in fluid"
        }, {
          "system": "urn:oid:2.16.840.1.113883.6.13",
          "code": "G0147",
          "display": "Scr c/v cyto, automated sys"
        }, {
          "system": "urn:oid:2.16.840.1.113883.6.90",
          "code": "Z12.4",
          "display": "Encounter for screening for malignant neoplasm of cervix"
        }, {
          "system": "urn:oid:2.16.840.1.113883.6.103",
          "code": "V72.32",
          "display": "Encounter for Papanicolaou cervical smear to confirm findings of recent normal smear following initial abnormal smear"
        }, {
          "system": "http://snomed.info/sct",
          "code": "440623000",
          "display": "Microscopic examination of cervical Papanicolaou smear"
        } ]
      },
      "subject": {
        "reference": "Patient/806837b9-69f2-4f71-bb92-6899ca80ed2c",
        "display": "Julie Salazar"
      },
      "effectivePeriod": {
        "start": "2010-05-22T10:00:00+02:00"
      },
      "valueCodeableConcept": {
        "coding": [ {
          "system": "http://snomed.info/sct",
          "code": "17621005",
          "display": "normal"
        } ]
      },
      "interpretation": [ {
        "coding": [ {
          "system": "http://terminology.hl7.org/CodeSystem/v3-ObservationInterpretation",
          "code": "N"
        } ]
      } ],
      "referenceRange": [ {
        "text": "NA"
      } ]
    }
  } ]
}