{
  "resourceType": "Bundle",
  "entry": [ {
    "resource": {
      "resourceType": "Composition",
      "id": "c900cddf-5ffc-46de-a14d-8517a59d6f8e",
      "identifier": {
        "use": "official",
        "value": "db734647-fc99-424c-a864-7e3cda82e703"
      },
      "status": "preliminary",
      "type": {
        "coding": [ {
          "system": "http://loinc.org",
          "code": "34133-9",
          "display": "Summarization of Episode Note"
        } ]
      },
      "category": [ {
        "coding": [ {
          "system": "http://hl7.org/fhir/ValueSet/doc-classcodes",
          "code": "LP173421-7",
          "display": "Note"
        } ]
      } ],
      "subject": {
        "reference": "Patient/0851bf68-d155-4411-8583-e46892093e4b",
        "display": "Leslie Brown"
      },
      "date": "2014-04-16T11:55:32+02:00",
      "author": [ {
        "reference": "Practitioner/950552dc-e80f-4938-a2c7-dd6d455bd716",
        "display": "Henry Seven MD"
      } ],
      "title": "Community Health and Hospitals: Health Summary",
      "confidentiality": "N",
      "attester": [ {
        "mode": "legal",
        "time": "2013-04-18T09:00:00+05:00",
        "party": {
          "reference": "Practitioner/58ac13ac-7b0c-4264-b5a4-262bbfccdc27",
          "display": "Henry Seven"
        }
      }, {
        "mode": "professional",
        "time": "2014-04-16T11:55:32+02:00",
        "party": {
          "reference": "Practitioner/58ac13ac-7b0c-4264-b5a4-262bbfccdc27",
          "display": "Henry Seven"
        }
      } ],
      "custodian": {
        "reference": "Organization/99031dac-7f35-4a08-ae50-ad361dda5c58",
        "display": "Community Health and Hospitals"
      },
      "event": [ {
        "period": {
          "start": "2009-05-05T10:00:00+02:00",
          "end": "2010-10-16T10:00:00+02:00"
        },
        "detail": [ {
          "reference": "Practitioner/0f02644f-e506-4e18-b8cf-180f6b1a7af3",
          "display": "Henry Seven MD"
        } ]
      } ],
      "section": [ {
        "title": "Results",
        "code": {
          "coding": [ {
            "system": "http://loinc.org",
            "code": "30954-2",
            "display": "Results"
          } ]
        },
        "text": {
          "status": "additional",
          "div": "<div xmlns=\"http://www.w3.org/1999/xhtml\"><table><thead><tr><th>Group Description</th><th>Code System</th><th>Code</th><th>Code Description</th><th>Value</th><th>Unit</th><th>Reference Range</th><th>Date and Time</th><th>Status</th></tr></thead><tbody><tr><td>Prostate Specific Antigen Test</td><td>LOINC</td><td>19195-7</td><td><span/>PSA SerPl-aCnc</td><td>16</td><td>ng/mL</td><td>&amp;lt;2.5 ng/mL</td><td>04-10-2010 10:00:00</td><td>Completed</td></tr><tr><td/><td>CPT</td><td>84153</td><td>Assay of psa, total</td><td/><td/><td/><td/><td/></tr><tr><td/><td>SNOMED-CT</td><td>63476009</td><td>Prostate specific antigen measurement</td><td/><td/><td/><td/><td/></tr><tr><td>Gleason Score</td><td>LOINC</td><td>35266-6</td><td><span/>Gleason Score Spec Ql</td><td>9</td><td>NA</td><td>2-10</td><td>05-10-2010 10:00:00</td><td>Completed</td></tr><tr><td/><td>SNOMED-CT</td><td>384997002</td><td>Total Gleason score</td><td/><td/><td/><td/><td/></tr><tr><td>High Density Lipoprotein (HDL)</td><td>LOINC</td><td>14646-4</td><td><span/>HDLc SerPl-sCnc</td><td>65</td><td>mg/dL</td><td>&amp;gt;=40 mg/dL</td><td>08-06-2010 10:00:00</td><td>Completed</td></tr><tr><td/><td>CPT</td><td>83701</td><td>Lipoprotein bld, hr fraction</td><td/><td/><td/><td/><td/></tr><tr><td/><td>SNOMED-CT</td><td>28036006</td><td>High density lipoprotein cholesterol measurement</td><td/><td/><td/><td/><td/></tr><tr><td>Low Density Lipoprotein (LDL)</td><td>LOINC</td><td>2089-1</td><td><span/>LDLc SerPl-mCnc</td><td>132</td><td>mg/dL</td><td>&amp;lt;130 mg/dL (calc)</td><td>08-06-2010 10:00:00</td><td>Completed</td></tr><tr><td/><td>CPT</td><td>83721</td><td>Assay of blood lipoprotein</td><td/><td/><td/><td/><td/></tr><tr><td/><td>SNOMED-CT</td><td>113079009</td><td>Low density lipoprotein cholesterol measurement</td><td/><td/><td/><td/><td/></tr><tr><td>Total Cholesterol</td><td>LOINC</td><td>2093-3</td><td><span/>Cholest SerPl-mCnc</td><td>219</td><td>mg/dL</td><td>125-200 mg/dL</td><td>08-06-2010 10:00:00</td><td>Completed</td></tr><tr><td/><td>CPT</td><td>82465</td><td>Assay, bld/serum cholesterol</td><td/><td/><td/><td/><td/></tr><tr><td/><td>SNOMED-CT</td><td>121868005</td><td>Total cholesterol measurement</td><td/><td/><td/><td/><td/></tr><tr><td>Triglycerides</td><td>LOINC</td><td>12951-0</td><td><span/>Trigl SerPl Calc-mCnc</td><td>110</td><td>mg/dL</td><td>10-39 years: 55-110 mg/dL | 40-59 years: 70-150 mg/dL | &amp;gt;60 years: 80-150 mg/dL | Therapeutic Target: &amp;lt;100 mg/dL </td><td>08-06-2010 10:00:00</td><td>Completed</td></tr><tr><td/><td>CPT</td><td>84478</td><td>Assay of triglycerides</td><td/><td/><td/><td/><td/></tr><tr><td/><td>SNOMED-CT</td><td>14740000</td><td>Triglycerides measurement</td><td/><td/><td/><td/><td/></tr></tbody></table></div>"
        },
        "mode": "snapshot",
        "entry": [ {
          "reference": "DiagnosticReport/f694d72d-5939-4a00-8f58-f74290a6a431",
          "display": "Blood Chemistry"
        }, {
          "reference": "DiagnosticReport/e5978cc9-88be-4376-8782-8b958623dea4",
          "display": "Pathology"
        }, {
          "reference": "DiagnosticReport/4ff6b58d-e471-44b1-9472-4459db2955b2",
          "display": "Lipid Panel"
        } ]
      }, {
        "title": "Encounters",
        "code": {
          "coding": [ {
            "system": "http://loinc.org",
            "code": "46240-8",
            "display": "History of encounters"
          } ]
        },
        "text": {
          "status": "additional",
          "div": "<div xmlns=\"http://www.w3.org/1999/xhtml\"><table><thead><tr><th>Group Description</th><th>Code System</th><th>Code</th><th>Code Description</th><th>Date and Time</th><th>Status</th></tr></thead><tbody><tr><td>Encounter ED</td><td>CPT</td><td>99281</td><td><span/>Emergency dept visit</td><td>05-05-2009 10:00:00</td><td>Performed</td></tr><tr><td>Encounter Outpatient</td><td>CPT</td><td>99213</td><td><span/>Office/outpatient visit, est</td><td>04-02-2010 10:00:00</td><td>Performed</td></tr><tr><td/><td>ICD-9-CM</td><td>V70.0</td><td>Routine general medical examination at a health care facility</td><td/><td/></tr><tr><td>Encounter Acute Inpt</td><td>CPT</td><td>99251</td><td><span/>Initial inpatient consult</td><td>06-06-2010 10:00:00</td><td>Performed</td></tr><tr><td>Encounter Inpatient Discharge</td><td>CPT</td><td>99238</td><td><span/>Hospital discharge day</td><td>06-10-2010 10:00:00</td><td>Performed</td></tr><tr><td>Encounter Office &amp; Outpatient Consult</td><td>CPT</td><td>99241</td><td><span/>Office consultation</td><td>07-15-2010 10:00:00</td><td>Performed</td></tr><tr><td>Encounter Outpatient</td><td>CPT</td><td>99213</td><td><span/>Office/outpatient visit, est</td><td>07-18-2010 10:00:00</td><td>Performed</td></tr><tr><td/><td>ICD-9-CM</td><td>V70.0</td><td>Routine general medical examination at a health care facility</td><td/><td/></tr><tr><td>Encounter Office &amp; Outpatient Consult</td><td>CPT</td><td>99241</td><td><span/>Office consultation</td><td>07-28-2010 10:00:00</td><td>Performed</td></tr><tr><td>Encounter Outpatient</td><td>CPT</td><td>99213</td><td><span/>Office/outpatient visit, est</td><td>08-06-2010 10:00:00</td><td>Performed</td></tr><tr><td/><td>ICD-9-CM</td><td>V70.0</td><td>Routine general medical examination at a health care facility</td><td/><td/></tr><tr><td>Encounter Prev Med Group Counseling</td><td>CPT</td><td>99412</td><td><span/>Preventive counseling, group</td><td>10-16-2010 10:00:00</td><td>Performed</td></tr></tbody></table></div>"
        },
        "mode": "snapshot",
        "entry": [ {
          "reference": "Encounter/2cef9654-5b2e-4685-8338-81a20d8a0f02",
          "display": "Office consultation"
        }, {
          "reference": "Encounter/718da812-9ef1-4e62-8067-7b388356bf8b",
          "display": "Hospital discharge day"
        }, {
          "reference": "Encounter/bf4885f0-9a62-42ad-8f77-16e9afd38709",
          "display": "Office/outpatient visit, est"
        }, {
          "reference": "Encounter/05491ee2-a7f0-4a79-b271-95ff27640094",
          "display": "Initial inpatient consult"
        }, {
          "reference": "Encounter/dcfb3cff-17ec-4f09-bcd5-1430e7514614",
          "display": "Emergency dept visit"
        }, {
          "reference": "Encounter/6b974e05-1eca-419a-a1c9-e88c5706ad34",
          "display": "Office consultation"
        }, {
          "reference": "Encounter/423ab856-3b2c-41fb-b14b-373f10c65c0b",
          "display": "Office/outpatient visit, est"
        }, {
          "reference": "Encounter/defc8aae-c3e1-4d46-af92-c3528369e498",
          "display": "Office/outpatient visit, est"
        }, {
          "reference": "Encounter/736f3fe8-cd78-4f6c-9791-d49f51797b52",
          "display": "Preventive counseling, group"
        } ]
      }, {
        "title": "Vital Signs",
        "code": {
          "coding": [ {
            "system": "http://loinc.org",
            "code": "8716-3",
            "display": "Vital Signs"
          } ]
        },
        "text": {
          "status": "additional",
          "div": "<div xmlns=\"http://www.w3.org/1999/xhtml\"><table><thead><tr><th>Group Description</th><th>Code System</th><th>Code</th><th>Code Description</th><th>Value</th><th>Unit</th><th>Date and Time</th><th>Status</th></tr></thead><tbody><tr><td>BMI</td><td>LOINC</td><td>39156-5</td><td><span/>BMI</td><td>34.2</td><td>kg/m2</td><td>04-02-2010 10:00:00</td><td>Finding</td></tr><tr><td>Diastolic Blood Pressure</td><td>LOINC</td><td>8462-4</td><td><span/>BP Diastolic</td><td>86</td><td>mm[Hg]</td><td>04-02-2010 10:00:00</td><td>Finding</td></tr><tr><td>Heart Rate</td><td>LOINC</td><td>8867-4</td><td><span/>Heart Rate</td><td>82</td><td>/min</td><td>04-02-2010 10:00:00</td><td>Finding</td></tr><tr><td>Systolic Blood Pressure</td><td>LOINC</td><td>8480-6</td><td><span/>BP Systolic</td><td>134</td><td>mm[Hg]</td><td>04-02-2010 10:00:00</td><td>Finding</td></tr><tr><td>Diastolic Blood Pressure</td><td>LOINC</td><td>8462-4</td><td><span/>BP Diastolic</td><td>82</td><td>mm[Hg]</td><td>07-18-2010 10:00:00</td><td>Finding</td></tr><tr><td>Heart Rate</td><td>LOINC</td><td>8867-4</td><td><span/>Heart Rate</td><td>80</td><td>/min</td><td>07-18-2010 10:00:00</td><td>Finding</td></tr><tr><td>Systolic Blood Pressure</td><td>LOINC</td><td>8480-6</td><td><span/>BP Systolic</td><td>132</td><td>mm[Hg]</td><td>07-18-2010 10:00:00</td><td>Finding</td></tr><tr><td>BMI</td><td>LOINC</td><td>39156-5</td><td><span/>BMI</td><td>31.9</td><td>kg/m2</td><td>08-06-2010 10:00:00</td><td>Finding</td></tr><tr><td>Diastolic Blood Pressure</td><td>LOINC</td><td>8462-4</td><td><span/>BP Diastolic</td><td>78</td><td>mm[Hg]</td><td>08-06-2010 10:00:00</td><td>Finding</td></tr><tr><td>Heart Rate</td><td>LOINC</td><td>8867-4</td><td><span/>Heart Rate</td><td>84</td><td>/min</td><td>08-06-2010 10:00:00</td><td>Finding</td></tr><tr><td>Systolic Blood Pressure</td><td>LOINC</td><td>8480-6</td><td><span/>BP Systolic</td><td>130</td><td>mm[Hg]</td><td>08-06-2010 10:00:00</td><td>Finding</td></tr></tbody></table></div>"
        },
        "mode": "snapshot",
        "entry": [ {
          "reference": "Observation/fd93c184-717a-433e-8705-ca7c09a2b25b",
          "display": "BP Systolic"
        }, {
          "reference": "Observation/12f77e41-14dc-4d59-897d-f88e3fc8fdc7",
          "display": "Heart Rate"
        }, {
          "reference": "Observation/57513697-8b74-46aa-b64b-9d2d6c887ac2",
          "display": "BP Diastolic"
        }, {
          "reference": "Observation/660214e4-9301-4f79-9a5e-1501ec755a72",
          "display": "BMI"
        }, {
          "reference": "Observation/8ce9799c-ea98-4869-8fa2-fec1e73e0d28",
          "display": "BP Systolic"
        }, {
          "reference": "Observation/e00147d5-b4a8-4b0a-b0c3-e813a9c0b1e7",
          "display": "BP Diastolic"
        }, {
          "reference": "Observation/ca44dbab-3e42-48ac-ab7e-5f2f8194fca6",
          "display": "BMI"
        }, {
          "reference": "Observation/10a37c7f-a707-4645-a860-ce230ac0673e",
          "display": "Heart Rate"
        }, {
          "reference": "Observation/45d65cfe-2e0e-4a47-81b7-509ac08eb628",
          "display": "BP Systolic"
        }, {
          "reference": "Observation/e95e69bd-4638-4fda-b3dd-f9a7069d9f91",
          "display": "Heart Rate"
        }, {
          "reference": "Observation/65446211-cb6d-48d5-9706-84525087a65b",
          "display": "BP Diastolic"
        } ]
      }, {
        "title": "Problems",
        "code": {
          "coding": [ {
            "system": "http://loinc.org",
            "code": "11450-4",
            "display": "PROBLEM LIST"
          } ]
        },
        "text": {
          "status": "additional",
          "div": "<div xmlns=\"http://www.w3.org/1999/xhtml\"><table><thead><tr><th>Group Description</th><th>Code System</th><th>Code</th><th>Code Description</th><th>Date and Time</th><th>Status</th></tr></thead><tbody><tr><td>Asthma</td><td>SNOMED-CT</td><td>195979001</td><td><span/>Asthma unspecified</td><td>05-05-2009 10:00:00</td><td>Active</td></tr><tr><td/><td>ICD-10-CM</td><td>J45</td><td>Asthma</td><td/><td/></tr><tr><td/><td>ICD-9-CM</td><td>493.92</td><td>Asthma, unspecified type, with (acute) exacerbation</td><td/><td/></tr><tr><td>Coronary Artery Disease No MI</td><td>SNOMED-CT</td><td>53741008</td><td><span/>Coronary arteriosclerosis</td><td>12-07-2009 10:00:00</td><td>Active</td></tr><tr><td/><td>ICD-10-CM</td><td>I25.1</td><td>Atherosclerotic heart disease of native coronary artery</td><td/><td/></tr><tr><td/><td>ICD-9-CM</td><td>414.01</td><td>Coronary atherosclerosis of native coronary artery</td><td/><td/></tr><tr><td>Asthma Daytime Symptoms Quantified</td><td>SNOMED-CT</td><td>370202007</td><td><span/>Asthma causes daytime symptoms 1 to 2 times per month</td><td>04-02-2010 10:00:00</td><td>Active</td></tr><tr><td>Asthma Nighttime Symptoms Quantified</td><td>SNOMED-CT</td><td>370205009</td><td><span/>Asthma causes night symptoms 1 to 2 times per month</td><td>04-02-2010 10:00:00</td><td>Active</td></tr><tr><td>Prostate Cancer</td><td>SNOMED-CT</td><td>399068003</td><td><span/>Malignant tumor of prostate</td><td>06-06-2010 10:00:00</td><td>Active</td></tr><tr><td/><td>ICD-10-CM</td><td>C61</td><td>Malignant neoplasm of prostate</td><td/><td/></tr><tr><td/><td>ICD-9-CM</td><td>185</td><td>Malignant neoplasm of prostate</td><td/><td/></tr><tr><td>AJCC Cancer Stage Low Risk Recurrence Prostat</td><td>SNOMED-CT</td><td>261650005</td><td><span/>Tumor stage T1c</td><td>06-10-2010 10:00:00</td><td>Active</td></tr><tr><td>Primary Open Angle Glaucoma (POAG)</td><td>SNOMED-CT</td><td>84494001</td><td><span/>Open-angle glaucoma</td><td>07-15-2010 10:00:00</td><td>Active</td></tr><tr><td/><td>ICD-10-CM</td><td>H40.11X0</td><td>Primary open-angle glaucoma, stage unspecified</td><td/><td/></tr><tr><td/><td>ICD-9-CM</td><td>365.10</td><td>Open-angle glaucoma, unspecified</td><td/><td/></tr></tbody></table></div>"
        },
        "mode": "snapshot",
        "entry": [ {
          "reference": "Condition/ff874789-aba5-4541-9560-4213ded73520",
          "display": "Asthma causes night symptoms 1 to 2 times per month"
        } ]
      }, {
        "title": "Medications",
        "code": {
          "coding": [ {
            "system": "http://loinc.org",
            "code": "10160-0",
            "display": "History of Medication Use"
          } ]
        },
        "text": {
          "status": "additional",
          "div": "<div xmlns=\"http://www.w3.org/1999/xhtml\"><table><thead><tr><th>Group Description</th><th>Code System</th><th>Code</th><th>Code Description</th><th>Date and Time</th><th>Status</th></tr></thead><tbody><tr><td>Antiasthmatic combinations</td><td>RxNorm</td><td>388681</td><td><span/>Dyphylline 100 MG / Guaifenesin 100 MG Oral Tablet</td><td>05-05-2009 10:00:00</td><td>Active</td></tr><tr><td>ACE inhibitors</td><td>RxNorm</td><td>314076</td><td><span/>Lisinopril 10 MG Oral Tablet</td><td>04-02-2010 10:00:00</td><td>Active</td></tr><tr><td>Long acting inhaled beta 2 agonist</td><td>RxNorm</td><td>318142</td><td><span/>salmeterol 0.05 MG/ACTUAT Inhalant Powder</td><td>04-02-2010 10:00:00</td><td>Active</td></tr><tr><td>Short acting beta 2 agonist</td><td>RxNorm</td><td>630208</td><td><span/>Albuterol 0.83 MG/ML Inhalant Solution</td><td>04-02-2010 10:00:00</td><td>Active</td></tr><tr><td>Macrolides</td><td>RxNorm</td><td>197650</td><td><span/>Erythromycin 500 MG Oral Tablet</td><td>06-06-2010 10:00:00</td><td>Active</td></tr><tr><td/><td>RxNorm</td><td>686383</td><td>Erythromycin Ethylsuccinate 40 MG/ML / Sulfisoxazole 120 MG/ML Oral Suspension</td><td/><td/></tr><tr><td>Smoking Cessation Agents</td><td>RxNorm</td><td>1046847</td><td><span/>24 HR Nicotine 0.313 MG/HR Transdermal Patch</td><td>06-08-2010 10:00:00</td><td>Active</td></tr><tr><td>Statins</td><td>RxNorm</td><td>617314</td><td><span/>atorvastatin 10 MG Oral Tablet [Lipitor]</td><td>08-06-2010 10:00:00</td><td>Active</td></tr></tbody></table></div>"
        },
        "mode": "snapshot",
        "entry": [ {
          "reference": "MedicationStatement/2838530b-26dd-48be-8a9e-edead51d9176",
          "display": "Dyphylline 100 MG / Guaifenesin 100 MG Oral Tablet"
        }, {
          "reference": "MedicationStatement/ff7df453-89ba-43ed-a942-a01e79871c6c",
          "display": "Albuterol 0.83 MG/ML Inhalant Solution"
        }, {
          "reference": "MedicationStatement/db5c71d3-623f-43f0-a812-de22202e6af7",
          "display": "Erythromycin 500 MG Oral Tablet"
        }, {
          "reference": "MedicationStatement/e9545f74-6db6-438d-ab1c-3189a893ad01",
          "display": "24 HR Nicotine 0.313 MG/HR Transdermal Patch"
        }, {
          "reference": "MedicationStatement/41cd14ad-62b9-4e89-aad6-7dcf9f7d2a96",
          "display": "salmeterol 0.05 MG/ACTUAT Inhalant Powder"
        }, {
          "reference": "MedicationStatement/46ce5ccc-43f4-4625-a8e9-26a38c58c0d2",
          "display": "atorvastatin 10 MG Oral Tablet [Lipitor]"
        }, {
          "reference": "MedicationStatement/e74c5258-b5d7-42fc-a7ad-32c48bf1d6c1",
          "display": "Lisinopril 10 MG Oral Tablet"
        } ]
      }, {
        "title": "Procedures",
        "code": {
          "coding": [ {
            "system": "http://loinc.org",
            "code": "47519-4",
            "display": "HISTORY OF PROCEDURES"
          } ]
        },
        "text": {
          "status": "additional",
          "div": "<div xmlns=\"http://www.w3.org/1999/xhtml\"><table><thead><tr><th>Group Description</th><th>Code System</th><th>Code</th><th>Code Description</th><th>Date and Time</th><th>Status</th></tr></thead><tbody><tr><td>Colonoscopy</td><td>CPT</td><td>45378</td><td><span/>Diagnostic colonoscopy</td><td>04-02-2010 10:00:00</td><td>Performed</td></tr><tr><td/><td>HCPCS</td><td>G0121</td><td>Colon ca scrn not hi rsk ind</td><td/><td/></tr><tr><td/><td>ICD-10-CM</td><td>Z12.11</td><td>Encounter for screening for malignant neoplasm of colon</td><td/><td/></tr><tr><td/><td>ICD-9-CM</td><td>45.23</td><td>Colonoscopy</td><td/><td/></tr><tr><td/><td>SNOMED-CT</td><td>174184006</td><td>Diagnostic endoscopic examination on colon</td><td/><td/></tr><tr><td>Counseling For Nutrition</td><td>CPT</td><td>97802</td><td><span/>Medical nutrition, indiv, in</td><td>04-02-2010 10:00:00</td><td>Performed</td></tr><tr><td/><td>HCPCS</td><td>S9470</td><td>Nutritional counseling, diet</td><td/><td/></tr><tr><td/><td>ICD-10-CM</td><td>Z00.8</td><td>Encounter for other general examination</td><td/><td/></tr><tr><td/><td>ICD-9-CM</td><td>V65.3</td><td>Dietary surveillance and counseling</td><td/><td/></tr><tr><td>Counseling For Physical Activity</td><td>HCPCS</td><td>S9451</td><td><span/>Exercise class</td><td>04-02-2010 10:00:00</td><td>Performed</td></tr><tr><td/><td>ICD-10-CM</td><td>Z71.3</td><td>Dietary counseling and surveillance</td><td/><td/></tr><tr><td/><td>ICD-9-CM</td><td>V65.41</td><td>Exercise counseling</td><td/><td/></tr><tr><td>Tobacco Use Cessation Counseling</td><td>CPT</td><td>99406</td><td><span/>Behav chng smoking 3-10 min</td><td>04-02-2010 10:00:00</td><td>Performed</td></tr><tr><td/><td>SNOMED-CT</td><td>384742004</td><td>Smoking cessation assistance</td><td/><td/></tr><tr><td>Prostate Cancer Treatment</td><td>CPT</td><td>55810</td><td><span/>Extensive prostate surgery</td><td>06-07-2010 10:00:00</td><td>Performed</td></tr><tr><td/><td>SNOMED-CT</td><td>176259004</td><td>Radical prostatectomy - unspecified excision of pelvic nodes</td><td/><td/></tr><tr><td>Asthma Symptom Assessment Tool</td><td>SNOMED-CT</td><td>401011001</td><td><span/>Peak expiratory flow rate monitoring using diary</td><td>07-15-2010 10:00:00</td><td>Performed</td></tr><tr><td>Eye Exam</td><td>CPT</td><td>92012</td><td><span/>Eye exam established pat</td><td>07-15-2010 10:00:00</td><td>Performed</td></tr><tr><td/><td>HCPCS</td><td>S0621</td><td>Routine ophthalmological exa</td><td/><td/></tr><tr><td/><td>ICD-9-CM</td><td>95.03</td><td>Extended ophthalmologic work-up</td><td/><td/></tr><tr><td/><td>SNOMED-CT</td><td>36228007</td><td>Ophthalmic examination and evaluation</td><td/><td/></tr></tbody></table></div>"
        },
        "mode": "snapshot",
        "entry": [ {
          "reference": "Procedure/240f6c19-09d7-4fc2-bbe5-f47fe2e44305",
          "display": "Extensive prostate surgery"
        } ]
      }, {
        "title": "Social History",
        "code": {
          "coding": [ {
            "system": "http://loinc.org",
            "code": "29762-2",
            "display": "Social History"
          } ]
        },
        "text": {
          "status": "additional",
          "div": "<div xmlns=\"http://www.w3.org/1999/xhtml\"><table><thead><tr><th>Group Description</th><th>Code System</th><th>Code</th><th>Code Description</th><th>Date and Time</th><th>Status</th></tr></thead><tbody><tr><td>Tobacco Use</td><td>SNOMED-CT</td><td>266919005</td><td><span/>Never smoker (Never Smoked)</td><td>05-05-2009 10:00:00</td><td>Active</td></tr><tr><td/><td>SNOMED-CT</td><td>449868002</td><td>Current every day smoker</td><td/><td/></tr></tbody></table></div>"
        },
        "mode": "snapshot",
        "entry": [ {
          "reference": "Observation/1e3173c5-ca97-4cba-94e2-cf09328212b1"
        } ]
      }, {
        "title": "Allergies,  Adverse Reactions & Alerts",
        "code": {
          "coding": [ {
            "system": "http://loinc.org",
            "code": "48765-2",
            "display": "Allergies, adverse reactions, alerts"
          } ]
        },
        "text": {
          "status": "additional",
          "div": "<div xmlns=\"http://www.w3.org/1999/xhtml\"><table><thead><tr><th>Group Description</th><th>Code System</th><th>Code</th><th>Code Description</th><th>Severity</th><th>Susceptibility</th><th>Date and Time</th><th>Status</th></tr></thead><tbody><tr><td>Allergy to Eggs</td><td>UNII</td><td>291P45F896</td><td><span/>Eggs</td><td><span/>Moderate to severe</td><td>Susceptible</td><td>05-05-2009 10:00:00</td><td>Active</td></tr><tr><td/><td>ICD-9-CM</td><td>V15.03</td><td>Allergy to eggs</td><td/><td/><td/><td/></tr><tr><td>Amikacin</td><td>RxNorm</td><td>905148</td><td><span/>Amikacin Sulfate 50 MG/ML Injectable Solution</td><td><span/>Severe</td><td>Susceptible</td><td>05-05-2009 10:00:00</td><td>Active</td></tr><tr><td>Penicillin V</td><td>NDF-RT</td><td>N0000011298</td><td><span/>Penicillin V</td><td><span/>Severe</td><td>Very susceptible</td><td>05-05-2009 10:00:00</td><td>Active</td></tr></tbody></table></div>"
        },
        "mode": "snapshot",
        "entry": [ {
          "reference": "AllergyIntolerance/af4bcbc2-38e3-488a-be79-e43bd0d17163",
          "display": "Penicillin V + Penicillin V"
        }, {
          "reference": "AllergyIntolerance/70abc4b6-8b88-43dc-b65d-2a33c48a654e",
          "display": "Allergy to Eggs + Eggs"
        }, {
          "reference": "AllergyIntolerance/b1b48326-86c2-44d8-8cca-1e3751111e7f",
          "display": "Amikacin + Amikacin Sulfate 50 MG/ML Injectable Solution"
        } ]
      } ]
    }
  }, {
    "resource": {
      "resourceType": "Patient",
      "id": "0851bf68-d155-4411-8583-e46892093e4b",
      "extension": [ {
        "url": "http://hl7.org/fhir/StructureDefinition/patient-religion",
        "valueCodeableConcept": {
          "coding": [ {
            "system": "urn:oid:2.16.840.1.113883.5.1076",
            "code": "1020",
            "display": "Hinduism"
          } ]
        }
      }, {
        "url": "http://hl7.org/fhir/us/core/StructureDefinition/us-core-race",
        "extension": [ {
          "url": "text",
          "valueString": "White"
        }, {
          "url": "ombCategory",
          "valueCoding": {
            "system": "urn:oid:2.16.840.1.113883.6.238",
            "code": "2106-3",
            "display": "White"
          }
        } ]
      }, {
        "url": "http://hl7.org/fhir/us/core/StructureDefinition/us-core-ethnicity",
        "extension": [ {
          "url": "text",
          "valueString": "Not Hispanic or Latino"
        }, {
          "url": "ombCategory",
          "valueCoding": {
            "system": "urn:oid:2.16.840.1.113883.6.238",
            "code": "2186-5",
            "display": "Not Hispanic or Latino"
          }
        } ]
      }, {
        "url": "http://hl7.org/fhir/StructureDefinition/patient-birthPlace",
        "valueAddress": {
          "city": "Austin",
          "state": "TX",
          "postalCode": "78704",
          "country": "US"
        }
      } ],
      "identifier": [ {
        "use": "official",
        "system": "urn:oid:2.16.840.1.113883.19.5.99999.2",
        "value": "998991"
      }, {
        "use": "official",
        "system": "urn:oid:2.16.840.1.113883.4.1",
        "value": "111-00-2330"
      } ],
      "name": [ {
        "use": "usual",
        "family": "Brown",
        "given": [ "Leslie" ]
      } ],
      "telecom": [ {
        "system": "phone",
        "value": "(404)232-6396",
        "use": "mobile"
      } ],
      "gender": "male",
      "birthDate": "1942-06-22",
      "address": [ {
        "use": "home",
        "line": [ "3383 Post Farm Road" ],
        "city": "Atlanta",
        "state": "GA",
        "postalCode": "30303",
        "country": "US"
      } ],
      "maritalStatus": {
        "coding": [ {
          "system": "http://terminology.hl7.org/CodeSystem/v3-MaritalStatus",
          "code": "M",
          "display": "Married"
        } ]
      },
      "contact": [ {
        "relationship": [ {
          "coding": [ {
            "system": "http://terminology.hl7.org/CodeSystem/v2-0131",
            "code": "C",
            "display": "Emergency Contact"
          } ]
        } ],
        "name": {
          "family": "Tao",
          "given": [ "Ramona" ],
          "prefix": [ "Mrs." ]
        },
        "telecom": [ {
          "system": "phone",
          "value": "(570)369-2474",
          "use": "home"
        }, {
          "system": "email",
          "value": "RamonaMTao@jourrapide.com",
          "use": "work"
        } ],
        "address": {
          "use": "home",
          "line": [ "4797 Stoney Lonesome Road" ],
          "city": "Stroudsburg",
          "state": "PA",
          "postalCode": "18360",
          "country": "US"
        }
      } ],
      "communication": [ {
        "language": {
          "coding": [ {
            "system": "urn:ietf:bcp:47",
            "code": "spa"
          } ]
        },
        "preferred": true
      } ],
      "managingOrganization": {
        "reference": "Organization/ea52fef9-987d-436c-adb5-09d3cd44e94f",
        "display": "Community Health and Hospitals"
      }
    }
  }, {
    "resource": {
      "resourceType": "Organization",
      "id": "ea52fef9-987d-436c-adb5-09d3cd44e94f",
      "identifier": [ {
        "use": "official",
        "value": "2.16.840.1.113883.4.6"
      } ],
      "name": "Community Health and Hospitals",
      "telecom": [ {
        "system": "phone",
        "value": " 555-555-5000",
        "use": "work"
      } ],
      "address": [ {
        "line": [ "1001 Village Avenue" ],
        "city": "Portland",
        "state": "OR",
        "postalCode": "99123",
        "country": "US"
      } ]
    }
  }, {
    "resource": {
      "resourceType": "Practitioner",
      "id": "950552dc-e80f-4938-a2c7-dd6d455bd716",
      "identifier": [ {
        "use": "official",
        "system": "urn:oid:2.16.840.1.113883.4.6",
        "value": "99999999"
      } ],
      "name": [ {
        "family": "Seven",
        "given": [ "Henry" ],
        "suffix": [ "MD" ]
      } ],
      "telecom": [ {
        "system": "phone",
        "value": "555-555-1002",
        "use": "work"
      } ],
      "address": [ {
        "line": [ "1002 Healthcare Drive" ],
        "city": "Portland",
        "state": "OR",
        "postalCode": "99123",
        "country": "US"
      } ]
    }
  }, {
    "resource": {
      "resourceType": "Practitioner",
      "id": "58ac13ac-7b0c-4264-b5a4-262bbfccdc27",
      "identifier": [ {
        "use": "official",
        "system": "http://hl7.org/fhir/sid/us-npi",
        "value": "999999999"
      } ],
      "name": [ {
        "family": "Seven",
        "given": [ "Henry" ]
      } ],
      "telecom": [ {
        "system": "phone",
        "value": "555-555-1002",
        "use": "work"
      } ],
      "address": [ {
        "line": [ "1001 Village Avenue" ],
        "city": "Portland",
        "state": "OR",
        "postalCode": "99123",
        "country": "US"
      } ]
    }
  }, {
    "resource": {
      "resourceType": "Practitioner",
      "id": "0f02644f-e506-4e18-b8cf-180f6b1a7af3",
      "identifier": [ {
        "use": "official",
        "system": "http://hl7.org/fhir/sid/us-npi",
        "value": "PseudoMD-1"
      } ],
      "name": [ {
        "family": "Seven",
        "given": [ "Henry" ],
        "suffix": [ "MD" ]
      } ],
      "telecom": [ {
        "system": "phone",
        "value": "+1-555-555-5000",
        "use": "home"
      } ],
      "address": [ {
        "line": [ "1001 Village Avenue" ],
        "city": "Portland",
        "state": "OR",
        "postalCode": "99123",
        "country": "US"
      } ]
    }
  }, {
    "resource": {
      "resourceType": "Organization",
      "id": "99031dac-7f35-4a08-ae50-ad361dda5c58",
      "identifier": [ {
        "use": "official",
        "system": "urn:oid:2.16.840.1.113883.4.6",
        "value": "99999999"
      } ],
      "name": "Community Health and Hospitals",
      "telecom": [ {
        "system": "phone",
        "value": " 555-555-1002",
        "use": "work"
      } ],
      "address": [ {
        "use": "work",
        "line": [ "1002 Healthcare Drive" ],
        "city": "Portland",
        "state": "OR",
        "postalCode": "99123",
        "country": "US"
      } ]
    }
  }, {
    "resource": {
      "resourceType": "DiagnosticReport",
      "id": "f694d72d-5939-4a00-8f58-f74290a6a431",
      "identifier": [ {
        "use": "official",
        "value": "7d5a02b0-67a4-11db-bd13-0800200c9a66"
      } ],
      "status": "final",
      "category": [ {
        "coding": [ {
          "system": "http://terminology.hl7.org/CodeSystem/v2-0074",
          "code": "LAB",
          "display": "Laboratory"
        } ]
      } ],
      "code": {
        "coding": [ {
          "system": "http://snomed.info/sct",
          "code": "166312007",
          "display": "Blood Chemistry"
        } ]
      },
      "subject": {
        "reference": "Patient/0851bf68-d155-4411-8583-e46892093e4b",
        "display": "Leslie Brown"
      },
      "result": [ {
        "reference": "Observation/d7046504-9056-4074-a519-89d20f115399",
        "display": "PSA SerPl-aCnc"
      } ]
    }
  }, {
    "resource": {
      "resourceType": "Observation",
      "id": "d7046504-9056-4074-a519-89d20f115399",
      "identifier": [ {
        "use": "official",
        "value": "107c2dc0-67a5-11db-bd13-0800200c9a66"
      } ],
      "status": "final",
      "category": [ {
        "coding": [ {
          "system": "http://terminology.hl7.org/CodeSystem/observation-category",
          "code": "laboratory"
        } ]
      } ],
      "code": {
        "coding": [ {
          "system": "http://loinc.org",
          "code": "19195-7",
          "display": "PSA SerPl-aCnc"
        }, {
          "system": "http://www.ama-assn.org/go/cpt",
          "code": "84153",
          "display": "Assay of psa, total"
        }, {
          "system": "http://snomed.info/sct",
          "code": "63476009",
          "display": "Prostate specific antigen measurement"
        } ]
      },
      "subject": {
        "reference": "Patient/0851bf68-d155-4411-8583-e46892093e4b",
        "display": "Leslie Brown"
      },
      "effectivePeriod": {
        "start": "2010-04-10T10:00:00+02:00"
      },
      "valueQuantity": {
        "value": 16,
        "unit": "ng/mL",
        "system": "http://unitsofmeasure.org",
        "code": "ng/mL"
      },
      "interpretation": [ {
        "coding": [ {
          "system": "http://terminology.hl7.org/CodeSystem/v3-ObservationInterpretation",
          "code": "N"
        } ]
      } ],
      "referenceRange": [ {
        "text": "<2.5 ng/mL"
      } ]
    }
  }, {
    "resource": {
      "resourceType": "DiagnosticReport",
      "id": "e5978cc9-88be-4376-8782-8b958623dea4",
      "identifier": [ {
        "use": "official",
        "value": "7d5a02b0-67a4-11db-bd13-0800200c9a66"
      } ],
      "status": "final",
      "category": [ {
        "coding": [ {
          "system": "http://terminology.hl7.org/CodeSystem/v2-0074",
          "code": "LAB",
          "display": "Laboratory"
        } ]
      } ],
      "code": {
        "coding": [ {
          "system": "http://snomed.info/sct",
          "code": "116784002",
          "display": "Pathology"
        } ]
      },
      "subject": {
        "reference": "Patient/0851bf68-d155-4411-8583-e46892093e4b",
        "display": "Leslie Brown"
      },
      "result": [ {
        "reference": "Observation/2c07c6f7-7dca-4796-884f-feb3890c47ea",
        "display": "Gleason Score Spec Ql"
      } ]
    }
  }, {
    "resource": {
      "resourceType": "Observation",
      "id": "2c07c6f7-7dca-4796-884f-feb3890c47ea",
      "identifier": [ {
        "use": "official",
        "value": "107c2dc0-67a5-11db-bd13-0800200c9a66"
      } ],
      "status": "final",
      "category": [ {
        "coding": [ {
          "system": "http://terminology.hl7.org/CodeSystem/observation-category",
          "code": "laboratory"
        } ]
      } ],
      "code": {
        "coding": [ {
          "system": "http://loinc.org",
          "code": "35266-6",
          "display": "Gleason Score Spec Ql"
        }, {
          "system": "http://snomed.info/sct",
          "code": "384997002",
          "display": "Total Gleason score"
        } ]
      },
      "subject": {
        "reference": "Patient/0851bf68-d155-4411-8583-e46892093e4b",
        "display": "Leslie Brown"
      },
      "effectivePeriod": {
        "start": "2010-05-10T10:00:00+02:00"
      },
      "valueQuantity": {
        "value": 9,
        "unit": "NA",
        "system": "http://unitsofmeasure.org",
        "code": "NA"
      },
      "interpretation": [ {
        "coding": [ {
          "system": "http://terminology.hl7.org/CodeSystem/v3-ObservationInterpretation",
          "code": "N"
        } ]
      } ],
      "referenceRange": [ {
        "text": "2-10"
      } ]
    }
  }, {
    "resource": {
      "resourceType": "DiagnosticReport",
      "id": "4ff6b58d-e471-44b1-9472-4459db2955b2",
      "identifier": [ {
        "use": "official",
        "value": "7d5a02b0-67a4-11db-bd13-0800200c9a66"
      } ],
      "status": "final",
      "category": [ {
        "coding": [ {
          "system": "http://terminology.hl7.org/CodeSystem/v2-0074",
          "code": "LAB",
          "display": "Laboratory"
        } ]
      } ],
      "code": {
        "coding": [ {
          "system": "http://snomed.info/sct",
          "code": "16254007",
          "display": "Lipid Panel"
        } ]
      },
      "subject": {
        "reference": "Patient/0851bf68-d155-4411-8583-e46892093e4b",
        "display": "Leslie Brown"
      },
      "result": [ {
        "reference": "Observation/5f70dc4d-4a34-46d2-9fb7-69874d20cf10",
        "display": "Cholest SerPl-mCnc"
      }, {
        "reference": "Observation/b15d989b-5b2c-48dc-bb28-c6cc727ec0b3",
        "display": "HDLc SerPl-sCnc"
      }, {
        "reference": "Observation/dcf2adcb-786e-4ae8-bbe7-0014f20ebad6",
        "display": "LDLc SerPl-mCnc"
      }, {
        "reference": "Observation/26e63a31-7e75-4b7a-9657-e33d74be35e9",
        "display": "Trigl SerPl Calc-mCnc"
      } ]
    }
  }, {
    "resource": {
      "resourceType": "Observation",
      "id": "5f70dc4d-4a34-46d2-9fb7-69874d20cf10",
      "identifier": [ {
        "use": "official",
        "value": "107c2dc0-67a5-11db-bd13-0800200c9a66"
      } ],
      "status": "final",
      "category": [ {
        "coding": [ {
          "system": "http://terminology.hl7.org/CodeSystem/observation-category",
          "code": "laboratory"
        } ]
      } ],
      "code": {
        "coding": [ {
          "system": "http://loinc.org",
          "code": "2093-3",
          "display": "Cholest SerPl-mCnc"
        }, {
          "system": "http://www.ama-assn.org/go/cpt",
          "code": "82465",
          "display": "Assay, bld/serum cholesterol"
        }, {
          "system": "http://snomed.info/sct",
          "code": "121868005",
          "display": "Total cholesterol measurement"
        } ]
      },
      "subject": {
        "reference": "Patient/0851bf68-d155-4411-8583-e46892093e4b",
        "display": "Leslie Brown"
      },
      "effectivePeriod": {
        "start": "2010-08-06T10:00:00+02:00"
      },
      "valueQuantity": {
        "value": 219,
        "unit": "mg/dL",
        "system": "http://unitsofmeasure.org",
        "code": "mg/dL"
      },
      "interpretation": [ {
        "coding": [ {
          "system": "http://terminology.hl7.org/CodeSystem/v3-ObservationInterpretation",
          "code": "N"
        } ]
      } ],
      "referenceRange": [ {
        "text": "125-200 mg/dL"
      } ]
    }
  }, {
    "resource": {
      "resourceType": "Observation",
      "id": "b15d989b-5b2c-48dc-bb28-c6cc727ec0b3",
      "identifier": [ {
        "use": "official",
        "value": "107c2dc0-67a5-11db-bd13-0800200c9a66"
      } ],
      "status": "final",
      "category": [ {
        "coding": [ {
          "system": "http://terminology.hl7.org/CodeSystem/observation-category",
          "code": "laboratory"
        } ]
      } ],
      "code": {
        "coding": [ {
          "system": "http://loinc.org",
          "code": "14646-4",
          "display": "HDLc SerPl-sCnc"
        }, {
          "system": "http://www.ama-assn.org/go/cpt",
          "code": "83701",
          "display": "Lipoprotein bld, hr fraction"
        }, {
          "system": "http://snomed.info/sct",
          "code": "28036006",
          "display": "High density lipoprotein cholesterol measurement"
        } ]
      },
      "subject": {
        "reference": "Patient/0851bf68-d155-4411-8583-e46892093e4b",
        "display": "Leslie Brown"
      },
      "effectivePeriod": {
        "start": "2010-08-06T10:00:00+02:00"
      },
      "valueQuantity": {
        "value": 65,
        "unit": "mg/dL",
        "system": "http://unitsofmeasure.org",
        "code": "mg/dL"
      },
      "interpretation": [ {
        "coding": [ {
          "system": "http://terminology.hl7.org/CodeSystem/v3-ObservationInterpretation",
          "code": "N"
        } ]
      } ],
      "referenceRange": [ {
        "text": ">=40 mg/dL"
      } ]
    }
  }, {
    "resource": {
      "resourceType": "Observation",
      "id": "dcf2adcb-786e-4ae8-bbe7-0014f20ebad6",
      "identifier": [ {
        "use": "official",
        "value": "107c2dc0-67a5-11db-bd13-0800200c9a66"
      } ],
      "status": "final",
      "category": [ {
        "coding": [ {
          "system": "http://terminology.hl7.org/CodeSystem/observation-category",
          "code": "laboratory"
        } ]
      } ],
      "code": {
        "coding": [ {
          "system": "http://loinc.org",
          "code": "2089-1",
          "display": "LDLc SerPl-mCnc"
        }, {
          "system": "http://www.ama-assn.org/go/cpt",
          "code": "83721",
          "display": "Assay of blood lipoprotein"
        }, {
          "system": "http://snomed.info/sct",
          "code": "113079009",
          "display": "Low density lipoprotein cholesterol measurement"
        } ]
      },
      "subject": {
        "reference": "Patient/0851bf68-d155-4411-8583-e46892093e4b",
        "display": "Leslie Brown"
      },
      "effectivePeriod": {
        "start": "2010-08-06T10:00:00+02:00"
      },
      "valueQuantity": {
        "value": 132,
        "unit": "mg/dL",
        "system": "http://unitsofmeasure.org",
        "code": "mg/dL"
      },
      "interpretation": [ {
        "coding": [ {
          "system": "http://terminology.hl7.org/CodeSystem/v3-ObservationInterpretation",
          "code": "N"
        } ]
      } ],
      "referenceRange": [ {
        "text": "<130 mg/dL (calc)"
      } ]
    }
  }, {
    "resource": {
      "resourceType": "Observation",
      "id": "26e63a31-7e75-4b7a-9657-e33d74be35e9",
      "identifier": [ {
        "use": "official",
        "value": "107c2dc0-67a5-11db-bd13-0800200c9a66"
      } ],
      "status": "final",
      "category": [ {
        "coding": [ {
          "system": "http://terminology.hl7.org/CodeSystem/observation-category",
          "code": "laboratory"
        } ]
      } ],
      "code": {
        "coding": [ {
          "system": "http://loinc.org",
          "code": "12951-0",
          "display": "Trigl SerPl Calc-mCnc"
        }, {
          "system": "http://www.ama-assn.org/go/cpt",
          "code": "84478",
          "display": "Assay of triglycerides"
        }, {
          "system": "http://snomed.info/sct",
          "code": "14740000",
          "display": "Triglycerides measurement"
        } ]
      },
      "subject": {
        "reference": "Patient/0851bf68-d155-4411-8583-e46892093e4b",
        "display": "Leslie Brown"
      },
      "effectivePeriod": {
        "start": "2010-08-06T10:00:00+02:00"
      },
      "valueQuantity": {
        "value": 110,
        "unit": "mg/dL",
        "system": "http://unitsofmeasure.org",
        "code": "mg/dL"
      },
      "interpretation": [ {
        "coding": [ {
          "system": "http://terminology.hl7.org/CodeSystem/v3-ObservationInterpretation",
          "code": "N"
        } ]
      } ],
      "referenceRange": [ {
        "text": "10-39 years: 55-110 mg/dL | 40-59 years: 70-150 mg/dL | >60 years: 80-150 mg/dL | Therapeutic Target: <100 mg/dL "
      } ]
    }
  }, {
    "resource": {
      "resourceType": "Encounter",
      "id": "2cef9654-5b2e-4685-8338-81a20d8a0f02",
      "identifier": [ {
        "use": "official",
        "value": "2a620155-9d11-439e-92b3-5d9815ff4de8"
      } ],
      "status": "finished",
      "type": [ {
        "coding": [ {
          "system": "http://www.ama-assn.org/go/cpt",
          "code": "99241",
          "display": "Office consultation"
        } ]
      } ],
      "subject": {
        "reference": "Patient/0851bf68-d155-4411-8583-e46892093e4b",
        "display": "Leslie Brown"
      },
      "period": {
        "start": "2010-07-28T10:00:00+02:00"
      }
    }
  }, {
    "resource": {
      "resourceType": "Encounter",
      "id": "718da812-9ef1-4e62-8067-7b388356bf8b",
      "identifier": [ {
        "use": "official",
        "value": "2a620155-9d11-439e-92b3-5d9815ff4de8"
      } ],
      "status": "finished",
      "type": [ {
        "coding": [ {
          "system": "http://www.ama-assn.org/go/cpt",
          "code": "99238",
          "display": "Hospital discharge day"
        } ]
      } ],
      "subject": {
        "reference": "Patient/0851bf68-d155-4411-8583-e46892093e4b",
        "display": "Leslie Brown"
      },
      "period": {
        "start": "2010-06-10T10:00:00+02:00"
      },
      "reasonCode": [ {
        "coding": [ {
          "system": "http://snomed.info/sct",
          "code": "261650005",
          "display": "AJCC Cancer Stage Low Risk Recurrence Prostat"
        } ]
      } ],
      "reasonReference": [ {
        "reference": "Condition/0c8550ce-18ea-495c-8e1f-516f3331644a",
        "display": "AJCC Cancer Stage Low Risk Recurrence Prostat"
      } ]
    }
  }, {
    "resource": {
      "resourceType": "Condition",
      "id": "0c8550ce-18ea-495c-8e1f-516f3331644a",
      "identifier": [ {
        "use": "official",
        "system": "urn:uuid:db734647-fc99-424c-a864-7e3cda82e703",
        "value": "45665"
      } ],
      "clinicalStatus": {
        "coding": [ {
          "system": "http://terminology.hl7.org/CodeSystem/condition-clinical",
          "code": "active",
          "display": "Active"
        } ]
      },
      "category": [ {
        "coding": [ {
          "system": "http://hl7.org/fhir/condition-category",
          "code": "encounter-diagnosis",
          "display": "Encounter Diagnosis"
        } ]
      } ],
      "code": {
        "coding": [ {
          "system": "http://snomed.info/sct",
          "code": "261650005",
          "display": "AJCC Cancer Stage Low Risk Recurrence Prostat"
        } ]
      },
      "subject": {
        "reference": "Patient/0851bf68-d155-4411-8583-e46892093e4b",
        "display": "Leslie Brown"
      },
      "onsetDateTime": "2010-06-10T10:00:00+02:00"
    }
  }, {
    "resource": {
      "resourceType": "Encounter",
      "id": "bf4885f0-9a62-42ad-8f77-16e9afd38709",
      "identifier": [ {
        "use": "official",
        "value": "2a620155-9d11-439e-92b3-5d9815ff4de8"
      } ],
      "status": "finished",
      "type": [ {
        "coding": [ {
          "system": "http://www.ama-assn.org/go/cpt",
          "code": "99213",
          "display": "Office/outpatient visit, est"
        }, {
          "system": "urn:oid:2.16.840.1.113883.6.103",
          "code": "V70.0",
          "display": "Routine general medical examination at a health care facility"
        } ]
      } ],
      "subject": {
        "reference": "Patient/0851bf68-d155-4411-8583-e46892093e4b",
        "display": "Leslie Brown"
      },
      "period": {
        "start": "2010-08-06T10:00:00+02:00"
      }
    }
  }, {
    "resource": {
      "resourceType": "Encounter",
      "id": "05491ee2-a7f0-4a79-b271-95ff27640094",
      "identifier": [ {
        "use": "official",
        "value": "2a620155-9d11-439e-92b3-5d9815ff4de8"
      } ],
      "status": "finished",
      "type": [ {
        "coding": [ {
          "system": "http://www.ama-assn.org/go/cpt",
          "code": "99251",
          "display": "Initial inpatient consult"
        } ]
      } ],
      "subject": {
        "reference": "Patient/0851bf68-d155-4411-8583-e46892093e4b",
        "display": "Leslie Brown"
      },
      "period": {
        "start": "2010-06-06T10:00:00+02:00"
      },
      "reasonCode": [ {
        "coding": [ {
          "system": "http://snomed.info/sct",
          "code": "399068003",
          "display": "Prostate Cancer"
        } ]
      } ],
      "reasonReference": [ {
        "reference": "Condition/0c8550ce-18ea-495c-8e1f-516f3331644a",
        "display": "AJCC Cancer Stage Low Risk Recurrence Prostat"
      } ]
    }
  }, {
    "resource": {
      "resourceType": "Encounter",
      "id": "dcfb3cff-17ec-4f09-bcd5-1430e7514614",
      "identifier": [ {
        "use": "official",
        "value": "2a620155-9d11-439e-92b3-5d9815ff4de8"
      } ],
      "status": "finished",
      "type": [ {
        "coding": [ {
          "system": "http://www.ama-assn.org/go/cpt",
          "code": "99281",
          "display": "Emergency dept visit"
        } ]
      } ],
      "subject": {
        "reference": "Patient/0851bf68-d155-4411-8583-e46892093e4b",
        "display": "Leslie Brown"
      },
      "period": {
        "start": "2009-05-05T10:00:00+02:00"
      },
      "reasonCode": [ {
        "coding": [ {
          "system": "http://snomed.info/sct",
          "code": "195979001",
          "display": "Asthma"
        } ]
      } ],
      "reasonReference": [ {
        "reference": "Condition/0c8550ce-18ea-495c-8e1f-516f3331644a",
        "display": "AJCC Cancer Stage Low Risk Recurrence Prostat"
      } ]
    }
  }, {
    "resource": {
      "resourceType": "Encounter",
      "id": "6b974e05-1eca-419a-a1c9-e88c5706ad34",
      "identifier": [ {
        "use": "official",
        "value": "2a620155-9d11-439e-92b3-5d9815ff4de8"
      } ],
      "status": "finished",
      "type": [ {
        "coding": [ {
          "system": "http://www.ama-assn.org/go/cpt",
          "code": "99241",
          "display": "Office consultation"
        } ]
      } ],
      "subject": {
        "reference": "Patient/0851bf68-d155-4411-8583-e46892093e4b",
        "display": "Leslie Brown"
      },
      "period": {
        "start": "2010-07-15T10:00:00+02:00"
      },
      "reasonCode": [ {
        "coding": [ {
          "system": "http://snomed.info/sct",
          "code": "84494001",
          "display": "Primary Open Angle Glaucoma (POAG)"
        } ]
      } ],
      "reasonReference": [ {
        "reference": "Condition/0c8550ce-18ea-495c-8e1f-516f3331644a",
        "display": "AJCC Cancer Stage Low Risk Recurrence Prostat"
      } ]
    }
  }, {
    "resource": {
      "resourceType": "Encounter",
      "id": "423ab856-3b2c-41fb-b14b-373f10c65c0b",
      "identifier": [ {
        "use": "official",
        "value": "2a620155-9d11-439e-92b3-5d9815ff4de8"
      } ],
      "status": "finished",
      "type": [ {
        "coding": [ {
          "system": "http://www.ama-assn.org/go/cpt",
          "code": "99213",
          "display": "Office/outpatient visit, est"
        }, {
          "system": "urn:oid:2.16.840.1.113883.6.103",
          "code": "V70.0",
          "display": "Routine general medical examination at a health care facility"
        } ]
      } ],
      "subject": {
        "reference": "Patient/0851bf68-d155-4411-8583-e46892093e4b",
        "display": "Leslie Brown"
      },
      "period": {
        "start": "2010-07-18T10:00:00+02:00"
      }
    }
  }, {
    "resource": {
      "resourceType": "Encounter",
      "id": "defc8aae-c3e1-4d46-af92-c3528369e498",
      "identifier": [ {
        "use": "official",
        "value": "2a620155-9d11-439e-92b3-5d9815ff4de8"
      } ],
      "status": "finished",
      "type": [ {
        "coding": [ {
          "system": "http://www.ama-assn.org/go/cpt",
          "code": "99213",
          "display": "Office/outpatient visit, est"
        }, {
          "system": "urn:oid:2.16.840.1.113883.6.103",
          "code": "V70.0",
          "display": "Routine general medical examination at a health care facility"
        } ]
      } ],
      "subject": {
        "reference": "Patient/0851bf68-d155-4411-8583-e46892093e4b",
        "display": "Leslie Brown"
      },
      "period": {
        "start": "2010-04-02T10:00:00+02:00"
      },
      "reasonCode": [ {
        "coding": [ {
          "system": "http://snomed.info/sct",
          "code": "370202007",
          "display": "Asthma Daytime Symptoms Quantified"
        } ]
      }, {
        "coding": [ {
          "system": "http://snomed.info/sct",
          "code": "370205009",
          "display": "Asthma Nighttime Symptoms Quantified"
        } ]
      } ],
      "reasonReference": [ {
        "reference": "Condition/0c8550ce-18ea-495c-8e1f-516f3331644a",
        "display": "AJCC Cancer Stage Low Risk Recurrence Prostat"
      }, {
        "reference": "Condition/0c8550ce-18ea-495c-8e1f-516f3331644a",
        "display": "AJCC Cancer Stage Low Risk Recurrence Prostat"
      } ]
    }
  }, {
    "resource": {
      "resourceType": "Encounter",
      "id": "736f3fe8-cd78-4f6c-9791-d49f51797b52",
      "identifier": [ {
        "use": "official",
        "value": "2a620155-9d11-439e-92b3-5d9815ff4de8"
      } ],
      "status": "finished",
      "type": [ {
        "coding": [ {
          "system": "http://www.ama-assn.org/go/cpt",
          "code": "99412",
          "display": "Preventive counseling, group"
        } ]
      } ],
      "subject": {
        "reference": "Patient/0851bf68-d155-4411-8583-e46892093e4b",
        "display": "Leslie Brown"
      },
      "period": {
        "start": "2010-10-16T10:00:00+02:00"
      }
    }
  }, {
    "resource": {
      "resourceType": "Observation",
      "id": "fd93c184-717a-433e-8705-ca7c09a2b25b",
      "identifier": [ {
        "use": "official",
        "value": "c6f88321-67ad-11db-bd13-0800200c9a66"
      } ],
      "status": "final",
      "category": [ {
        "coding": [ {
          "system": "http://terminology.hl7.org/CodeSystem/observation-category",
          "code": "vital-signs",
          "display": "Vital Signs"
        } ]
      } ],
      "code": {
        "coding": [ {
          "system": "http://loinc.org",
          "code": "8480-6",
          "display": "BP Systolic"
        } ]
      },
      "subject": {
        "reference": "Patient/0851bf68-d155-4411-8583-e46892093e4b",
        "display": "Leslie Brown"
      },
      "effectivePeriod": {
        "start": "2010-04-02T10:00:00+02:00"
      },
      "valueQuantity": {
        "value": 134,
        "unit": "mm[Hg]",
        "system": "http://unitsofmeasure.org",
        "code": "mm[Hg]"
      }
    }
  }, {
    "resource": {
      "resourceType": "Observation",
      "id": "12f77e41-14dc-4d59-897d-f88e3fc8fdc7",
      "identifier": [ {
        "use": "official",
        "value": "c6f88321-67ad-11db-bd13-0800200c9a66"
      } ],
      "status": "final",
      "category": [ {
        "coding": [ {
          "system": "http://terminology.hl7.org/CodeSystem/observation-category",
          "code": "vital-signs",
          "display": "Vital Signs"
        } ]
      } ],
      "code": {
        "coding": [ {
          "system": "http://loinc.org",
          "code": "8867-4",
          "display": "Heart Rate"
        } ]
      },
      "subject": {
        "reference": "Patient/0851bf68-d155-4411-8583-e46892093e4b",
        "display": "Leslie Brown"
      },
      "effectivePeriod": {
        "start": "2010-04-02T10:00:00+02:00"
      },
      "valueQuantity": {
        "value": 82,
        "unit": "/min",
        "system": "http://unitsofmeasure.org",
        "code": "/min"
      }
    }
  }, {
    "resource": {
      "resourceType": "Observation",
      "id": "57513697-8b74-46aa-b64b-9d2d6c887ac2",
      "identifier": [ {
        "use": "official",
        "value": "c6f88321-67ad-11db-bd13-0800200c9a66"
      } ],
      "status": "final",
      "category": [ {
        "coding": [ {
          "system": "http://terminology.hl7.org/CodeSystem/observation-category",
          "code": "vital-signs",
          "display": "Vital Signs"
        } ]
      } ],
      "code": {
        "coding": [ {
          "system": "http://loinc.org",
          "code": "8462-4",
          "display": "BP Diastolic"
        } ]
      },
      "subject": {
        "reference": "Patient/0851bf68-d155-4411-8583-e46892093e4b",
        "display": "Leslie Brown"
      },
      "effectivePeriod": {
        "start": "2010-04-02T10:00:00+02:00"
      },
      "valueQuantity": {
        "value": 86,
        "unit": "mm[Hg]",
        "system": "http://unitsofmeasure.org",
        "code": "mm[Hg]"
      }
    }
  }, {
    "resource": {
      "resourceType": "Observation",
      "id": "660214e4-9301-4f79-9a5e-1501ec755a72",
      "identifier": [ {
        "use": "official",
        "value": "c6f88321-67ad-11db-bd13-0800200c9a66"
      } ],
      "status": "final",
      "category": [ {
        "coding": [ {
          "system": "http://terminology.hl7.org/CodeSystem/observation-category",
          "code": "vital-signs",
          "display": "Vital Signs"
        } ]
      } ],
      "code": {
        "coding": [ {
          "system": "http://loinc.org",
          "code": "39156-5",
          "display": "BMI"
        } ]
      },
      "subject": {
        "reference": "Patient/0851bf68-d155-4411-8583-e46892093e4b",
        "display": "Leslie Brown"
      },
      "effectivePeriod": {
        "start": "2010-04-02T10:00:00+02:00"
      },
      "valueQuantity": {
        "value": 34.2,
        "unit": "kg/m2",
        "system": "http://unitsofmeasure.org",
        "code": "kg/m2"
      }
    }
  }, {
    "resource": {
      "resourceType": "Observation",
      "id": "8ce9799c-ea98-4869-8fa2-fec1e73e0d28",
      "identifier": [ {
        "use": "official",
        "value": "c6f88321-67ad-11db-bd13-0800200c9a66"
      } ],
      "status": "final",
      "category": [ {
        "coding": [ {
          "system": "http://terminology.hl7.org/CodeSystem/observation-category",
          "code": "vital-signs",
          "display": "Vital Signs"
        } ]
      } ],
      "code": {
        "coding": [ {
          "system": "http://loinc.org",
          "code": "8480-6",
          "display": "BP Systolic"
        } ]
      },
      "subject": {
        "reference": "Patient/0851bf68-d155-4411-8583-e46892093e4b",
        "display": "Leslie Brown"
      },
      "effectivePeriod": {
        "start": "2010-08-06T10:00:00+02:00"
      },
      "valueQuantity": {
        "value": 130,
        "unit": "mm[Hg]",
        "system": "http://unitsofmeasure.org",
        "code": "mm[Hg]"
      }
    }
  }, {
    "resource": {
      "resourceType": "Observation",
      "id": "e00147d5-b4a8-4b0a-b0c3-e813a9c0b1e7",
      "identifier": [ {
        "use": "official",
        "value": "c6f88321-67ad-11db-bd13-0800200c9a66"
      } ],
      "status": "final",
      "category": [ {
        "coding": [ {
          "system": "http://terminology.hl7.org/CodeSystem/observation-category",
          "code": "vital-signs",
          "display": "Vital Signs"
        } ]
      } ],
      "code": {
        "coding": [ {
          "system": "http://loinc.org",
          "code": "8462-4",
          "display": "BP Diastolic"
        } ]
      },
      "subject": {
        "reference": "Patient/0851bf68-d155-4411-8583-e46892093e4b",
        "display": "Leslie Brown"
      },
      "effectivePeriod": {
        "start": "2010-08-06T10:00:00+02:00"
      },
      "valueQuantity": {
        "value": 78,
        "unit": "mm[Hg]",
        "system": "http://unitsofmeasure.org",
        "code": "mm[Hg]"
      }
    }
  }, {
    "resource": {
      "resourceType": "Observation",
      "id": "ca44dbab-3e42-48ac-ab7e-5f2f8194fca6",
      "identifier": [ {
        "use": "official",
        "value": "c6f88321-67ad-11db-bd13-0800200c9a66"
      } ],
      "status": "final",
      "category": [ {
        "coding": [ {
          "system": "http://terminology.hl7.org/CodeSystem/observation-category",
          "code": "vital-signs",
          "display": "Vital Signs"
        } ]
      } ],
      "code": {
        "coding": [ {
          "system": "http://loinc.org",
          "code": "39156-5",
          "display": "BMI"
        } ]
      },
      "subject": {
        "reference": "Patient/0851bf68-d155-4411-8583-e46892093e4b",
        "display": "Leslie Brown"
      },
      "effectivePeriod": {
        "start": "2010-08-06T10:00:00+02:00"
      },
      "valueQuantity": {
        "value": 31.9,
        "unit": "kg/m2",
        "system": "http://unitsofmeasure.org",
        "code": "kg/m2"
      }
    }
  }, {
    "resource": {
      "resourceType": "Observation",
      "id": "10a37c7f-a707-4645-a860-ce230ac0673e",
      "identifier": [ {
        "use": "official",
        "value": "c6f88321-67ad-11db-bd13-0800200c9a66"
      } ],
      "status": "final",
      "category": [ {
        "coding": [ {
          "system": "http://terminology.hl7.org/CodeSystem/observation-category",
          "code": "vital-signs",
          "display": "Vital Signs"
        } ]
      } ],
      "code": {
        "coding": [ {
          "system": "http://loinc.org",
          "code": "8867-4",
          "display": "Heart Rate"
        } ]
      },
      "subject": {
        "reference": "Patient/0851bf68-d155-4411-8583-e46892093e4b",
        "display": "Leslie Brown"
      },
      "effectivePeriod": {
        "start": "2010-08-06T10:00:00+02:00"
      },
      "valueQuantity": {
        "value": 84,
        "unit": "/min",
        "system": "http://unitsofmeasure.org",
        "code": "/min"
      }
    }
  }, {
    "resource": {
      "resourceType": "Observation",
      "id": "45d65cfe-2e0e-4a47-81b7-509ac08eb628",
      "identifier": [ {
        "use": "official",
        "value": "c6f88321-67ad-11db-bd13-0800200c9a66"
      } ],
      "status": "final",
      "category": [ {
        "coding": [ {
          "system": "http://terminology.hl7.org/CodeSystem/observation-category",
          "code": "vital-signs",
          "display": "Vital Signs"
        } ]
      } ],
      "code": {
        "coding": [ {
          "system": "http://loinc.org",
          "code": "8480-6",
          "display": "BP Systolic"
        } ]
      },
      "subject": {
        "reference": "Patient/0851bf68-d155-4411-8583-e46892093e4b",
        "display": "Leslie Brown"
      },
      "effectivePeriod": {
        "start": "2010-07-18T10:00:00+02:00"
      },
      "valueQuantity": {
        "value": 132,
        "unit": "mm[Hg]",
        "system": "http://unitsofmeasure.org",
        "code": "mm[Hg]"
      }
    }
  }, {
    "resource": {
      "resourceType": "Observation",
      "id": "e95e69bd-4638-4fda-b3dd-f9a7069d9f91",
      "identifier": [ {
        "use": "official",
        "value": "c6f88321-67ad-11db-bd13-0800200c9a66"
      } ],
      "status": "final",
      "category": [ {
        "coding": [ {
          "system": "http://terminology.hl7.org/CodeSystem/observation-category",
          "code": "vital-signs",
          "display": "Vital Signs"
        } ]
      } ],
      "code": {
        "coding": [ {
          "system": "http://loinc.org",
          "code": "8867-4",
          "display": "Heart Rate"
        } ]
      },
      "subject": {
        "reference": "Patient/0851bf68-d155-4411-8583-e46892093e4b",
        "display": "Leslie Brown"
      },
      "effectivePeriod": {
        "start": "2010-07-18T10:00:00+02:00"
      },
      "valueQuantity": {
        "value": 80,
        "unit": "/min",
        "system": "http://unitsofmeasure.org",
        "code": "/min"
      }
    }
  }, {
    "resource": {
      "resourceType": "Observation",
      "id": "65446211-cb6d-48d5-9706-84525087a65b",
      "identifier": [ {
        "use": "official",
        "value": "c6f88321-67ad-11db-bd13-0800200c9a66"
      } ],
      "status": "final",
      "category": [ {
        "coding": [ {
          "system": "http://terminology.hl7.org/CodeSystem/observation-category",
          "code": "vital-signs",
          "display": "Vital Signs"
        } ]
      } ],
      "code": {
        "coding": [ {
          "system": "http://loinc.org",
          "code": "8462-4",
          "display": "BP Diastolic"
        } ]
      },
      "subject": {
        "reference": "Patient/0851bf68-d155-4411-8583-e46892093e4b",
        "display": "Leslie Brown"
      },
      "effectivePeriod": {
        "start": "2010-07-18T10:00:00+02:00"
      },
      "valueQuantity": {
        "value": 82,
        "unit": "mm[Hg]",
        "system": "http://unitsofmeasure.org",
        "code": "mm[Hg]"
      }
    }
  }, {
    "resource": {
      "resourceType": "Condition",
      "id": "ff874789-aba5-4541-9560-4213ded73520",
      "identifier": [ {
        "use": "official",
        "value": "9d3d416d-45ab-4da1-912f-4583e0632000"
      } ],
      "clinicalStatus": {
        "coding": [ {
          "system": "http://terminology.hl7.org/CodeSystem/condition-clinical",
          "code": "active",
          "display": "Active"
        } ]
      },
      "verificationStatus": {
        "coding": [ {
          "system": "http://terminology.hl7.org/CodeSystem/condition-ver-status",
          "code": "confirmed",
          "display": "Confirmed"
        } ]
      },
      "category": [ {
        "coding": [ {
          "system": "http://terminology.hl7.org/CodeSystem/condition-category",
          "code": "problem-list-item",
          "display": "Problem List Item"
        } ]
      } ],
      "code": {
        "coding": [ {
          "system": "http://snomed.info/sct",
          "code": "370205009",
          "display": "Asthma causes night symptoms 1 to 2 times per month"
        } ]
      },
      "subject": {
        "reference": "Patient/0851bf68-d155-4411-8583-e46892093e4b",
        "display": "Leslie Brown"
      },
      "onsetDateTime": "2010-04-02T10:00:00+02:00"
    }
  }, {
    "resource": {
      "resourceType": "MedicationStatement",
      "id": "2838530b-26dd-48be-8a9e-edead51d9176",
      "extension": [ {
        "url": "http://hl7.org/fhir/3.0/StructureDefinition/extension-MedicationStatement.status",
        "valueCode": "UNKNOWN"
      } ],
      "identifier": [ {
        "use": "official",
        "value": "cdbd33f0-6cde-11db-9fe1-0800200c9a66"
      } ],
      "status": "completed",
      "medicationReference": {
        "reference": "Medication/de2fab5a-ae3c-4e00-ac8c-21d690df9397",
        "display": "Dyphylline 100 MG / Guaifenesin 100 MG Oral Tablet"
      },
      "subject": {
        "reference": "Patient/0851bf68-d155-4411-8583-e46892093e4b",
        "display": "Leslie Brown"
      },
      "effectivePeriod": {
        "start": "2009-05-05T10:00:00+02:00"
      }
    }
  }, {
    "resource": {
      "resourceType": "Medication",
      "id": "de2fab5a-ae3c-4e00-ac8c-21d690df9397",
      "code": {
        "coding": [ {
          "system": "http://www.nlm.nih.gov/research/umls/rxnorm",
          "code": "388681",
          "display": "Dyphylline 100 MG / Guaifenesin 100 MG Oral Tablet"
        } ]
      }
    }
  }, {
    "resource": {
      "resourceType": "MedicationStatement",
      "id": "ff7df453-89ba-43ed-a942-a01e79871c6c",
      "extension": [ {
        "url": "http://hl7.org/fhir/3.0/StructureDefinition/extension-MedicationStatement.status",
        "valueCode": "UNKNOWN"
      } ],
      "identifier": [ {
        "use": "official",
        "value": "cdbd33f0-6cde-11db-9fe1-0800200c9a66"
      } ],
      "status": "completed",
      "medicationReference": {
        "reference": "Medication/1c5f1b4a-befc-4985-8f73-b8dbc2d13cd0",
        "display": "Albuterol 0.83 MG/ML Inhalant Solution"
      },
      "subject": {
        "reference": "Patient/0851bf68-d155-4411-8583-e46892093e4b",
        "display": "Leslie Brown"
      },
      "effectivePeriod": {
        "start": "2010-04-02T10:00:00+02:00"
      }
    }
  }, {
    "resource": {
      "resourceType": "Medication",
      "id": "1c5f1b4a-befc-4985-8f73-b8dbc2d13cd0",
      "code": {
        "coding": [ {
          "system": "http://www.nlm.nih.gov/research/umls/rxnorm",
          "code": "630208",
          "display": "Albuterol 0.83 MG/ML Inhalant Solution"
        } ]
      }
    }
  }, {
    "resource": {
      "resourceType": "MedicationStatement",
      "id": "db5c71d3-623f-43f0-a812-de22202e6af7",
      "extension": [ {
        "url": "http://hl7.org/fhir/3.0/StructureDefinition/extension-MedicationStatement.status",
        "valueCode": "UNKNOWN"
      } ],
      "identifier": [ {
        "use": "official",
        "value": "cdbd33f0-6cde-11db-9fe1-0800200c9a66"
      } ],
      "status": "completed",
      "medicationReference": {
        "reference": "Medication/d34f40e7-0eee-4fa5-8e35-b36e1ae740b2",
        "display": "Erythromycin 500 MG Oral Tablet"
      },
      "subject": {
        "reference": "Patient/0851bf68-d155-4411-8583-e46892093e4b",
        "display": "Leslie Brown"
      },
      "effectivePeriod": {
        "start": "2010-06-06T10:00:00+02:00"
      }
    }
  }, {
    "resource": {
      "resourceType": "Medication",
      "id": "d34f40e7-0eee-4fa5-8e35-b36e1ae740b2",
      "code": {
        "coding": [ {
          "system": "http://www.nlm.nih.gov/research/umls/rxnorm",
          "code": "197650",
          "display": "Erythromycin 500 MG Oral Tablet"
        } ]
      }
    }
  }, {
    "resource": {
      "resourceType": "MedicationStatement",
      "id": "e9545f74-6db6-438d-ab1c-3189a893ad01",
      "extension": [ {
        "url": "http://hl7.org/fhir/3.0/StructureDefinition/extension-MedicationStatement.status",
        "valueCode": "UNKNOWN"
      } ],
      "identifier": [ {
        "use": "official",
        "value": "cdbd33f0-6cde-11db-9fe1-0800200c9a66"
      } ],
      "status": "completed",
      "medicationReference": {
        "reference": "Medication/34f7ffa4-9d1d-4b5c-90db-fd0b82b8fec2",
        "display": "24 HR Nicotine 0.313 MG/HR Transdermal Patch"
      },
      "subject": {
        "reference": "Patient/0851bf68-d155-4411-8583-e46892093e4b",
        "display": "Leslie Brown"
      },
      "effectivePeriod": {
        "start": "2010-06-08T10:00:00+02:00"
      }
    }
  }, {
    "resource": {
      "resourceType": "Medication",
      "id": "34f7ffa4-9d1d-4b5c-90db-fd0b82b8fec2",
      "code": {
        "coding": [ {
          "system": "http://www.nlm.nih.gov/research/umls/rxnorm",
          "code": "1046847",
          "display": "24 HR Nicotine 0.313 MG/HR Transdermal Patch"
        } ]
      }
    }
  }, {
    "resource": {
      "resourceType": "MedicationStatement",
      "id": "41cd14ad-62b9-4e89-aad6-7dcf9f7d2a96",
      "extension": [ {
        "url": "http://hl7.org/fhir/3.0/StructureDefinition/extension-MedicationStatement.status",
        "valueCode": "UNKNOWN"
      } ],
      "identifier": [ {
        "use": "official",
        "value": "cdbd33f0-6cde-11db-9fe1-0800200c9a66"
      } ],
      "status": "completed",
      "medicationReference": {
        "reference": "Medication/e94336a1-b6f7-4edd-8d63-12fa7471e780",
        "display": "salmeterol 0.05 MG/ACTUAT Inhalant Powder"
      },
      "subject": {
        "reference": "Patient/0851bf68-d155-4411-8583-e46892093e4b",
        "display": "Leslie Brown"
      },
      "effectivePeriod": {
        "start": "2010-04-02T10:00:00+02:00"
      }
    }
  }, {
    "resource": {
      "resourceType": "Medication",
      "id": "e94336a1-b6f7-4edd-8d63-12fa7471e780",
      "code": {
        "coding": [ {
          "system": "http://www.nlm.nih.gov/research/umls/rxnorm",
          "code": "318142",
          "display": "salmeterol 0.05 MG/ACTUAT Inhalant Powder"
        } ]
      }
    }
  }, {
    "resource": {
      "resourceType": "MedicationStatement",
      "id": "46ce5ccc-43f4-4625-a8e9-26a38c58c0d2",
      "extension": [ {
        "url": "http://hl7.org/fhir/3.0/StructureDefinition/extension-MedicationStatement.status",
        "valueCode": "UNKNOWN"
      } ],
      "identifier": [ {
        "use": "official",
        "value": "cdbd33f0-6cde-11db-9fe1-0800200c9a66"
      } ],
      "status": "completed",
      "medicationReference": {
        "reference": "Medication/7a560871-168d-4330-9398-bdf0d766b61e",
        "display": "atorvastatin 10 MG Oral Tablet [Lipitor]"
      },
      "subject": {
        "reference": "Patient/0851bf68-d155-4411-8583-e46892093e4b",
        "display": "Leslie Brown"
      },
      "effectivePeriod": {
        "start": "2010-08-06T10:00:00+02:00"
      }
    }
  }, {
    "resource": {
      "resourceType": "Medication",
      "id": "7a560871-168d-4330-9398-bdf0d766b61e",
      "code": {
        "coding": [ {
          "system": "http://www.nlm.nih.gov/research/umls/rxnorm",
          "code": "617314",
          "display": "atorvastatin 10 MG Oral Tablet [Lipitor]"
        } ]
      }
    }
  }, {
    "resource": {
      "resourceType": "MedicationStatement",
      "id": "e74c5258-b5d7-42fc-a7ad-32c48bf1d6c1",
      "extension": [ {
        "url": "http://hl7.org/fhir/3.0/StructureDefinition/extension-MedicationStatement.status",
        "valueCode": "UNKNOWN"
      } ],
      "identifier": [ {
        "use": "official",
        "value": "cdbd33f0-6cde-11db-9fe1-0800200c9a66"
      } ],
      "status": "completed",
      "medicationReference": {
        "reference": "Medication/df8ede9a-b914-4247-9390-95899323b79c",
        "display": "Lisinopril 10 MG Oral Tablet"
      },
      "subject": {
        "reference": "Patient/0851bf68-d155-4411-8583-e46892093e4b",
        "display": "Leslie Brown"
      },
      "effectivePeriod": {
        "start": "2010-04-02T10:00:00+02:00"
      }
    }
  }, {
    "resource": {
      "resourceType": "Medication",
      "id": "df8ede9a-b914-4247-9390-95899323b79c",
      "code": {
        "coding": [ {
          "system": "http://www.nlm.nih.gov/research/umls/rxnorm",
          "code": "314076",
          "display": "Lisinopril 10 MG Oral Tablet"
        } ]
      }
    }
  }, {
    "resource": {
      "resourceType": "Procedure",
      "id": "240f6c19-09d7-4fc2-bbe5-f47fe2e44305",
      "identifier": [ {
        "use": "official",
        "value": "e401f340-7be2-11db-9fe1-0800200c9a66"
      } ],
      "status": "completed",
      "code": {
        "coding": [ {
          "system": "http://www.ama-assn.org/go/cpt",
          "code": "55810",
          "display": "Extensive prostate surgery"
        }, {
          "system": "http://snomed.info/sct",
          "code": "176259004",
          "display": "Radical prostatectomy - unspecified excision of pelvic nodes"
        } ]
      },
      "subject": {
        "reference": "Patient/0851bf68-d155-4411-8583-e46892093e4b",
        "display": "Leslie Brown"
      },
      "performedPeriod": {
        "start": "2010-06-07T10:00:00+02:00"
      }
    }
  }, {
    "resource": {
      "resourceType": "Observation",
      "id": "1e3173c5-ca97-4cba-94e2-cf09328212b1",
      "identifier": [ {
        "use": "official",
        "system": "urn:oid:2.16.840.1.113883.19",
        "value": "123456789"
      } ],
      "status": "final",
      "code": {
        "coding": [ {
          "system": "urn:oid:2.16.840.1.113883.5.4",
          "code": "ASSERTION"
        } ]
      },
      "subject": {
        "reference": "Patient/0851bf68-d155-4411-8583-e46892093e4b",
        "display": "Leslie Brown"
      },
      "effectivePeriod": {
        "start": "2009-05-05T10:00:00+02:00"
      },
      "valueCodeableConcept": {
        "coding": [ {
          "system": "http://snomed.info/sct",
          "code": "266919005",
          "display": "Never smoker (Never Smoked)"
        }, {
          "system": "http://snomed.info/sct",
          "code": "449868002",
          "display": "Current every day smoker"
        } ]
      }
    }
  }, {
    "resource": {
      "resourceType": "AllergyIntolerance",
      "id": "af4bcbc2-38e3-488a-be79-e43bd0d17163",
      "identifier": [ {
        "use": "official",
        "value": "36e3e930-7b14-11db-9fe1-0800200c9a66"
      } ],
      "clinicalStatus": {
        "coding": [ {
          "system": "http://terminology.hl7.org/CodeSystem/allergyintolerance-clinical",
          "code": "active",
          "display": "Active"
        } ]
      },
      "verificationStatus": {
        "coding": [ {
          "system": "http://terminology.hl7.org/CodeSystem/allergyintolerance-verification",
          "code": "confirmed",
          "display": "Confirmed"
        } ]
      },
      "type": "allergy",
      "category": [ "medication" ],
      "code": {
        "coding": [ {
          "system": "urn:oid:2.16.840.1.113883.3.26.1.5",
          "code": "N0000011298",
          "display": "Penicillin V"
        } ],
        "text": "Penicillin V + Penicillin V"
      },
      "patient": {
        "reference": "Patient/0851bf68-d155-4411-8583-e46892093e4b",
        "display": "Leslie Brown"
      },
      "recordedDate": "2009-05-05T10:00:00+02:00"
    }
  }, {
    "resource": {
      "resourceType": "AllergyIntolerance",
      "id": "70abc4b6-8b88-43dc-b65d-2a33c48a654e",
      "identifier": [ {
        "use": "official",
        "value": "36e3e930-7b14-11db-9fe1-0800200c9a66"
      } ],
      "clinicalStatus": {
        "coding": [ {
          "system": "http://terminology.hl7.org/CodeSystem/allergyintolerance-clinical",
          "code": "active",
          "display": "Active"
        } ]
      },
      "verificationStatus": {
        "coding": [ {
          "system": "http://terminology.hl7.org/CodeSystem/allergyintolerance-verification",
          "code": "confirmed",
          "display": "Confirmed"
        } ]
      },
      "type": "allergy",
      "category": [ "food" ],
      "code": {
        "coding": [ {
          "system": "http://fdasis.nlm.nih.gov",
          "code": "291P45F896",
          "display": "Eggs"
        }, {
          "system": "urn:oid:2.16.840.1.113883.6.103",
          "code": "V15.03",
          "display": "Allergy to eggs"
        } ],
        "text": "Allergy to Eggs + Eggs"
      },
      "patient": {
        "reference": "Patient/0851bf68-d155-4411-8583-e46892093e4b",
        "display": "Leslie Brown"
      },
      "recordedDate": "2009-05-05T10:00:00+02:00"
    }
  }, {
    "resource": {
      "resourceType": "AllergyIntolerance",
      "id": "b1b48326-86c2-44d8-8cca-1e3751111e7f",
      "identifier": [ {
        "use": "official",
        "value": "36e3e930-7b14-11db-9fe1-0800200c9a66"
      } ],
      "clinicalStatus": {
        "coding": [ {
          "system": "http://terminology.hl7.org/CodeSystem/allergyintolerance-clinical",
          "code": "active",
          "display": "Active"
        } ]
      },
      "verificationStatus": {
        "coding": [ {
          "system": "http://terminology.hl7.org/CodeSystem/allergyintolerance-verification",
          "code": "confirmed",
          "display": "Confirmed"
        } ]
      },
      "type": "allergy",
      "category": [ "medication" ],
      "code": {
        "coding": [ {
          "system": "http://www.nlm.nih.gov/research/umls/rxnorm",
          "code": "905148",
          "display": "Amikacin Sulfate 50 MG/ML Injectable Solution"
        } ],
        "text": "Amikacin + Amikacin Sulfate 50 MG/ML Injectable Solution"
      },
      "patient": {
        "reference": "Patient/0851bf68-d155-4411-8583-e46892093e4b",
        "display": "Leslie Brown"
      },
      "recordedDate": "2009-05-05T10:00:00+02:00"
    }
  } ]
}