{
  "resourceType": "Bundle",
  "entry": [ {
    "resource": {
      "resourceType": "Composition",
      "id": "3900ddbc-0e80-4501-950c-a9be368be798",
      "identifier": {
        "use": "official",
        "value": "db734647-fc99-424c-a864-7e3cda82e703"
      },
      "status": "preliminary",
      "type": {
        "coding": [ {
          "system": "http://loinc.org",
          "code": "34133-9",
          "display": "Summarization of Episode Note"
        } ]
      },
      "category": [ {
        "coding": [ {
          "system": "http://hl7.org/fhir/ValueSet/doc-classcodes",
          "code": "LP173421-7",
          "display": "Note"
        } ]
      } ],
      "subject": {
        "reference": "Patient/b3b5c668-6389-4069-9aee-0f7d04103bfb",
        "display": "Roger Peters"
      },
      "date": "2014-04-16T11:54:43+02:00",
      "author": [ {
        "reference": "Practitioner/98505a2f-2fd5-4943-b85b-e3651e422665",
        "display": "Henry Seven MD"
      } ],
      "title": "Community Health and Hospitals: Health Summary",
      "confidentiality": "N",
      "attester": [ {
        "mode": "legal",
        "time": "2013-04-18T09:00:00+05:00",
        "party": {
          "reference": "Practitioner/427d07d1-5120-4560-87da-b18f358e08ee",
          "display": "Henry Seven"
        }
      }, {
        "mode": "professional",
        "time": "2014-04-16T11:54:43+02:00",
        "party": {
          "reference": "Practitioner/427d07d1-5120-4560-87da-b18f358e08ee",
          "display": "Henry Seven"
        }
      } ],
      "custodian": {
        "reference": "Organization/e17499e5-96b5-47cf-b9ec-26132d9773d9",
        "display": "Community Health and Hospitals"
      },
      "event": [ {
        "period": {
          "start": "2010-04-16T10:00:00+02:00",
          "end": "2010-12-02T10:00:00+01:00"
        },
        "detail": [ {
          "reference": "Practitioner/73faaf52-30e6-46e3-80e7-5cee81f09fe6",
          "display": "Henry Seven MD"
        } ]
      } ],
      "section": [ {
        "title": "Social History",
        "code": {
          "coding": [ {
            "system": "http://loinc.org",
            "code": "29762-2",
            "display": "Social History"
          } ]
        },
        "text": {
          "status": "additional",
          "div": "<div xmlns=\"http://www.w3.org/1999/xhtml\"><table><thead><tr><th>Group Description</th><th>Code System</th><th>Code</th><th>Code Description</th><th>Date and Time</th><th>Status</th></tr></thead><tbody><tr><td>Tobacco Use</td><td>SNOMED-CT</td><td>266919005</td><td><span/>Never smoker (Never Smoked)</td><td>04-16-2010 10:00:00</td><td>Active</td></tr><tr><td/><td>SNOMED-CT</td><td>449868002</td><td>Current every day smoker</td><td/><td/></tr></tbody></table></div>"
        },
        "mode": "snapshot",
        "entry": [ {
          "reference": "Observation/9f1696c6-1c26-4e04-81ee-a15c6780a8e9"
        } ]
      }, {
        "title": "Procedures",
        "code": {
          "coding": [ {
            "system": "http://loinc.org",
            "code": "47519-4",
            "display": "HISTORY OF PROCEDURES"
          } ]
        },
        "text": {
          "status": "additional",
          "div": "<div xmlns=\"http://www.w3.org/1999/xhtml\"><table><thead><tr><th>Group Description</th><th>Code System</th><th>Code</th><th>Code Description</th><th>Date and Time</th><th>Status</th></tr></thead><tbody><tr><td>Foot Exam</td><td>SNOMED-CT</td><td>401191002</td><td><span/>Diabetic foot examination</td><td>04-16-2010 10:00:00</td><td>Performed</td></tr><tr><td>Tobacco Use Cessation Counseling</td><td>CPT</td><td>99406</td><td><span/>Behav chng smoking 3-10 min</td><td>04-16-2010 10:00:00</td><td>Performed</td></tr><tr><td/><td>SNOMED-CT</td><td>384742004</td><td>Smoking cessation assistance</td><td/><td/></tr><tr><td>Eye Exam</td><td>CPT</td><td>92012</td><td><span/>Eye exam established pat</td><td>08-02-2010 10:00:00</td><td>Performed</td></tr><tr><td/><td>HCPCS</td><td>S0621</td><td>Routine ophthalmological exa</td><td/><td/></tr><tr><td/><td>ICD-9-CM</td><td>95.03</td><td>Extended ophthalmologic work-up</td><td/><td/></tr><tr><td/><td>SNOMED-CT</td><td>36228007</td><td>Ophthalmic examination and evaluation</td><td/><td/></tr><tr><td>Foot Exam</td><td>SNOMED-CT</td><td>401191002</td><td><span/>Diabetic foot examination</td><td>08-02-2010 10:00:00</td><td>Performed</td></tr><tr><td>Foot Exam</td><td>SNOMED-CT</td><td>401191002</td><td><span/>Diabetic foot examination</td><td>12-02-2010 10:00:00</td><td>Performed</td></tr></tbody></table></div>"
        },
        "mode": "snapshot"
      }, {
        "title": "Allergies,  Adverse Reactions & Alerts",
        "code": {
          "coding": [ {
            "system": "http://loinc.org",
            "code": "48765-2",
            "display": "Allergies, adverse reactions, alerts"
          } ]
        },
        "text": {
          "status": "additional",
          "div": "<div xmlns=\"http://www.w3.org/1999/xhtml\"><table><thead><tr><th>Group Description</th><th>Code System</th><th>Code</th><th>Code Description</th><th>Severity</th><th>Susceptibility</th><th>Date and Time</th><th>Status</th></tr></thead><tbody><tr><td>Allergy to Eggs</td><td>UNII</td><td>291P45F896</td><td><span/>Eggs</td><td><span/>Severe</td><td>Susceptible</td><td>04-16-2010 10:00:00</td><td>Active</td></tr><tr><td/><td>ICD-9-CM</td><td>V15.03</td><td>Allergy to eggs</td><td/><td/><td/><td/></tr><tr><td>Codeine</td><td>NDF-RT</td><td>N0000006691</td><td><span/>Codeine</td><td><span/>Fatal</td><td>Susceptible</td><td>04-16-2010 10:00:00</td><td>Active</td></tr><tr><td>Neomycin</td><td>RxNorm</td><td>866041</td><td><span/>Neomycin Sulfate 500 MG</td><td><span/>Mild to moderate</td><td>Very susceptible</td><td>04-16-2010 10:00:00</td><td>Active</td></tr></tbody></table></div>"
        },
        "mode": "snapshot",
        "entry": [ {
          "reference": "AllergyIntolerance/474a8c57-0a53-4451-bb6a-9808d380d08a",
          "display": "Neomycin + Neomycin Sulfate 500 MG"
        }, {
          "reference": "AllergyIntolerance/7ecca020-7e43-4ef2-b389-b8ffae9cb6e2",
          "display": "Codeine + Codeine"
        }, {
          "reference": "AllergyIntolerance/f46288ac-d5d8-4a31-a059-4e00c6b45719",
          "display": "Allergy to Eggs + Eggs"
        } ]
      }, {
        "title": "Encounters",
        "code": {
          "coding": [ {
            "system": "http://loinc.org",
            "code": "46240-8",
            "display": "History of encounters"
          } ]
        },
        "text": {
          "status": "additional",
          "div": "<div xmlns=\"http://www.w3.org/1999/xhtml\"><table><thead><tr><th>Group Description</th><th>Code System</th><th>Code</th><th>Code Description</th><th>Date and Time</th><th>Status</th></tr></thead><tbody><tr><td>Encounter Outpatient</td><td>CPT</td><td>99213</td><td><span/>Office/outpatient visit, est</td><td>04-16-2010 10:00:00</td><td>Performed</td></tr><tr><td/><td>ICD-9-CM</td><td>V70.0</td><td>Routine general medical examination at a health care facility</td><td/><td/></tr><tr><td>Encounter Outpatient</td><td>CPT</td><td>99213</td><td><span/>Office/outpatient visit, est</td><td>08-02-2010 10:00:00</td><td>Performed</td></tr><tr><td/><td>ICD-9-CM</td><td>V70.0</td><td>Routine general medical examination at a health care facility</td><td/><td/></tr><tr><td>Encounter Outpatient</td><td>CPT</td><td>99213</td><td><span/>Office/outpatient visit, est</td><td>12-02-2010 10:00:00</td><td>Performed</td></tr><tr><td/><td>ICD-9-CM</td><td>V70.0</td><td>Routine general medical examination at a health care facility</td><td/><td/></tr></tbody></table></div>"
        },
        "mode": "snapshot",
        "entry": [ {
          "reference": "Encounter/aefe7b01-97d3-426b-a703-10d934ce0537",
          "display": "Office/outpatient visit, est"
        }, {
          "reference": "Encounter/1ee0466a-672e-4df2-a6ec-819e96bfbe70",
          "display": "Office/outpatient visit, est"
        }, {
          "reference": "Encounter/9ed148a8-b592-4e04-96b6-99931ef7da67",
          "display": "Office/outpatient visit, est"
        } ]
      }, {
        "title": "Vital Signs",
        "code": {
          "coding": [ {
            "system": "http://loinc.org",
            "code": "8716-3",
            "display": "Vital Signs"
          } ]
        },
        "text": {
          "status": "additional",
          "div": "<div xmlns=\"http://www.w3.org/1999/xhtml\"><table><thead><tr><th>Group Description</th><th>Code System</th><th>Code</th><th>Code Description</th><th>Value</th><th>Unit</th><th>Date and Time</th><th>Status</th></tr></thead><tbody><tr><td>BMI</td><td>LOINC</td><td>39156-5</td><td><span/>BMI</td><td>39.9</td><td>kg/m2</td><td>04-16-2010 10:00:00</td><td>Finding</td></tr><tr><td>Diastolic Blood Pressure</td><td>LOINC</td><td>8462-4</td><td><span/>BP Diastolic</td><td>76</td><td>mm[Hg]</td><td>04-16-2010 10:00:00</td><td>Finding</td></tr><tr><td>Systolic Blood Pressure</td><td>LOINC</td><td>8480-6</td><td><span/>BP Systolic</td><td>118</td><td>mm[Hg]</td><td>04-16-2010 10:00:00</td><td>Finding</td></tr><tr><td>Diastolic Blood Pressure</td><td>LOINC</td><td>8462-4</td><td><span/>BP Diastolic</td><td>78</td><td>mm[Hg]</td><td>08-02-2010 10:00:00</td><td>Finding</td></tr><tr><td>Systolic Blood Pressure</td><td>LOINC</td><td>8480-6</td><td><span/>BP Systolic</td><td>122</td><td>mm[Hg]</td><td>08-02-2010 10:00:00</td><td>Finding</td></tr><tr><td>BMI</td><td>LOINC</td><td>39156-5</td><td><span/>BMI</td><td>38.4</td><td>kg/m2</td><td>12-02-2010 10:00:00</td><td>Finding</td></tr><tr><td>Diastolic Blood Pressure</td><td>LOINC</td><td>8462-4</td><td><span/>BP Diastolic</td><td>80</td><td>mm[Hg]</td><td>12-02-2010 10:00:00</td><td>Finding</td></tr><tr><td>Systolic Blood Pressure</td><td>LOINC</td><td>8480-6</td><td><span/>BP Systolic</td><td>120</td><td>mm[Hg]</td><td>12-02-2010 10:00:00</td><td>Finding</td></tr></tbody></table></div>"
        },
        "mode": "snapshot",
        "entry": [ {
          "reference": "Observation/bb91eb73-e5a7-407a-b090-bd0ec4d79774",
          "display": "BP Diastolic"
        }, {
          "reference": "Observation/b2fc78d1-6d6f-46c1-901b-7f9502eeb94d",
          "display": "BP Systolic"
        }, {
          "reference": "Observation/5c9f359c-4c7b-4bfb-b199-9a5f4ac6152d",
          "display": "BP Diastolic"
        }, {
          "reference": "Observation/0915c900-3efe-4948-95ef-6ef483519bc2",
          "display": "BP Systolic"
        }, {
          "reference": "Observation/b8276d97-b88c-4f2a-b9f8-0bfb14933b77",
          "display": "BMI"
        }, {
          "reference": "Observation/9454f272-137e-4e69-9f1d-d38e82b1ac00",
          "display": "BMI"
        }, {
          "reference": "Observation/2d58ba50-9df9-4f9f-bdab-080b8e36e476",
          "display": "BP Systolic"
        }, {
          "reference": "Observation/6e90d58a-27c8-4b03-8ebf-2213a294c744",
          "display": "BP Diastolic"
        } ]
      }, {
        "title": "Results",
        "code": {
          "coding": [ {
            "system": "http://loinc.org",
            "code": "30954-2",
            "display": "Results"
          } ]
        },
        "text": {
          "status": "additional",
          "div": "<div xmlns=\"http://www.w3.org/1999/xhtml\"><table><thead><tr><th>Group Description</th><th>Code System</th><th>Code</th><th>Code Description</th><th>Value</th><th>Unit</th><th>Reference Range</th><th>Date and Time</th><th>Status</th></tr></thead><tbody><tr><td>HbA1c test</td><td>LOINC</td><td>4548-4</td><td><span/>Hgb A1c MFr Bld</td><td>6.3</td><td>%</td><td>4-5.6%</td><td>04-16-2010 10:00:00</td><td>Completed</td></tr><tr><td/><td>CPT</td><td>83036</td><td>Glycated hemoglobin test</td><td/><td/><td/><td/><td/></tr><tr><td/><td>SNOMED-CT</td><td>43396009</td><td>Hemoglobin A1c measurement</td><td/><td/><td/><td/><td/></tr><tr><td>High Density Lipoprotein (HDL)</td><td>LOINC</td><td>14646-4</td><td><span/>HDLc SerPl-sCnc</td><td>56</td><td>mg/dL</td><td>&amp;gt;=40 mg/dL</td><td>04-16-2010 10:00:00</td><td>Completed</td></tr><tr><td/><td>CPT</td><td>83701</td><td>Lipoprotein bld, hr fraction</td><td/><td/><td/><td/><td/></tr><tr><td/><td>SNOMED-CT</td><td>28036006</td><td>High density lipoprotein cholesterol measurement</td><td/><td/><td/><td/><td/></tr><tr><td>Low Density Lipoprotein (LDL)</td><td>LOINC</td><td>2089-1</td><td><span/>LDLc SerPl-mCnc</td><td>95.2</td><td>mg/dL</td><td>&amp;lt;130 mg/dL (calc)</td><td>04-16-2010 10:00:00</td><td>Completed</td></tr><tr><td/><td>CPT</td><td>83721</td><td>Assay of blood lipoprotein</td><td/><td/><td/><td/><td/></tr><tr><td/><td>SNOMED-CT</td><td>113079009</td><td>Low density lipoprotein cholesterol measurement</td><td/><td/><td/><td/><td/></tr><tr><td>Total Cholesterol</td><td>LOINC</td><td>2093-3</td><td><span/>Cholest SerPl-mCnc</td><td>168</td><td>mg/dL</td><td>125-200 mg/dL</td><td>04-16-2010 10:00:00</td><td>Completed</td></tr><tr><td/><td>CPT</td><td>82465</td><td>Assay, bld/serum cholesterol</td><td/><td/><td/><td/><td/></tr><tr><td/><td>SNOMED-CT</td><td>121868005</td><td>Total cholesterol measurement</td><td/><td/><td/><td/><td/></tr><tr><td>Triglycerides</td><td>LOINC</td><td>12951-0</td><td><span/>Trigl SerPl Calc-mCnc</td><td>84</td><td>mg/dL</td><td>10-39 years: 55-110 mg/dL | 40-59 years: 70-150 mg/dL | &amp;gt;60 years: 80-150 mg/dL | Therapeutic Target: &amp;lt;100 mg/dL </td><td>04-16-2010 10:00:00</td><td>Completed</td></tr><tr><td/><td>CPT</td><td>84478</td><td>Assay of triglycerides</td><td/><td/><td/><td/><td/></tr><tr><td/><td>SNOMED-CT</td><td>14740000</td><td>Triglycerides measurement</td><td/><td/><td/><td/><td/></tr><tr><td>Urine Macroalbumin</td><td>LOINC</td><td>50561-0</td><td><span/>Prot Ur Strip.auto-mCnc</td><td>negative</td><td/><td>3.6-5.1 mg/dL</td><td>04-16-2010 10:00:00</td><td>Completed</td></tr><tr><td/><td>CPT</td><td>84156</td><td>Assay of protein urine</td><td/><td/><td/><td/><td/></tr><tr><td/><td>SNOMED-CT</td><td>57378007</td><td>Protein measurement, urine</td><td/><td/><td/><td/><td/></tr><tr><td>HbA1c test</td><td>LOINC</td><td>4548-4</td><td><span/>Hgb A1c MFr Bld</td><td>7.5</td><td>%</td><td>4-5.6%</td><td>08-02-2010 10:00:00</td><td>Completed</td></tr><tr><td/><td>CPT</td><td>83036</td><td>Glycated hemoglobin test</td><td/><td/><td/><td/><td/></tr><tr><td/><td>SNOMED-CT</td><td>43396009</td><td>Hemoglobin A1c measurement</td><td/><td/><td/><td/><td/></tr><tr><td>HbA1c test</td><td>LOINC</td><td>4548-4</td><td><span/>Hgb A1c MFr Bld</td><td>7.2</td><td>%</td><td>4-5.6%</td><td>12-02-2010 10:00:00</td><td>Completed</td></tr><tr><td/><td>CPT</td><td>83036</td><td>Glycated hemoglobin test</td><td/><td/><td/><td/><td/></tr><tr><td/><td>SNOMED-CT</td><td>43396009</td><td>Hemoglobin A1c measurement</td><td/><td/><td/><td/><td/></tr></tbody></table></div>"
        },
        "mode": "snapshot",
        "entry": [ {
          "reference": "DiagnosticReport/4b00137a-d31e-4d71-b127-baa5ea48af04",
          "display": "Blood Chemistry"
        }, {
          "reference": "DiagnosticReport/f94985a9-d0d5-4bed-9634-e794e993777e",
          "display": "Lipid Panel"
        }, {
          "reference": "DiagnosticReport/97142e9e-63f2-42d9-a492-0cdc8f836139",
          "display": "Blood Chemistry"
        }, {
          "reference": "DiagnosticReport/126bd1ad-96a0-4976-b1c5-da7371194f73",
          "display": "Urinalysis"
        }, {
          "reference": "DiagnosticReport/c87d4c22-779a-47d7-9ee3-7b85f6db4659",
          "display": "Blood Chemistry"
        } ]
      }, {
        "title": "Problems",
        "code": {
          "coding": [ {
            "system": "http://loinc.org",
            "code": "11450-4",
            "display": "PROBLEM LIST"
          } ]
        },
        "text": {
          "status": "additional",
          "div": "<div xmlns=\"http://www.w3.org/1999/xhtml\"><table><thead><tr><th>Group Description</th><th>Code System</th><th>Code</th><th>Code Description</th><th>Date and Time</th><th>Status</th></tr></thead><tbody><tr><td>Diabetes</td><td>SNOMED-CT</td><td>44054006</td><td><span/>Diabetes mellitus type 2</td><td>04-16-2010 10:00:00</td><td>Active</td></tr><tr><td/><td>ICD-10-CM</td><td>E11.9</td><td>Type 2 diabetes mellitus without complications</td><td/><td/></tr><tr><td/><td>ICD-9-CM</td><td>250.00</td><td>Diabetes mellitus without mention of complication, type II or unspecified type, not stated as uncontrolled</td><td/><td/></tr></tbody></table></div>"
        },
        "mode": "snapshot",
        "entry": [ {
          "reference": "Condition/fc263a79-7f3e-48d0-af61-7bb7fb9a1a07",
          "display": "Diabetes mellitus type 2"
        } ]
      }, {
        "title": "Medications",
        "code": {
          "coding": [ {
            "system": "http://loinc.org",
            "code": "10160-0",
            "display": "History of Medication Use"
          } ]
        },
        "text": {
          "status": "additional",
          "div": "<div xmlns=\"http://www.w3.org/1999/xhtml\"><table><thead><tr><th>Group Description</th><th>Code System</th><th>Code</th><th>Code Description</th><th>Date and Time</th><th>Status</th></tr></thead><tbody><tr><td>Antidiabetic combinations</td><td>RxNorm</td><td>861748</td><td><span/>Glyburide 2.5 MG / Metformin hydrochloride 500 MG Oral Tablet</td><td>04-16-2010 10:00:00</td><td>Active</td></tr><tr><td>Smoking Cessation Agents</td><td>RxNorm</td><td>1046847</td><td><span/>24 HR Nicotine 0.313 MG/HR Transdermal Patch</td><td>04-16-2010 10:00:00</td><td>Active</td></tr></tbody></table></div>"
        },
        "mode": "snapshot",
        "entry": [ {
          "reference": "MedicationStatement/a44463e6-f2ea-4d66-82ce-edfe1713548d",
          "display": "24 HR Nicotine 0.313 MG/HR Transdermal Patch"
        }, {
          "reference": "MedicationStatement/098d10de-bfc6-42bf-ae93-41710b3020aa",
          "display": "Glyburide 2.5 MG / Metformin hydrochloride 500 MG Oral Tablet"
        } ]
      } ]
    }
  }, {
    "resource": {
      "resourceType": "Patient",
      "id": "b3b5c668-6389-4069-9aee-0f7d04103bfb",
      "extension": [ {
        "url": "http://hl7.org/fhir/StructureDefinition/patient-religion",
        "valueCodeableConcept": {
          "coding": [ {
            "system": "urn:oid:2.16.840.1.113883.5.1076",
            "code": "1077",
            "display": "Protestant"
          } ]
        }
      }, {
        "url": "http://hl7.org/fhir/us/core/StructureDefinition/us-core-race",
        "extension": [ {
          "url": "text",
          "valueString": "Other Race"
        }, {
          "url": "ombCategory",
          "valueCoding": {
            "system": "urn:oid:2.16.840.1.113883.6.238",
            "code": "2131-1",
            "display": "Other Race"
          }
        } ]
      }, {
        "url": "http://hl7.org/fhir/us/core/StructureDefinition/us-core-ethnicity",
        "extension": [ {
          "url": "text",
          "valueString": "Not Hispanic or Latino"
        }, {
          "url": "ombCategory",
          "valueCoding": {
            "system": "urn:oid:2.16.840.1.113883.6.238",
            "code": "2186-5",
            "display": "Not Hispanic or Latino"
          }
        } ]
      }, {
        "url": "http://hl7.org/fhir/StructureDefinition/patient-birthPlace",
        "valueAddress": {
          "city": "Broomfield",
          "state": "CO",
          "postalCode": "80020",
          "country": "US"
        }
      } ],
      "identifier": [ {
        "use": "official",
        "system": "urn:oid:2.16.840.1.113883.19.5.99999.2",
        "value": "998991"
      }, {
        "use": "official",
        "system": "urn:oid:2.16.840.1.113883.4.1",
        "value": "111-00-2330"
      } ],
      "name": [ {
        "use": "usual",
        "family": "Peters",
        "given": [ "Roger" ]
      } ],
      "telecom": [ {
        "system": "phone",
        "value": "(859)375-8476",
        "use": "mobile"
      } ],
      "gender": "male",
      "birthDate": "1979-04-03",
      "address": [ {
        "use": "home",
        "line": [ "1568 Zappia Drive" ],
        "city": "Willisburg",
        "state": "KY",
        "postalCode": "40078",
        "country": "US"
      } ],
      "maritalStatus": {
        "coding": [ {
          "system": "http://terminology.hl7.org/CodeSystem/v3-MaritalStatus",
          "code": "M",
          "display": "Married"
        } ]
      },
      "contact": [ {
        "relationship": [ {
          "coding": [ {
            "system": "http://terminology.hl7.org/CodeSystem/v2-0131",
            "code": "C",
            "display": "Emergency Contact"
          } ]
        } ],
        "name": {
          "family": "Hawley",
          "given": [ "Arthur" ],
          "prefix": [ "Mr." ]
        },
        "telecom": [ {
          "system": "phone",
          "value": "(423)454-2031",
          "use": "home"
        }, {
          "system": "email",
          "value": "ArthurEHawley@jourrapide.com",
          "use": "work"
        } ],
        "address": {
          "use": "home",
          "line": [ "702 Corbin Branch Road" ],
          "city": "Chattanooga",
          "state": "TN",
          "postalCode": "37403",
          "country": "US"
        }
      } ],
      "communication": [ {
        "language": {
          "coding": [ {
            "system": "urn:ietf:bcp:47",
            "code": "spa"
          } ]
        },
        "preferred": true
      } ],
      "managingOrganization": {
        "reference": "Organization/eb43306d-8911-431c-a0c4-f691b0148556",
        "display": "Community Health and Hospitals"
      }
    }
  }, {
    "resource": {
      "resourceType": "Organization",
      "id": "eb43306d-8911-431c-a0c4-f691b0148556",
      "identifier": [ {
        "use": "official",
        "value": "2.16.840.1.113883.4.6"
      } ],
      "name": "Community Health and Hospitals",
      "telecom": [ {
        "system": "phone",
        "value": " 555-555-5000",
        "use": "work"
      } ],
      "address": [ {
        "line": [ "1001 Village Avenue" ],
        "city": "Portland",
        "state": "OR",
        "postalCode": "99123",
        "country": "US"
      } ]
    }
  }, {
    "resource": {
      "resourceType": "Practitioner",
      "id": "98505a2f-2fd5-4943-b85b-e3651e422665",
      "identifier": [ {
        "use": "official",
        "system": "urn:oid:2.16.840.1.113883.4.6",
        "value": "99999999"
      } ],
      "name": [ {
        "family": "Seven",
        "given": [ "Henry" ],
        "suffix": [ "MD" ]
      } ],
      "telecom": [ {
        "system": "phone",
        "value": "555-555-1002",
        "use": "work"
      } ],
      "address": [ {
        "line": [ "1002 Healthcare Drive" ],
        "city": "Portland",
        "state": "OR",
        "postalCode": "99123",
        "country": "US"
      } ]
    }
  }, {
    "resource": {
      "resourceType": "Practitioner",
      "id": "427d07d1-5120-4560-87da-b18f358e08ee",
      "identifier": [ {
        "use": "official",
        "system": "http://hl7.org/fhir/sid/us-npi",
        "value": "999999999"
      } ],
      "name": [ {
        "family": "Seven",
        "given": [ "Henry" ]
      } ],
      "telecom": [ {
        "system": "phone",
        "value": "555-555-1002",
        "use": "work"
      } ],
      "address": [ {
        "line": [ "1001 Village Avenue" ],
        "city": "Portland",
        "state": "OR",
        "postalCode": "99123",
        "country": "US"
      } ]
    }
  }, {
    "resource": {
      "resourceType": "Practitioner",
      "id": "73faaf52-30e6-46e3-80e7-5cee81f09fe6",
      "identifier": [ {
        "use": "official",
        "system": "http://hl7.org/fhir/sid/us-npi",
        "value": "PseudoMD-1"
      } ],
      "name": [ {
        "family": "Seven",
        "given": [ "Henry" ],
        "suffix": [ "MD" ]
      } ],
      "telecom": [ {
        "system": "phone",
        "value": "+1-555-555-5000",
        "use": "home"
      } ],
      "address": [ {
        "line": [ "1001 Village Avenue" ],
        "city": "Portland",
        "state": "OR",
        "postalCode": "99123",
        "country": "US"
      } ]
    }
  }, {
    "resource": {
      "resourceType": "Organization",
      "id": "e17499e5-96b5-47cf-b9ec-26132d9773d9",
      "identifier": [ {
        "use": "official",
        "system": "urn:oid:2.16.840.1.113883.4.6",
        "value": "99999999"
      } ],
      "name": "Community Health and Hospitals",
      "telecom": [ {
        "system": "phone",
        "value": " 555-555-1002",
        "use": "work"
      } ],
      "address": [ {
        "use": "work",
        "line": [ "1002 Healthcare Drive" ],
        "city": "Portland",
        "state": "OR",
        "postalCode": "99123",
        "country": "US"
      } ]
    }
  }, {
    "resource": {
      "resourceType": "Observation",
      "id": "9f1696c6-1c26-4e04-81ee-a15c6780a8e9",
      "identifier": [ {
        "use": "official",
        "system": "urn:oid:2.16.840.1.113883.19",
        "value": "123456789"
      } ],
      "status": "final",
      "code": {
        "coding": [ {
          "system": "urn:oid:2.16.840.1.113883.5.4",
          "code": "ASSERTION"
        } ]
      },
      "subject": {
        "reference": "Patient/b3b5c668-6389-4069-9aee-0f7d04103bfb",
        "display": "Roger Peters"
      },
      "effectivePeriod": {
        "start": "2010-04-16T10:00:00+02:00"
      },
      "valueCodeableConcept": {
        "coding": [ {
          "system": "http://snomed.info/sct",
          "code": "266919005",
          "display": "Never smoker (Never Smoked)"
        }, {
          "system": "http://snomed.info/sct",
          "code": "449868002",
          "display": "Current every day smoker"
        } ]
      }
    }
  }, {
    "resource": {
      "resourceType": "AllergyIntolerance",
      "id": "474a8c57-0a53-4451-bb6a-9808d380d08a",
      "identifier": [ {
        "use": "official",
        "value": "36e3e930-7b14-11db-9fe1-0800200c9a66"
      } ],
      "clinicalStatus": {
        "coding": [ {
          "system": "http://terminology.hl7.org/CodeSystem/allergyintolerance-clinical",
          "code": "active",
          "display": "Active"
        } ]
      },
      "verificationStatus": {
        "coding": [ {
          "system": "http://terminology.hl7.org/CodeSystem/allergyintolerance-verification",
          "code": "confirmed",
          "display": "Confirmed"
        } ]
      },
      "type": "allergy",
      "category": [ "medication" ],
      "code": {
        "coding": [ {
          "system": "http://www.nlm.nih.gov/research/umls/rxnorm",
          "code": "866041",
          "display": "Neomycin Sulfate 500 MG"
        } ],
        "text": "Neomycin + Neomycin Sulfate 500 MG"
      },
      "patient": {
        "reference": "Patient/b3b5c668-6389-4069-9aee-0f7d04103bfb",
        "display": "Roger Peters"
      },
      "recordedDate": "2010-04-16T10:00:00+02:00"
    }
  }, {
    "resource": {
      "resourceType": "AllergyIntolerance",
      "id": "7ecca020-7e43-4ef2-b389-b8ffae9cb6e2",
      "identifier": [ {
        "use": "official",
        "value": "36e3e930-7b14-11db-9fe1-0800200c9a66"
      } ],
      "clinicalStatus": {
        "coding": [ {
          "system": "http://terminology.hl7.org/CodeSystem/allergyintolerance-clinical",
          "code": "active",
          "display": "Active"
        } ]
      },
      "verificationStatus": {
        "coding": [ {
          "system": "http://terminology.hl7.org/CodeSystem/allergyintolerance-verification",
          "code": "confirmed",
          "display": "Confirmed"
        } ]
      },
      "type": "allergy",
      "category": [ "medication" ],
      "code": {
        "coding": [ {
          "system": "urn:oid:2.16.840.1.113883.3.26.1.5",
          "code": "N0000006691",
          "display": "Codeine"
        } ],
        "text": "Codeine + Codeine"
      },
      "patient": {
        "reference": "Patient/b3b5c668-6389-4069-9aee-0f7d04103bfb",
        "display": "Roger Peters"
      },
      "recordedDate": "2010-04-16T10:00:00+02:00"
    }
  }, {
    "resource": {
      "resourceType": "AllergyIntolerance",
      "id": "f46288ac-d5d8-4a31-a059-4e00c6b45719",
      "identifier": [ {
        "use": "official",
        "value": "36e3e930-7b14-11db-9fe1-0800200c9a66"
      } ],
      "clinicalStatus": {
        "coding": [ {
          "system": "http://terminology.hl7.org/CodeSystem/allergyintolerance-clinical",
          "code": "active",
          "display": "Active"
        } ]
      },
      "verificationStatus": {
        "coding": [ {
          "system": "http://terminology.hl7.org/CodeSystem/allergyintolerance-verification",
          "code": "confirmed",
          "display": "Confirmed"
        } ]
      },
      "type": "allergy",
      "category": [ "food" ],
      "code": {
        "coding": [ {
          "system": "http://fdasis.nlm.nih.gov",
          "code": "291P45F896",
          "display": "Eggs"
        }, {
          "system": "urn:oid:2.16.840.1.113883.6.103",
          "code": "V15.03",
          "display": "Allergy to eggs"
        } ],
        "text": "Allergy to Eggs + Eggs"
      },
      "patient": {
        "reference": "Patient/b3b5c668-6389-4069-9aee-0f7d04103bfb",
        "display": "Roger Peters"
      },
      "recordedDate": "2010-04-16T10:00:00+02:00"
    }
  }, {
    "resource": {
      "resourceType": "Encounter",
      "id": "aefe7b01-97d3-426b-a703-10d934ce0537",
      "identifier": [ {
        "use": "official",
        "value": "2a620155-9d11-439e-92b3-5d9815ff4de8"
      } ],
      "status": "finished",
      "type": [ {
        "coding": [ {
          "system": "http://www.ama-assn.org/go/cpt",
          "code": "99213",
          "display": "Office/outpatient visit, est"
        }, {
          "system": "urn:oid:2.16.840.1.113883.6.103",
          "code": "V70.0",
          "display": "Routine general medical examination at a health care facility"
        } ]
      } ],
      "subject": {
        "reference": "Patient/b3b5c668-6389-4069-9aee-0f7d04103bfb",
        "display": "Roger Peters"
      },
      "period": {
        "start": "2010-08-02T10:00:00+02:00"
      }
    }
  }, {
    "resource": {
      "resourceType": "Encounter",
      "id": "1ee0466a-672e-4df2-a6ec-819e96bfbe70",
      "identifier": [ {
        "use": "official",
        "value": "2a620155-9d11-439e-92b3-5d9815ff4de8"
      } ],
      "status": "finished",
      "type": [ {
        "coding": [ {
          "system": "http://www.ama-assn.org/go/cpt",
          "code": "99213",
          "display": "Office/outpatient visit, est"
        }, {
          "system": "urn:oid:2.16.840.1.113883.6.103",
          "code": "V70.0",
          "display": "Routine general medical examination at a health care facility"
        } ]
      } ],
      "subject": {
        "reference": "Patient/b3b5c668-6389-4069-9aee-0f7d04103bfb",
        "display": "Roger Peters"
      },
      "period": {
        "start": "2010-04-16T10:00:00+02:00"
      },
      "reasonCode": [ {
        "coding": [ {
          "system": "http://snomed.info/sct",
          "code": "44054006",
          "display": "Diabetes"
        } ]
      } ],
      "reasonReference": [ {
        "reference": "Condition/13170e1b-8bf0-4444-9e5f-04f0b9803b40",
        "display": "Diabetes"
      } ]
    }
  }, {
    "resource": {
      "resourceType": "Condition",
      "id": "13170e1b-8bf0-4444-9e5f-04f0b9803b40",
      "identifier": [ {
        "use": "official",
        "system": "urn:uuid:db734647-fc99-424c-a864-7e3cda82e703",
        "value": "45665"
      } ],
      "clinicalStatus": {
        "coding": [ {
          "system": "http://terminology.hl7.org/CodeSystem/condition-clinical",
          "code": "active",
          "display": "Active"
        } ]
      },
      "category": [ {
        "coding": [ {
          "system": "http://hl7.org/fhir/condition-category",
          "code": "encounter-diagnosis",
          "display": "Encounter Diagnosis"
        } ]
      } ],
      "code": {
        "coding": [ {
          "system": "http://snomed.info/sct",
          "code": "44054006",
          "display": "Diabetes"
        }, {
          "system": "urn:oid:2.16.840.1.113883.6.90",
          "code": "E11.9",
          "display": "Type 2 diabetes mellitus without complications"
        }, {
          "system": "urn:oid:2.16.840.1.113883.6.103",
          "code": "250.00",
          "display": "Diabetes mellitus without mention of complication, type II or unspecified type, not stated as uncontrolled"
        } ]
      },
      "subject": {
        "reference": "Patient/b3b5c668-6389-4069-9aee-0f7d04103bfb",
        "display": "Roger Peters"
      },
      "onsetDateTime": "2010-04-16T10:00:00+02:00"
    }
  }, {
    "resource": {
      "resourceType": "Encounter",
      "id": "9ed148a8-b592-4e04-96b6-99931ef7da67",
      "identifier": [ {
        "use": "official",
        "value": "2a620155-9d11-439e-92b3-5d9815ff4de8"
      } ],
      "status": "finished",
      "type": [ {
        "coding": [ {
          "system": "http://www.ama-assn.org/go/cpt",
          "code": "99213",
          "display": "Office/outpatient visit, est"
        }, {
          "system": "urn:oid:2.16.840.1.113883.6.103",
          "code": "V70.0",
          "display": "Routine general medical examination at a health care facility"
        } ]
      } ],
      "subject": {
        "reference": "Patient/b3b5c668-6389-4069-9aee-0f7d04103bfb",
        "display": "Roger Peters"
      },
      "period": {
        "start": "2010-12-02T10:00:00+01:00"
      }
    }
  }, {
    "resource": {
      "resourceType": "Observation",
      "id": "bb91eb73-e5a7-407a-b090-bd0ec4d79774",
      "identifier": [ {
        "use": "official",
        "value": "c6f88321-67ad-11db-bd13-0800200c9a66"
      } ],
      "status": "final",
      "category": [ {
        "coding": [ {
          "system": "http://terminology.hl7.org/CodeSystem/observation-category",
          "code": "vital-signs",
          "display": "Vital Signs"
        } ]
      } ],
      "code": {
        "coding": [ {
          "system": "http://loinc.org",
          "code": "8462-4",
          "display": "BP Diastolic"
        } ]
      },
      "subject": {
        "reference": "Patient/b3b5c668-6389-4069-9aee-0f7d04103bfb",
        "display": "Roger Peters"
      },
      "effectivePeriod": {
        "start": "2010-08-02T10:00:00+02:00"
      },
      "valueQuantity": {
        "value": 78,
        "unit": "mm[Hg]",
        "system": "http://unitsofmeasure.org",
        "code": "mm[Hg]"
      }
    }
  }, {
    "resource": {
      "resourceType": "Observation",
      "id": "b2fc78d1-6d6f-46c1-901b-7f9502eeb94d",
      "identifier": [ {
        "use": "official",
        "value": "c6f88321-67ad-11db-bd13-0800200c9a66"
      } ],
      "status": "final",
      "category": [ {
        "coding": [ {
          "system": "http://terminology.hl7.org/CodeSystem/observation-category",
          "code": "vital-signs",
          "display": "Vital Signs"
        } ]
      } ],
      "code": {
        "coding": [ {
          "system": "http://loinc.org",
          "code": "8480-6",
          "display": "BP Systolic"
        } ]
      },
      "subject": {
        "reference": "Patient/b3b5c668-6389-4069-9aee-0f7d04103bfb",
        "display": "Roger Peters"
      },
      "effectivePeriod": {
        "start": "2010-08-02T10:00:00+02:00"
      },
      "valueQuantity": {
        "value": 122,
        "unit": "mm[Hg]",
        "system": "http://unitsofmeasure.org",
        "code": "mm[Hg]"
      }
    }
  }, {
    "resource": {
      "resourceType": "Observation",
      "id": "5c9f359c-4c7b-4bfb-b199-9a5f4ac6152d",
      "identifier": [ {
        "use": "official",
        "value": "c6f88321-67ad-11db-bd13-0800200c9a66"
      } ],
      "status": "final",
      "category": [ {
        "coding": [ {
          "system": "http://terminology.hl7.org/CodeSystem/observation-category",
          "code": "vital-signs",
          "display": "Vital Signs"
        } ]
      } ],
      "code": {
        "coding": [ {
          "system": "http://loinc.org",
          "code": "8462-4",
          "display": "BP Diastolic"
        } ]
      },
      "subject": {
        "reference": "Patient/b3b5c668-6389-4069-9aee-0f7d04103bfb",
        "display": "Roger Peters"
      },
      "effectivePeriod": {
        "start": "2010-04-16T10:00:00+02:00"
      },
      "valueQuantity": {
        "value": 76,
        "unit": "mm[Hg]",
        "system": "http://unitsofmeasure.org",
        "code": "mm[Hg]"
      }
    }
  }, {
    "resource": {
      "resourceType": "Observation",
      "id": "0915c900-3efe-4948-95ef-6ef483519bc2",
      "identifier": [ {
        "use": "official",
        "value": "c6f88321-67ad-11db-bd13-0800200c9a66"
      } ],
      "status": "final",
      "category": [ {
        "coding": [ {
          "system": "http://terminology.hl7.org/CodeSystem/observation-category",
          "code": "vital-signs",
          "display": "Vital Signs"
        } ]
      } ],
      "code": {
        "coding": [ {
          "system": "http://loinc.org",
          "code": "8480-6",
          "display": "BP Systolic"
        } ]
      },
      "subject": {
        "reference": "Patient/b3b5c668-6389-4069-9aee-0f7d04103bfb",
        "display": "Roger Peters"
      },
      "effectivePeriod": {
        "start": "2010-04-16T10:00:00+02:00"
      },
      "valueQuantity": {
        "value": 118,
        "unit": "mm[Hg]",
        "system": "http://unitsofmeasure.org",
        "code": "mm[Hg]"
      }
    }
  }, {
    "resource": {
      "resourceType": "Observation",
      "id": "b8276d97-b88c-4f2a-b9f8-0bfb14933b77",
      "identifier": [ {
        "use": "official",
        "value": "c6f88321-67ad-11db-bd13-0800200c9a66"
      } ],
      "status": "final",
      "category": [ {
        "coding": [ {
          "system": "http://terminology.hl7.org/CodeSystem/observation-category",
          "code": "vital-signs",
          "display": "Vital Signs"
        } ]
      } ],
      "code": {
        "coding": [ {
          "system": "http://loinc.org",
          "code": "39156-5",
          "display": "BMI"
        } ]
      },
      "subject": {
        "reference": "Patient/b3b5c668-6389-4069-9aee-0f7d04103bfb",
        "display": "Roger Peters"
      },
      "effectivePeriod": {
        "start": "2010-04-16T10:00:00+02:00"
      },
      "valueQuantity": {
        "value": 39.9,
        "unit": "kg/m2",
        "system": "http://unitsofmeasure.org",
        "code": "kg/m2"
      }
    }
  }, {
    "resource": {
      "resourceType": "Observation",
      "id": "9454f272-137e-4e69-9f1d-d38e82b1ac00",
      "identifier": [ {
        "use": "official",
        "value": "c6f88321-67ad-11db-bd13-0800200c9a66"
      } ],
      "status": "final",
      "category": [ {
        "coding": [ {
          "system": "http://terminology.hl7.org/CodeSystem/observation-category",
          "code": "vital-signs",
          "display": "Vital Signs"
        } ]
      } ],
      "code": {
        "coding": [ {
          "system": "http://loinc.org",
          "code": "39156-5",
          "display": "BMI"
        } ]
      },
      "subject": {
        "reference": "Patient/b3b5c668-6389-4069-9aee-0f7d04103bfb",
        "display": "Roger Peters"
      },
      "effectivePeriod": {
        "start": "2010-12-02T10:00:00+01:00"
      },
      "valueQuantity": {
        "value": 38.4,
        "unit": "kg/m2",
        "system": "http://unitsofmeasure.org",
        "code": "kg/m2"
      }
    }
  }, {
    "resource": {
      "resourceType": "Observation",
      "id": "2d58ba50-9df9-4f9f-bdab-080b8e36e476",
      "identifier": [ {
        "use": "official",
        "value": "c6f88321-67ad-11db-bd13-0800200c9a66"
      } ],
      "status": "final",
      "category": [ {
        "coding": [ {
          "system": "http://terminology.hl7.org/CodeSystem/observation-category",
          "code": "vital-signs",
          "display": "Vital Signs"
        } ]
      } ],
      "code": {
        "coding": [ {
          "system": "http://loinc.org",
          "code": "8480-6",
          "display": "BP Systolic"
        } ]
      },
      "subject": {
        "reference": "Patient/b3b5c668-6389-4069-9aee-0f7d04103bfb",
        "display": "Roger Peters"
      },
      "effectivePeriod": {
        "start": "2010-12-02T10:00:00+01:00"
      },
      "valueQuantity": {
        "value": 120,
        "unit": "mm[Hg]",
        "system": "http://unitsofmeasure.org",
        "code": "mm[Hg]"
      }
    }
  }, {
    "resource": {
      "resourceType": "Observation",
      "id": "6e90d58a-27c8-4b03-8ebf-2213a294c744",
      "identifier": [ {
        "use": "official",
        "value": "c6f88321-67ad-11db-bd13-0800200c9a66"
      } ],
      "status": "final",
      "category": [ {
        "coding": [ {
          "system": "http://terminology.hl7.org/CodeSystem/observation-category",
          "code": "vital-signs",
          "display": "Vital Signs"
        } ]
      } ],
      "code": {
        "coding": [ {
          "system": "http://loinc.org",
          "code": "8462-4",
          "display": "BP Diastolic"
        } ]
      },
      "subject": {
        "reference": "Patient/b3b5c668-6389-4069-9aee-0f7d04103bfb",
        "display": "Roger Peters"
      },
      "effectivePeriod": {
        "start": "2010-12-02T10:00:00+01:00"
      },
      "valueQuantity": {
        "value": 80,
        "unit": "mm[Hg]",
        "system": "http://unitsofmeasure.org",
        "code": "mm[Hg]"
      }
    }
  }, {
    "resource": {
      "resourceType": "DiagnosticReport",
      "id": "4b00137a-d31e-4d71-b127-baa5ea48af04",
      "identifier": [ {
        "use": "official",
        "value": "7d5a02b0-67a4-11db-bd13-0800200c9a66"
      } ],
      "status": "final",
      "category": [ {
        "coding": [ {
          "system": "http://terminology.hl7.org/CodeSystem/v2-0074",
          "code": "LAB",
          "display": "Laboratory"
        } ]
      } ],
      "code": {
        "coding": [ {
          "system": "http://snomed.info/sct",
          "code": "166312007",
          "display": "Blood Chemistry"
        } ]
      },
      "subject": {
        "reference": "Patient/b3b5c668-6389-4069-9aee-0f7d04103bfb",
        "display": "Roger Peters"
      },
      "result": [ {
        "reference": "Observation/26b41be8-dfcc-46a1-99ea-45a429187093",
        "display": "Hgb A1c MFr Bld"
      } ]
    }
  }, {
    "resource": {
      "resourceType": "Observation",
      "id": "26b41be8-dfcc-46a1-99ea-45a429187093",
      "identifier": [ {
        "use": "official",
        "value": "107c2dc0-67a5-11db-bd13-0800200c9a66"
      } ],
      "status": "final",
      "category": [ {
        "coding": [ {
          "system": "http://terminology.hl7.org/CodeSystem/observation-category",
          "code": "laboratory"
        } ]
      } ],
      "code": {
        "coding": [ {
          "system": "http://loinc.org",
          "code": "4548-4",
          "display": "Hgb A1c MFr Bld"
        }, {
          "system": "http://www.ama-assn.org/go/cpt",
          "code": "83036",
          "display": "Glycated hemoglobin test"
        }, {
          "system": "http://snomed.info/sct",
          "code": "43396009",
          "display": "Hemoglobin A1c measurement"
        } ]
      },
      "subject": {
        "reference": "Patient/b3b5c668-6389-4069-9aee-0f7d04103bfb",
        "display": "Roger Peters"
      },
      "effectivePeriod": {
        "start": "2010-04-16T10:00:00+02:00"
      },
      "valueQuantity": {
        "value": 6.3,
        "unit": "%",
        "system": "http://unitsofmeasure.org",
        "code": "%"
      },
      "interpretation": [ {
        "coding": [ {
          "system": "http://terminology.hl7.org/CodeSystem/v3-ObservationInterpretation",
          "code": "N"
        } ]
      } ],
      "referenceRange": [ {
        "text": "4-5.6%"
      } ]
    }
  }, {
    "resource": {
      "resourceType": "DiagnosticReport",
      "id": "f94985a9-d0d5-4bed-9634-e794e993777e",
      "identifier": [ {
        "use": "official",
        "value": "7d5a02b0-67a4-11db-bd13-0800200c9a66"
      } ],
      "status": "final",
      "category": [ {
        "coding": [ {
          "system": "http://terminology.hl7.org/CodeSystem/v2-0074",
          "code": "LAB",
          "display": "Laboratory"
        } ]
      } ],
      "code": {
        "coding": [ {
          "system": "http://snomed.info/sct",
          "code": "16254007",
          "display": "Lipid Panel"
        } ]
      },
      "subject": {
        "reference": "Patient/b3b5c668-6389-4069-9aee-0f7d04103bfb",
        "display": "Roger Peters"
      },
      "result": [ {
        "reference": "Observation/e68cfa8f-2792-41f4-8b8c-79e47e041f5e",
        "display": "HDLc SerPl-sCnc"
      }, {
        "reference": "Observation/e3f1e2c7-3e67-4662-85e2-d140d37bbe4a",
        "display": "Cholest SerPl-mCnc"
      }, {
        "reference": "Observation/b356ce98-9297-45dc-b03a-3d994528cbd8",
        "display": "Trigl SerPl Calc-mCnc"
      }, {
        "reference": "Observation/a7cabda7-13e4-4651-9f6c-401982240d98",
        "display": "LDLc SerPl-mCnc"
      } ]
    }
  }, {
    "resource": {
      "resourceType": "Observation",
      "id": "e68cfa8f-2792-41f4-8b8c-79e47e041f5e",
      "identifier": [ {
        "use": "official",
        "value": "107c2dc0-67a5-11db-bd13-0800200c9a66"
      } ],
      "status": "final",
      "category": [ {
        "coding": [ {
          "system": "http://terminology.hl7.org/CodeSystem/observation-category",
          "code": "laboratory"
        } ]
      } ],
      "code": {
        "coding": [ {
          "system": "http://loinc.org",
          "code": "14646-4",
          "display": "HDLc SerPl-sCnc"
        }, {
          "system": "http://www.ama-assn.org/go/cpt",
          "code": "83701",
          "display": "Lipoprotein bld, hr fraction"
        }, {
          "system": "http://snomed.info/sct",
          "code": "28036006",
          "display": "High density lipoprotein cholesterol measurement"
        } ]
      },
      "subject": {
        "reference": "Patient/b3b5c668-6389-4069-9aee-0f7d04103bfb",
        "display": "Roger Peters"
      },
      "effectivePeriod": {
        "start": "2010-04-16T10:00:00+02:00"
      },
      "valueQuantity": {
        "value": 56,
        "unit": "mg/dL",
        "system": "http://unitsofmeasure.org",
        "code": "mg/dL"
      },
      "interpretation": [ {
        "coding": [ {
          "system": "http://terminology.hl7.org/CodeSystem/v3-ObservationInterpretation",
          "code": "N"
        } ]
      } ],
      "referenceRange": [ {
        "text": ">=40 mg/dL"
      } ]
    }
  }, {
    "resource": {
      "resourceType": "Observation",
      "id": "e3f1e2c7-3e67-4662-85e2-d140d37bbe4a",
      "identifier": [ {
        "use": "official",
        "value": "107c2dc0-67a5-11db-bd13-0800200c9a66"
      } ],
      "status": "final",
      "category": [ {
        "coding": [ {
          "system": "http://terminology.hl7.org/CodeSystem/observation-category",
          "code": "laboratory"
        } ]
      } ],
      "code": {
        "coding": [ {
          "system": "http://loinc.org",
          "code": "2093-3",
          "display": "Cholest SerPl-mCnc"
        }, {
          "system": "http://www.ama-assn.org/go/cpt",
          "code": "82465",
          "display": "Assay, bld/serum cholesterol"
        }, {
          "system": "http://snomed.info/sct",
          "code": "121868005",
          "display": "Total cholesterol measurement"
        } ]
      },
      "subject": {
        "reference": "Patient/b3b5c668-6389-4069-9aee-0f7d04103bfb",
        "display": "Roger Peters"
      },
      "effectivePeriod": {
        "start": "2010-04-16T10:00:00+02:00"
      },
      "valueQuantity": {
        "value": 168,
        "unit": "mg/dL",
        "system": "http://unitsofmeasure.org",
        "code": "mg/dL"
      },
      "interpretation": [ {
        "coding": [ {
          "system": "http://terminology.hl7.org/CodeSystem/v3-ObservationInterpretation",
          "code": "N"
        } ]
      } ],
      "referenceRange": [ {
        "text": "125-200 mg/dL"
      } ]
    }
  }, {
    "resource": {
      "resourceType": "Observation",
      "id": "b356ce98-9297-45dc-b03a-3d994528cbd8",
      "identifier": [ {
        "use": "official",
        "value": "107c2dc0-67a5-11db-bd13-0800200c9a66"
      } ],
      "status": "final",
      "category": [ {
        "coding": [ {
          "system": "http://terminology.hl7.org/CodeSystem/observation-category",
          "code": "laboratory"
        } ]
      } ],
      "code": {
        "coding": [ {
          "system": "http://loinc.org",
          "code": "12951-0",
          "display": "Trigl SerPl Calc-mCnc"
        }, {
          "system": "http://www.ama-assn.org/go/cpt",
          "code": "84478",
          "display": "Assay of triglycerides"
        }, {
          "system": "http://snomed.info/sct",
          "code": "14740000",
          "display": "Triglycerides measurement"
        } ]
      },
      "subject": {
        "reference": "Patient/b3b5c668-6389-4069-9aee-0f7d04103bfb",
        "display": "Roger Peters"
      },
      "effectivePeriod": {
        "start": "2010-04-16T10:00:00+02:00"
      },
      "valueQuantity": {
        "value": 84,
        "unit": "mg/dL",
        "system": "http://unitsofmeasure.org",
        "code": "mg/dL"
      },
      "interpretation": [ {
        "coding": [ {
          "system": "http://terminology.hl7.org/CodeSystem/v3-ObservationInterpretation",
          "code": "N"
        } ]
      } ],
      "referenceRange": [ {
        "text": "10-39 years: 55-110 mg/dL | 40-59 years: 70-150 mg/dL | >60 years: 80-150 mg/dL | Therapeutic Target: <100 mg/dL "
      } ]
    }
  }, {
    "resource": {
      "resourceType": "Observation",
      "id": "a7cabda7-13e4-4651-9f6c-401982240d98",
      "identifier": [ {
        "use": "official",
        "value": "107c2dc0-67a5-11db-bd13-0800200c9a66"
      } ],
      "status": "final",
      "category": [ {
        "coding": [ {
          "system": "http://terminology.hl7.org/CodeSystem/observation-category",
          "code": "laboratory"
        } ]
      } ],
      "code": {
        "coding": [ {
          "system": "http://loinc.org",
          "code": "2089-1",
          "display": "LDLc SerPl-mCnc"
        }, {
          "system": "http://www.ama-assn.org/go/cpt",
          "code": "83721",
          "display": "Assay of blood lipoprotein"
        }, {
          "system": "http://snomed.info/sct",
          "code": "113079009",
          "display": "Low density lipoprotein cholesterol measurement"
        } ]
      },
      "subject": {
        "reference": "Patient/b3b5c668-6389-4069-9aee-0f7d04103bfb",
        "display": "Roger Peters"
      },
      "effectivePeriod": {
        "start": "2010-04-16T10:00:00+02:00"
      },
      "valueQuantity": {
        "value": 95.2,
        "unit": "mg/dL",
        "system": "http://unitsofmeasure.org",
        "code": "mg/dL"
      },
      "interpretation": [ {
        "coding": [ {
          "system": "http://terminology.hl7.org/CodeSystem/v3-ObservationInterpretation",
          "code": "N"
        } ]
      } ],
      "referenceRange": [ {
        "text": "<130 mg/dL (calc)"
      } ]
    }
  }, {
    "resource": {
      "resourceType": "DiagnosticReport",
      "id": "97142e9e-63f2-42d9-a492-0cdc8f836139",
      "identifier": [ {
        "use": "official",
        "value": "7d5a02b0-67a4-11db-bd13-0800200c9a66"
      } ],
      "status": "final",
      "category": [ {
        "coding": [ {
          "system": "http://terminology.hl7.org/CodeSystem/v2-0074",
          "code": "LAB",
          "display": "Laboratory"
        } ]
      } ],
      "code": {
        "coding": [ {
          "system": "http://snomed.info/sct",
          "code": "166312007",
          "display": "Blood Chemistry"
        } ]
      },
      "subject": {
        "reference": "Patient/b3b5c668-6389-4069-9aee-0f7d04103bfb",
        "display": "Roger Peters"
      },
      "result": [ {
        "reference": "Observation/6c22b91c-a4de-4360-aee1-82d696719d06",
        "display": "Hgb A1c MFr Bld"
      } ]
    }
  }, {
    "resource": {
      "resourceType": "Observation",
      "id": "6c22b91c-a4de-4360-aee1-82d696719d06",
      "identifier": [ {
        "use": "official",
        "value": "107c2dc0-67a5-11db-bd13-0800200c9a66"
      } ],
      "status": "final",
      "category": [ {
        "coding": [ {
          "system": "http://terminology.hl7.org/CodeSystem/observation-category",
          "code": "laboratory"
        } ]
      } ],
      "code": {
        "coding": [ {
          "system": "http://loinc.org",
          "code": "4548-4",
          "display": "Hgb A1c MFr Bld"
        }, {
          "system": "http://www.ama-assn.org/go/cpt",
          "code": "83036",
          "display": "Glycated hemoglobin test"
        }, {
          "system": "http://snomed.info/sct",
          "code": "43396009",
          "display": "Hemoglobin A1c measurement"
        } ]
      },
      "subject": {
        "reference": "Patient/b3b5c668-6389-4069-9aee-0f7d04103bfb",
        "display": "Roger Peters"
      },
      "effectivePeriod": {
        "start": "2010-12-02T10:00:00+01:00"
      },
      "valueQuantity": {
        "value": 7.2,
        "unit": "%",
        "system": "http://unitsofmeasure.org",
        "code": "%"
      },
      "interpretation": [ {
        "coding": [ {
          "system": "http://terminology.hl7.org/CodeSystem/v3-ObservationInterpretation",
          "code": "N"
        } ]
      } ],
      "referenceRange": [ {
        "text": "4-5.6%"
      } ]
    }
  }, {
    "resource": {
      "resourceType": "DiagnosticReport",
      "id": "126bd1ad-96a0-4976-b1c5-da7371194f73",
      "identifier": [ {
        "use": "official",
        "value": "7d5a02b0-67a4-11db-bd13-0800200c9a66"
      } ],
      "status": "final",
      "category": [ {
        "coding": [ {
          "system": "http://terminology.hl7.org/CodeSystem/v2-0074",
          "code": "LAB",
          "display": "Laboratory"
        } ]
      } ],
      "code": {
        "coding": [ {
          "system": "http://snomed.info/sct",
          "code": "27171005",
          "display": "Urinalysis"
        } ]
      },
      "subject": {
        "reference": "Patient/b3b5c668-6389-4069-9aee-0f7d04103bfb",
        "display": "Roger Peters"
      },
      "result": [ {
        "reference": "Observation/2200a64f-2f96-4892-baf4-a8cbc5d01b2d",
        "display": "Prot Ur Strip.auto-mCnc"
      } ]
    }
  }, {
    "resource": {
      "resourceType": "Observation",
      "id": "2200a64f-2f96-4892-baf4-a8cbc5d01b2d",
      "identifier": [ {
        "use": "official",
        "value": "107c2dc0-67a5-11db-bd13-0800200c9a66"
      } ],
      "status": "final",
      "category": [ {
        "coding": [ {
          "system": "http://terminology.hl7.org/CodeSystem/observation-category",
          "code": "laboratory"
        } ]
      } ],
      "code": {
        "coding": [ {
          "system": "http://loinc.org",
          "code": "50561-0",
          "display": "Prot Ur Strip.auto-mCnc"
        }, {
          "system": "http://www.ama-assn.org/go/cpt",
          "code": "84156",
          "display": "Assay of protein urine"
        }, {
          "system": "http://snomed.info/sct",
          "code": "57378007",
          "display": "Protein measurement, urine"
        } ]
      },
      "subject": {
        "reference": "Patient/b3b5c668-6389-4069-9aee-0f7d04103bfb",
        "display": "Roger Peters"
      },
      "effectivePeriod": {
        "start": "2010-04-16T10:00:00+02:00"
      },
      "valueCodeableConcept": {
        "coding": [ {
          "system": "http://snomed.info/sct",
          "code": "260385009",
          "display": "negative"
        } ]
      },
      "interpretation": [ {
        "coding": [ {
          "system": "http://terminology.hl7.org/CodeSystem/v3-ObservationInterpretation",
          "code": "N"
        } ]
      } ],
      "referenceRange": [ {
        "text": "3.6-5.1 mg/dL"
      } ]
    }
  }, {
    "resource": {
      "resourceType": "DiagnosticReport",
      "id": "c87d4c22-779a-47d7-9ee3-7b85f6db4659",
      "identifier": [ {
        "use": "official",
        "value": "7d5a02b0-67a4-11db-bd13-0800200c9a66"
      } ],
      "status": "final",
      "category": [ {
        "coding": [ {
          "system": "http://terminology.hl7.org/CodeSystem/v2-0074",
          "code": "LAB",
          "display": "Laboratory"
        } ]
      } ],
      "code": {
        "coding": [ {
          "system": "http://snomed.info/sct",
          "code": "166312007",
          "display": "Blood Chemistry"
        } ]
      },
      "subject": {
        "reference": "Patient/b3b5c668-6389-4069-9aee-0f7d04103bfb",
        "display": "Roger Peters"
      },
      "result": [ {
        "reference": "Observation/027490bb-04ef-4739-b043-f364fc210d7f",
        "display": "Hgb A1c MFr Bld"
      } ]
    }
  }, {
    "resource": {
      "resourceType": "Observation",
      "id": "027490bb-04ef-4739-b043-f364fc210d7f",
      "identifier": [ {
        "use": "official",
        "value": "107c2dc0-67a5-11db-bd13-0800200c9a66"
      } ],
      "status": "final",
      "category": [ {
        "coding": [ {
          "system": "http://terminology.hl7.org/CodeSystem/observation-category",
          "code": "laboratory"
        } ]
      } ],
      "code": {
        "coding": [ {
          "system": "http://loinc.org",
          "code": "4548-4",
          "display": "Hgb A1c MFr Bld"
        }, {
          "system": "http://www.ama-assn.org/go/cpt",
          "code": "83036",
          "display": "Glycated hemoglobin test"
        }, {
          "system": "http://snomed.info/sct",
          "code": "43396009",
          "display": "Hemoglobin A1c measurement"
        } ]
      },
      "subject": {
        "reference": "Patient/b3b5c668-6389-4069-9aee-0f7d04103bfb",
        "display": "Roger Peters"
      },
      "effectivePeriod": {
        "start": "2010-08-02T10:00:00+02:00"
      },
      "valueQuantity": {
        "value": 7.5,
        "unit": "%",
        "system": "http://unitsofmeasure.org",
        "code": "%"
      },
      "interpretation": [ {
        "coding": [ {
          "system": "http://terminology.hl7.org/CodeSystem/v3-ObservationInterpretation",
          "code": "N"
        } ]
      } ],
      "referenceRange": [ {
        "text": "4-5.6%"
      } ]
    }
  }, {
    "resource": {
      "resourceType": "Condition",
      "id": "fc263a79-7f3e-48d0-af61-7bb7fb9a1a07",
      "identifier": [ {
        "use": "official",
        "value": "9d3d416d-45ab-4da1-912f-4583e0632000"
      } ],
      "clinicalStatus": {
        "coding": [ {
          "system": "http://terminology.hl7.org/CodeSystem/condition-clinical",
          "code": "active",
          "display": "Active"
        } ]
      },
      "verificationStatus": {
        "coding": [ {
          "system": "http://terminology.hl7.org/CodeSystem/condition-ver-status",
          "code": "confirmed",
          "display": "Confirmed"
        } ]
      },
      "category": [ {
        "coding": [ {
          "system": "http://terminology.hl7.org/CodeSystem/condition-category",
          "code": "problem-list-item",
          "display": "Problem List Item"
        } ]
      } ],
      "code": {
        "coding": [ {
          "system": "http://snomed.info/sct",
          "code": "44054006",
          "display": "Diabetes mellitus type 2"
        }, {
          "system": "urn:oid:2.16.840.1.113883.6.90",
          "code": "E11.9",
          "display": "Type 2 diabetes mellitus without complications"
        }, {
          "system": "urn:oid:2.16.840.1.113883.6.103",
          "code": "250.00",
          "display": "Diabetes mellitus without mention of complication, type II or unspecified type, not stated as uncontrolled"
        } ]
      },
      "subject": {
        "reference": "Patient/b3b5c668-6389-4069-9aee-0f7d04103bfb",
        "display": "Roger Peters"
      },
      "onsetDateTime": "2010-04-16T10:00:00+02:00"
    }
  }, {
    "resource": {
      "resourceType": "MedicationStatement",
      "id": "a44463e6-f2ea-4d66-82ce-edfe1713548d",
      "extension": [ {
        "url": "http://hl7.org/fhir/3.0/StructureDefinition/extension-MedicationStatement.status",
        "valueCode": "UNKNOWN"
      } ],
      "identifier": [ {
        "use": "official",
        "value": "cdbd33f0-6cde-11db-9fe1-0800200c9a66"
      } ],
      "status": "completed",
      "medicationReference": {
        "reference": "Medication/8616799a-7513-44b8-b51f-331f523faade",
        "display": "24 HR Nicotine 0.313 MG/HR Transdermal Patch"
      },
      "subject": {
        "reference": "Patient/b3b5c668-6389-4069-9aee-0f7d04103bfb",
        "display": "Roger Peters"
      },
      "effectivePeriod": {
        "start": "2010-04-16T10:00:00+02:00"
      }
    }
  }, {
    "resource": {
      "resourceType": "Medication",
      "id": "8616799a-7513-44b8-b51f-331f523faade",
      "code": {
        "coding": [ {
          "system": "http://www.nlm.nih.gov/research/umls/rxnorm",
          "code": "1046847",
          "display": "24 HR Nicotine 0.313 MG/HR Transdermal Patch"
        } ]
      }
    }
  }, {
    "resource": {
      "resourceType": "MedicationStatement",
      "id": "098d10de-bfc6-42bf-ae93-41710b3020aa",
      "extension": [ {
        "url": "http://hl7.org/fhir/3.0/StructureDefinition/extension-MedicationStatement.status",
        "valueCode": "UNKNOWN"
      } ],
      "identifier": [ {
        "use": "official",
        "value": "cdbd33f0-6cde-11db-9fe1-0800200c9a66"
      } ],
      "status": "completed",
      "medicationReference": {
        "reference": "Medication/3ba72cb2-3710-4ae8-939f-d61d74e5951a",
        "display": "Glyburide 2.5 MG / Metformin hydrochloride 500 MG Oral Tablet"
      },
      "subject": {
        "reference": "Patient/b3b5c668-6389-4069-9aee-0f7d04103bfb",
        "display": "Roger Peters"
      },
      "effectivePeriod": {
        "start": "2010-04-16T10:00:00+02:00"
      }
    }
  }, {
    "resource": {
      "resourceType": "Medication",
      "id": "3ba72cb2-3710-4ae8-939f-d61d74e5951a",
      "code": {
        "coding": [ {
          "system": "http://www.nlm.nih.gov/research/umls/rxnorm",
          "code": "861748",
          "display": "Glyburide 2.5 MG / Metformin hydrochloride 500 MG Oral Tablet"
        } ]
      }
    }
  } ]
}