{
  "resourceType": "Bundle",
  "entry": [ {
    "resource": {
      "resourceType": "Composition",
      "id": "7aaeed69-ed9c-4e9b-9f11-e15e08fb19f3",
      "identifier": {
        "use": "official",
        "value": "db734647-fc99-424c-a864-7e3cda82e703"
      },
      "status": "preliminary",
      "type": {
        "coding": [ {
          "system": "http://loinc.org",
          "code": "34133-9",
          "display": "Summarization of Episode Note"
        } ]
      },
      "category": [ {
        "coding": [ {
          "system": "http://hl7.org/fhir/ValueSet/doc-classcodes",
          "code": "LP173421-7",
          "display": "Note"
        } ]
      } ],
      "subject": {
        "reference": "Patient/c332a984-7b39-4d9c-be86-431904cb5d99",
        "display": "Andrea Simmons"
      },
      "date": "2014-04-16T11:54:47+02:00",
      "author": [ {
        "reference": "Practitioner/ff0aace4-87f8-4c46-aaf6-1a144585bb38",
        "display": "Henry Seven MD"
      } ],
      "title": "Community Health and Hospitals: Health Summary",
      "confidentiality": "N",
      "attester": [ {
        "mode": "legal",
        "time": "2013-04-18T09:00:00+05:00",
        "party": {
          "reference": "Practitioner/b69f7ea2-0fe2-4b63-afb8-d40a88dd5a36",
          "display": "Henry Seven"
        }
      }, {
        "mode": "professional",
        "time": "2014-04-16T11:54:47+02:00",
        "party": {
          "reference": "Practitioner/b69f7ea2-0fe2-4b63-afb8-d40a88dd5a36",
          "display": "Henry Seven"
        }
      } ],
      "custodian": {
        "reference": "Organization/3314fa81-a0a7-4234-9447-eb34d7b60ea3",
        "display": "Community Health and Hospitals"
      },
      "event": [ {
        "period": {
          "start": "2010-03-15T10:00:00+01:00",
          "end": "2010-11-18T10:00:00+01:00"
        },
        "detail": [ {
          "reference": "Practitioner/d0979b14-e1df-48a3-8f2e-dde3de23b458",
          "display": "Henry Seven MD"
        } ]
      } ],
      "section": [ {
        "title": "Problems",
        "code": {
          "coding": [ {
            "system": "http://loinc.org",
            "code": "11450-4",
            "display": "PROBLEM LIST"
          } ]
        },
        "text": {
          "status": "additional",
          "div": "<div xmlns=\"http://www.w3.org/1999/xhtml\"><table><thead><tr><th>Group Description</th><th>Code System</th><th>Code</th><th>Code Description</th><th>Date and Time</th><th>Status</th></tr></thead><tbody><tr><td>Estimated Date of Conception</td><td>SNOMED-CT</td><td>248986005</td><td><span/>Estimated date of conception</td><td>03-15-2010 10:00:00</td><td>Active</td></tr><tr><td>Pregnancy</td><td>SNOMED-CT</td><td>315903005</td><td><span/>Pregnant state, incidental</td><td>03-31-2010 10:00:00</td><td>Active</td></tr><tr><td/><td>ICD-10-CM</td><td>Z33.1</td><td>Pregnant state, incidental</td><td/><td/></tr><tr><td/><td>ICD-9-CM</td><td>V22.2</td><td>Pregnant state, incidental</td><td/><td/></tr><tr><td>Gestational Diabetes</td><td>SNOMED-CT</td><td>11687002</td><td><span/>Gestational diabetes mellitus</td><td>09-20-2010 10:00:00</td><td>Active</td></tr><tr><td/><td>ICD-10-CM</td><td>O24.4</td><td>Gestational diabetes mellitus</td><td/><td/></tr><tr><td/><td>ICD-9-CM</td><td>648.80</td><td>Abnormal glucose tolerance of mother, unspecified as to episode of care or not applicable</td><td/><td/></tr><tr><td>Pregnancy-related diagnosis</td><td>SNOMED-CT</td><td>199305006</td><td><span/>Complications specific to multiple gestation</td><td>11-16-2010 10:00:00</td><td>Active</td></tr><tr><td/><td>ICD-10-CM</td><td>O30</td><td>Multiple gestation</td><td/><td/></tr><tr><td/><td>ICD-9-CM</td><td>651.90</td><td>Unspecified multiple gestation, unspecified as to episode of care or not applicable</td><td/><td/></tr></tbody></table></div>"
        },
        "mode": "snapshot",
        "entry": [ {
          "reference": "Condition/76c0e26d-5645-43d4-8676-f55b3d2efe61",
          "display": "Gestational diabetes mellitus"
        } ]
      }, {
        "title": "Medications",
        "code": {
          "coding": [ {
            "system": "http://loinc.org",
            "code": "10160-0",
            "display": "History of Medication Use"
          } ]
        },
        "text": {
          "status": "additional",
          "div": "<div xmlns=\"http://www.w3.org/1999/xhtml\"><table><thead><tr><th>Group Description</th><th>Code System</th><th>Code</th><th>Code Description</th><th>Date and Time</th><th>Status</th></tr></thead><tbody><tr><td>Insulin</td><td>RxNorm</td><td>847207</td><td><span/>3 ML Insulin Lispro 100 UNT/ML Prefilled Syringe</td><td>09-20-2010 10:00:00</td><td>Active</td></tr></tbody></table></div>"
        },
        "mode": "snapshot",
        "entry": [ {
          "reference": "MedicationStatement/0d245b3f-26a4-4241-b0b6-788b514098c5",
          "display": "3 ML Insulin Lispro 100 UNT/ML Prefilled Syringe"
        } ]
      }, {
        "title": "Encounters",
        "code": {
          "coding": [ {
            "system": "http://loinc.org",
            "code": "46240-8",
            "display": "History of encounters"
          } ]
        },
        "text": {
          "status": "additional",
          "div": "<div xmlns=\"http://www.w3.org/1999/xhtml\"><table><thead><tr><th>Group Description</th><th>Code System</th><th>Code</th><th>Code Description</th><th>Date and Time</th><th>Status</th></tr></thead><tbody><tr><td>Prenatal Visit</td><td>SNOMED-CT</td><td>424619006</td><td><span/>Prenatal visit</td><td>03-31-2010 10:00:00</td><td>Performed</td></tr><tr><td/><td>ICD-10-CM</td><td>Z34.9</td><td>Encounter for supervision of normal pregnancy, unspecified</td><td/><td/></tr><tr><td/><td>ICD-9-CM</td><td>V22.2</td><td>Pregnant state, incidental</td><td/><td/></tr><tr><td>Prenatal Visit</td><td>SNOMED-CT</td><td>424619006</td><td><span/>Prenatal visit</td><td>05-15-2010 10:00:00</td><td>Performed</td></tr><tr><td/><td>ICD-10-CM</td><td>Z34.9</td><td>Encounter for supervision of normal pregnancy, unspecified</td><td/><td/></tr><tr><td/><td>ICD-9-CM</td><td>V22.2</td><td>Pregnant state, incidental</td><td/><td/></tr><tr><td>Prenatal Visit</td><td>SNOMED-CT</td><td>424619006</td><td><span/>Prenatal visit</td><td>07-30-2010 10:00:00</td><td>Performed</td></tr><tr><td/><td>ICD-10-CM</td><td>Z34.9</td><td>Encounter for supervision of normal pregnancy, unspecified</td><td/><td/></tr><tr><td/><td>ICD-9-CM</td><td>V22.2</td><td>Pregnant state, incidental</td><td/><td/></tr><tr><td>Prenatal Visit</td><td>SNOMED-CT</td><td>424619006</td><td><span/>Prenatal visit</td><td>09-20-2010 10:00:00</td><td>Performed</td></tr><tr><td/><td>ICD-10-CM</td><td>Z34.9</td><td>Encounter for supervision of normal pregnancy, unspecified</td><td/><td/></tr><tr><td/><td>ICD-9-CM</td><td>V22.2</td><td>Pregnant state, incidental</td><td/><td/></tr><tr><td>Prenatal Visit</td><td>SNOMED-CT</td><td>424619006</td><td><span/>Prenatal visit</td><td>10-25-2010 10:00:00</td><td>Performed</td></tr><tr><td/><td>ICD-10-CM</td><td>Z34.9</td><td>Encounter for supervision of normal pregnancy, unspecified</td><td/><td/></tr><tr><td/><td>ICD-9-CM</td><td>V22.2</td><td>Pregnant state, incidental</td><td/><td/></tr><tr><td>Prenatal Visit</td><td>SNOMED-CT</td><td>424619006</td><td><span/>Prenatal visit</td><td>11-08-2010 10:00:00</td><td>Performed</td></tr><tr><td/><td>ICD-10-CM</td><td>Z34.9</td><td>Encounter for supervision of normal pregnancy, unspecified</td><td/><td/></tr><tr><td/><td>ICD-9-CM</td><td>V22.2</td><td>Pregnant state, incidental</td><td/><td/></tr><tr><td>Encounter Acute Inpt</td><td>CPT</td><td>99251</td><td><span/>Initial inpatient consult</td><td>11-15-2010 10:00:00</td><td>Performed</td></tr><tr><td>Encounter Inpatient Discharge</td><td>CPT</td><td>99238</td><td><span/>Hospital discharge day</td><td>11-18-2010 10:00:00</td><td>Performed</td></tr></tbody></table></div>"
        },
        "mode": "snapshot",
        "entry": [ {
          "reference": "Encounter/5c01ac0d-9b65-44bf-b392-efbf1de1723d",
          "display": "Prenatal visit"
        }, {
          "reference": "Encounter/0edb05af-4ddf-49b2-bde2-5f480ac1a60d",
          "display": "Prenatal visit"
        }, {
          "reference": "Encounter/4d32e5f7-eea4-4b96-b046-93601e1140da",
          "display": "Prenatal visit"
        }, {
          "reference": "Encounter/3648647f-1f35-4fa3-8894-d20e5467e211",
          "display": "Prenatal visit"
        }, {
          "reference": "Encounter/fa322ba7-74db-417e-881b-b59346b58f9a",
          "display": "Initial inpatient consult"
        }, {
          "reference": "Encounter/0bbbc1ba-f41b-4d00-8ebd-0c2592df2957",
          "display": "Prenatal visit"
        }, {
          "reference": "Encounter/cf492071-3253-4a2a-8b99-5dd206408334",
          "display": "Prenatal visit"
        }, {
          "reference": "Encounter/81ab65af-dd11-4945-b1da-6b5404290f23",
          "display": "Hospital discharge day"
        } ]
      }, {
        "title": "Allergies,  Adverse Reactions & Alerts",
        "code": {
          "coding": [ {
            "system": "http://loinc.org",
            "code": "48765-2",
            "display": "Allergies, adverse reactions, alerts"
          } ]
        },
        "text": {
          "status": "additional",
          "div": "<div xmlns=\"http://www.w3.org/1999/xhtml\"><table><thead><tr><th>Group Description</th><th>Code System</th><th>Code</th><th>Code Description</th><th>Severity</th><th>Susceptibility</th><th>Date and Time</th><th>Status</th></tr></thead><tbody><tr><td>Allergy to Eggs</td><td>UNII</td><td>291P45F896</td><td><span/>Eggs</td><td><span/>Mild to moderate</td><td>Susceptible</td><td>03-31-2010 10:00:00</td><td>Active</td></tr><tr><td/><td>ICD-9-CM</td><td>V15.03</td><td>Allergy to eggs</td><td/><td/><td/><td/></tr><tr><td>Fosfomycin</td><td>RxNorm</td><td>808917</td><td><span/>Fosfomycin 33.3 MG/ML Oral Suspension</td><td><span/>Fatal</td><td>Very susceptible</td><td>03-31-2010 10:00:00</td><td>Active</td></tr><tr><td>Tetracyclines</td><td>RxNorm</td><td>406524</td><td><span/>Doxycycline 75 MG Enteric Coated Tablet</td><td><span/>Moderate</td><td>Very susceptible</td><td>03-31-2010 10:00:00</td><td>Active</td></tr><tr><td/><td>NDF-RT</td><td>N0000006275</td><td>Tetracycline</td><td/><td/><td/><td/></tr></tbody></table></div>"
        },
        "mode": "snapshot",
        "entry": [ {
          "reference": "AllergyIntolerance/df1f5448-e294-4590-a5f2-3bb29c2f0594",
          "display": "Allergy to Eggs + Eggs"
        }, {
          "reference": "AllergyIntolerance/5f5b9069-a06c-4736-af59-24cbde5628c1",
          "display": "Fosfomycin + Fosfomycin 33.3 MG/ML Oral Suspension"
        }, {
          "reference": "AllergyIntolerance/e5c1d20a-4a2a-4846-84dc-118e362642a7",
          "display": "Tetracyclines + Doxycycline 75 MG Enteric Coated Tablet"
        } ]
      }, {
        "title": "Results",
        "code": {
          "coding": [ {
            "system": "http://loinc.org",
            "code": "30954-2",
            "display": "Results"
          } ]
        },
        "text": {
          "status": "additional",
          "div": "<div xmlns=\"http://www.w3.org/1999/xhtml\"><table><thead><tr><th>Group Description</th><th>Code System</th><th>Code</th><th>Code Description</th><th>Value</th><th>Unit</th><th>Reference Range</th><th>Date and Time</th><th>Status</th></tr></thead><tbody><tr><td>Pregnancy Test</td><td>LOINC</td><td>2119-6</td><td><span/>HCG SerPl-sCnc</td><td>positive</td><td/><td>NA</td><td>03-31-2010 10:00:00</td><td>Completed</td></tr><tr><td/><td>CPT</td><td>84702</td><td>Chorionic gonadotropin test</td><td/><td/><td/><td/><td/></tr><tr><td>HIV Screening</td><td>LOINC</td><td>73906-0</td><td><span/>HIV1+2 IgG Bld Ql EIA.rapid</td><td>non-reactive</td><td/><td>NA</td><td>04-10-2010 10:00:00</td><td>Completed</td></tr><tr><td/><td>CPT</td><td>87389</td><td>Hiv-1 ag w/hiv-1 &amp; hiv-2 ab</td><td/><td/><td/><td/><td/></tr><tr><td/><td>SNOMED-CT</td><td>171121004</td><td>Human immunodeficiency virus screening</td><td/><td/><td/><td/><td/></tr><tr><td>Rh Status Mother</td><td>LOINC</td><td>1314-4</td><td><span/>Rh Ig Scn Bld-Imp</td><td>positive</td><td/><td>NA</td><td>09-20-2010 10:00:00</td><td>Completed</td></tr><tr><td>HbA1c test</td><td>LOINC</td><td>4548-4</td><td><span/>Hgb A1c MFr Bld</td><td>6.8</td><td>%</td><td>4-5.6%</td><td>10-25-2010 10:00:00</td><td>Completed</td></tr><tr><td/><td>CPT</td><td>83036</td><td>Glycated hemoglobin test</td><td/><td/><td/><td/><td/></tr><tr><td/><td>SNOMED-CT</td><td>43396009</td><td>Hemoglobin A1c measurement</td><td/><td/><td/><td/><td/></tr></tbody></table></div>"
        },
        "mode": "snapshot",
        "entry": [ {
          "reference": "DiagnosticReport/6ebc5395-14a3-47ce-917d-87657720a01f",
          "display": "Serology"
        }, {
          "reference": "DiagnosticReport/bf066531-9e16-4b7f-8288-c2d33bccf0b2",
          "display": "Serology"
        }, {
          "reference": "DiagnosticReport/4c131236-a3f2-4248-b2d0-a7af7ef1ab55",
          "display": "Serology"
        }, {
          "reference": "DiagnosticReport/82d08589-9a13-4f05-bc40-0c98bf0b94d0",
          "display": "Blood Chemistry"
        } ]
      }, {
        "title": "Procedures",
        "code": {
          "coding": [ {
            "system": "http://loinc.org",
            "code": "47519-4",
            "display": "HISTORY OF PROCEDURES"
          } ]
        },
        "text": {
          "status": "additional",
          "div": "<div xmlns=\"http://www.w3.org/1999/xhtml\"><table><thead><tr><th>Group Description</th><th>Code System</th><th>Code</th><th>Code Description</th><th>Date and Time</th><th>Status</th></tr></thead><tbody><tr><td>Delivery Live Births-Procedure</td><td>CPT</td><td>59410</td><td><span/>Obstetrical care</td><td>11-16-2010 10:00:00</td><td>Performed</td></tr><tr><td/><td>SNOMED-CT</td><td>169961004</td><td>Normal birth</td><td/><td/></tr></tbody></table></div>"
        },
        "mode": "snapshot",
        "entry": [ {
          "reference": "Procedure/40cee83f-d084-4269-91ca-802fca0ad807",
          "display": "Obstetrical care"
        } ]
      }, {
        "title": "Vital Signs",
        "code": {
          "coding": [ {
            "system": "http://loinc.org",
            "code": "8716-3",
            "display": "Vital Signs"
          } ]
        },
        "text": {
          "status": "additional",
          "div": "<div xmlns=\"http://www.w3.org/1999/xhtml\"><table><thead><tr><th>Group Description</th><th>Code System</th><th>Code</th><th>Code Description</th><th>Value</th><th>Unit</th><th>Date and Time</th><th>Status</th></tr></thead><tbody><tr><td>Diastolic Blood Pressure</td><td>LOINC</td><td>8462-4</td><td><span/>BP Diastolic</td><td>76</td><td>mm[Hg]</td><td>05-15-2010 10:00:00</td><td>Finding</td></tr><tr><td>Systolic Blood Pressure</td><td>LOINC</td><td>8480-6</td><td><span/>BP Systolic</td><td>116</td><td>mm[Hg]</td><td>05-15-2010 10:00:00</td><td>Finding</td></tr><tr><td>Diastolic Blood Pressure</td><td>LOINC</td><td>8462-4</td><td><span/>BP Diastolic</td><td>74</td><td>mm[Hg]</td><td>09-20-2010 10:00:00</td><td>Finding</td></tr><tr><td>Systolic Blood Pressure</td><td>LOINC</td><td>8480-6</td><td><span/>BP Systolic</td><td>112</td><td>mm[Hg]</td><td>09-20-2010 10:00:00</td><td>Finding</td></tr><tr><td>Diastolic Blood Pressure</td><td>LOINC</td><td>8462-4</td><td><span/>BP Diastolic</td><td>72</td><td>mm[Hg]</td><td>10-25-2010 10:00:00</td><td>Finding</td></tr><tr><td>Systolic Blood Pressure</td><td>LOINC</td><td>8480-6</td><td><span/>BP Systolic</td><td>116</td><td>mm[Hg]</td><td>10-25-2010 10:00:00</td><td>Finding</td></tr><tr><td>Diastolic Blood Pressure</td><td>LOINC</td><td>8462-4</td><td><span/>BP Diastolic</td><td>70</td><td>mm[Hg]</td><td>11-08-2010 10:00:00</td><td>Finding</td></tr><tr><td>Systolic Blood Pressure</td><td>LOINC</td><td>8480-6</td><td><span/>BP Systolic</td><td>118</td><td>mm[Hg]</td><td>11-08-2010 10:00:00</td><td>Finding</td></tr></tbody></table></div>"
        },
        "mode": "snapshot",
        "entry": [ {
          "reference": "Observation/d0852dca-72f3-4e88-a384-bd3e2db0d991",
          "display": "BP Diastolic"
        }, {
          "reference": "Observation/01385567-25c4-43b3-8dfe-e3e868d10517",
          "display": "BP Systolic"
        }, {
          "reference": "Observation/cea0991a-2964-4c36-8477-12fc72082a1b",
          "display": "BP Diastolic"
        }, {
          "reference": "Observation/dc414703-c31a-4e3d-8703-2322b2816c70",
          "display": "BP Systolic"
        }, {
          "reference": "Observation/e93938a5-fe3b-4b15-b5f9-22e13781aa1b",
          "display": "BP Diastolic"
        }, {
          "reference": "Observation/bc963633-7c15-4482-8d72-ddc655179533",
          "display": "BP Systolic"
        }, {
          "reference": "Observation/fab1d0dc-6f69-4a30-8780-4088200a3c2e",
          "display": "BP Systolic"
        }, {
          "reference": "Observation/a8260446-7498-4d25-b357-b2a739b46acb",
          "display": "BP Diastolic"
        } ]
      }, {
        "title": "Social History",
        "code": {
          "coding": [ {
            "system": "http://loinc.org",
            "code": "29762-2",
            "display": "Social History"
          } ]
        },
        "text": {
          "status": "additional",
          "div": "<div xmlns=\"http://www.w3.org/1999/xhtml\"><table><thead><tr><th>Group Description</th><th>Code System</th><th>Code</th><th>Code Description</th><th>Date and Time</th><th>Status</th></tr></thead><tbody><tr><td>Tobacco Use</td><td>SNOMED-CT</td><td>266919005</td><td><span/>Never smoker (Never Smoked)</td><td>03-31-2010 10:00:00</td><td>Active</td></tr><tr><td/><td>SNOMED-CT</td><td>449868002</td><td>Current every day smoker</td><td/><td/></tr></tbody></table></div>"
        },
        "mode": "snapshot",
        "entry": [ {
          "reference": "Observation/9329d677-ebfb-4be6-a652-cd9fb99cc180"
        } ]
      } ]
    }
  }, {
    "resource": {
      "resourceType": "Patient",
      "id": "c332a984-7b39-4d9c-be86-431904cb5d99",
      "extension": [ {
        "url": "http://hl7.org/fhir/StructureDefinition/patient-religion",
        "valueCodeableConcept": {
          "coding": [ {
            "system": "urn:oid:2.16.840.1.113883.5.1076",
            "code": "1077",
            "display": "Protestant"
          } ]
        }
      }, {
        "url": "http://hl7.org/fhir/us/core/StructureDefinition/us-core-race",
        "extension": [ {
          "url": "text",
          "valueString": "Other Race"
        }, {
          "url": "ombCategory",
          "valueCoding": {
            "system": "urn:oid:2.16.840.1.113883.6.238",
            "code": "2131-1",
            "display": "Other Race"
          }
        } ]
      }, {
        "url": "http://hl7.org/fhir/us/core/StructureDefinition/us-core-ethnicity",
        "extension": [ {
          "url": "text",
          "valueString": "Not Hispanic or Latino"
        }, {
          "url": "ombCategory",
          "valueCoding": {
            "system": "urn:oid:2.16.840.1.113883.6.238",
            "code": "2186-5",
            "display": "Not Hispanic or Latino"
          }
        } ]
      }, {
        "url": "http://hl7.org/fhir/StructureDefinition/patient-birthPlace",
        "valueAddress": {
          "city": "Alton",
          "state": "MO",
          "postalCode": "65606",
          "country": "US"
        }
      } ],
      "identifier": [ {
        "use": "official",
        "system": "urn:oid:2.16.840.1.113883.19.5.99999.2",
        "value": "998991"
      }, {
        "use": "official",
        "system": "urn:oid:2.16.840.1.113883.4.1",
        "value": "111-00-2330"
      } ],
      "name": [ {
        "use": "usual",
        "family": "Simmons",
        "given": [ "Andrea" ]
      } ],
      "telecom": [ {
        "system": "phone",
        "value": "(301)977-4383",
        "use": "mobile"
      } ],
      "gender": "female",
      "birthDate": "1980-07-13",
      "address": [ {
        "use": "home",
        "line": [ "505 Lake Floyd Circle" ],
        "city": "Gaithersburg",
        "state": "MD",
        "postalCode": "20877",
        "country": "US"
      } ],
      "maritalStatus": {
        "coding": [ {
          "system": "http://terminology.hl7.org/CodeSystem/v3-MaritalStatus",
          "code": "M",
          "display": "Married"
        } ]
      },
      "contact": [ {
        "relationship": [ {
          "coding": [ {
            "system": "http://terminology.hl7.org/CodeSystem/v2-0131",
            "code": "C",
            "display": "Emergency Contact"
          } ]
        } ],
        "name": {
          "family": "Robinson",
          "given": [ "Marcia" ],
          "prefix": [ "Ms." ]
        },
        "telecom": [ {
          "system": "phone",
          "value": "(801)294-5893",
          "use": "home"
        }, {
          "system": "email",
          "value": "MarciaFRobinson@rhyta.com",
          "use": "work"
        } ],
        "address": {
          "use": "home",
          "line": [ "464 Philadelphia Avenue" ],
          "city": "Bountiful",
          "state": "UT",
          "postalCode": "84010",
          "country": "US"
        }
      } ],
      "communication": [ {
        "language": {
          "coding": [ {
            "system": "urn:ietf:bcp:47",
            "code": "spa"
          } ]
        },
        "preferred": true
      } ],
      "managingOrganization": {
        "reference": "Organization/95e7014c-6dcb-458c-8951-bd5ce1f4ccec",
        "display": "Community Health and Hospitals"
      }
    }
  }, {
    "resource": {
      "resourceType": "Organization",
      "id": "95e7014c-6dcb-458c-8951-bd5ce1f4ccec",
      "identifier": [ {
        "use": "official",
        "value": "2.16.840.1.113883.4.6"
      } ],
      "name": "Community Health and Hospitals",
      "telecom": [ {
        "system": "phone",
        "value": " 555-555-5000",
        "use": "work"
      } ],
      "address": [ {
        "line": [ "1001 Village Avenue" ],
        "city": "Portland",
        "state": "OR",
        "postalCode": "99123",
        "country": "US"
      } ]
    }
  }, {
    "resource": {
      "resourceType": "Practitioner",
      "id": "ff0aace4-87f8-4c46-aaf6-1a144585bb38",
      "identifier": [ {
        "use": "official",
        "system": "urn:oid:2.16.840.1.113883.4.6",
        "value": "99999999"
      } ],
      "name": [ {
        "family": "Seven",
        "given": [ "Henry" ],
        "suffix": [ "MD" ]
      } ],
      "telecom": [ {
        "system": "phone",
        "value": "555-555-1002",
        "use": "work"
      } ],
      "address": [ {
        "line": [ "1002 Healthcare Drive" ],
        "city": "Portland",
        "state": "OR",
        "postalCode": "99123",
        "country": "US"
      } ]
    }
  }, {
    "resource": {
      "resourceType": "Practitioner",
      "id": "b69f7ea2-0fe2-4b63-afb8-d40a88dd5a36",
      "identifier": [ {
        "use": "official",
        "system": "http://hl7.org/fhir/sid/us-npi",
        "value": "999999999"
      } ],
      "name": [ {
        "family": "Seven",
        "given": [ "Henry" ]
      } ],
      "telecom": [ {
        "system": "phone",
        "value": "555-555-1002",
        "use": "work"
      } ],
      "address": [ {
        "line": [ "1001 Village Avenue" ],
        "city": "Portland",
        "state": "OR",
        "postalCode": "99123",
        "country": "US"
      } ]
    }
  }, {
    "resource": {
      "resourceType": "Practitioner",
      "id": "d0979b14-e1df-48a3-8f2e-dde3de23b458",
      "identifier": [ {
        "use": "official",
        "system": "http://hl7.org/fhir/sid/us-npi",
        "value": "PseudoMD-1"
      } ],
      "name": [ {
        "family": "Seven",
        "given": [ "Henry" ],
        "suffix": [ "MD" ]
      } ],
      "telecom": [ {
        "system": "phone",
        "value": "+1-555-555-5000",
        "use": "home"
      } ],
      "address": [ {
        "line": [ "1001 Village Avenue" ],
        "city": "Portland",
        "state": "OR",
        "postalCode": "99123",
        "country": "US"
      } ]
    }
  }, {
    "resource": {
      "resourceType": "Organization",
      "id": "3314fa81-a0a7-4234-9447-eb34d7b60ea3",
      "identifier": [ {
        "use": "official",
        "system": "urn:oid:2.16.840.1.113883.4.6",
        "value": "99999999"
      } ],
      "name": "Community Health and Hospitals",
      "telecom": [ {
        "system": "phone",
        "value": " 555-555-1002",
        "use": "work"
      } ],
      "address": [ {
        "use": "work",
        "line": [ "1002 Healthcare Drive" ],
        "city": "Portland",
        "state": "OR",
        "postalCode": "99123",
        "country": "US"
      } ]
    }
  }, {
    "resource": {
      "resourceType": "Condition",
      "id": "76c0e26d-5645-43d4-8676-f55b3d2efe61",
      "identifier": [ {
        "use": "official",
        "value": "9d3d416d-45ab-4da1-912f-4583e0632000"
      } ],
      "clinicalStatus": {
        "coding": [ {
          "system": "http://terminology.hl7.org/CodeSystem/condition-clinical",
          "code": "active",
          "display": "Active"
        } ]
      },
      "verificationStatus": {
        "coding": [ {
          "system": "http://terminology.hl7.org/CodeSystem/condition-ver-status",
          "code": "confirmed",
          "display": "Confirmed"
        } ]
      },
      "category": [ {
        "coding": [ {
          "system": "http://terminology.hl7.org/CodeSystem/condition-category",
          "code": "problem-list-item",
          "display": "Problem List Item"
        } ]
      } ],
      "code": {
        "coding": [ {
          "system": "http://snomed.info/sct",
          "code": "11687002",
          "display": "Gestational diabetes mellitus"
        }, {
          "system": "urn:oid:2.16.840.1.113883.6.90",
          "code": "O24.4",
          "display": "Gestational diabetes mellitus"
        }, {
          "system": "urn:oid:2.16.840.1.113883.6.103",
          "code": "648.80",
          "display": "Abnormal glucose tolerance of mother, unspecified as to episode of care or not applicable"
        } ]
      },
      "subject": {
        "reference": "Patient/c332a984-7b39-4d9c-be86-431904cb5d99",
        "display": "Andrea Simmons"
      },
      "onsetDateTime": "2010-09-20T10:00:00+02:00"
    }
  }, {
    "resource": {
      "resourceType": "MedicationStatement",
      "id": "0d245b3f-26a4-4241-b0b6-788b514098c5",
      "extension": [ {
        "url": "http://hl7.org/fhir/3.0/StructureDefinition/extension-MedicationStatement.status",
        "valueCode": "UNKNOWN"
      } ],
      "identifier": [ {
        "use": "official",
        "value": "cdbd33f0-6cde-11db-9fe1-0800200c9a66"
      } ],
      "status": "completed",
      "medicationReference": {
        "reference": "Medication/5d0e6bea-270c-42f7-8dde-4538896ba507",
        "display": "3 ML Insulin Lispro 100 UNT/ML Prefilled Syringe"
      },
      "subject": {
        "reference": "Patient/c332a984-7b39-4d9c-be86-431904cb5d99",
        "display": "Andrea Simmons"
      },
      "effectivePeriod": {
        "start": "2010-09-20T10:00:00+02:00"
      }
    }
  }, {
    "resource": {
      "resourceType": "Medication",
      "id": "5d0e6bea-270c-42f7-8dde-4538896ba507",
      "code": {
        "coding": [ {
          "system": "http://www.nlm.nih.gov/research/umls/rxnorm",
          "code": "847207",
          "display": "3 ML Insulin Lispro 100 UNT/ML Prefilled Syringe"
        } ]
      }
    }
  }, {
    "resource": {
      "resourceType": "Encounter",
      "id": "5c01ac0d-9b65-44bf-b392-efbf1de1723d",
      "identifier": [ {
        "use": "official",
        "value": "2a620155-9d11-439e-92b3-5d9815ff4de8"
      } ],
      "status": "finished",
      "type": [ {
        "coding": [ {
          "system": "http://snomed.info/sct",
          "code": "424619006",
          "display": "Prenatal visit"
        }, {
          "system": "urn:oid:2.16.840.1.113883.6.90",
          "code": "Z34.9",
          "display": "Encounter for supervision of normal pregnancy, unspecified"
        }, {
          "system": "urn:oid:2.16.840.1.113883.6.103",
          "code": "V22.2",
          "display": "Pregnant state, incidental"
        } ]
      } ],
      "subject": {
        "reference": "Patient/c332a984-7b39-4d9c-be86-431904cb5d99",
        "display": "Andrea Simmons"
      },
      "period": {
        "start": "2010-05-15T10:00:00+02:00"
      }
    }
  }, {
    "resource": {
      "resourceType": "Encounter",
      "id": "0edb05af-4ddf-49b2-bde2-5f480ac1a60d",
      "identifier": [ {
        "use": "official",
        "value": "2a620155-9d11-439e-92b3-5d9815ff4de8"
      } ],
      "status": "finished",
      "type": [ {
        "coding": [ {
          "system": "http://snomed.info/sct",
          "code": "424619006",
          "display": "Prenatal visit"
        }, {
          "system": "urn:oid:2.16.840.1.113883.6.90",
          "code": "Z34.9",
          "display": "Encounter for supervision of normal pregnancy, unspecified"
        }, {
          "system": "urn:oid:2.16.840.1.113883.6.103",
          "code": "V22.2",
          "display": "Pregnant state, incidental"
        } ]
      } ],
      "subject": {
        "reference": "Patient/c332a984-7b39-4d9c-be86-431904cb5d99",
        "display": "Andrea Simmons"
      },
      "period": {
        "start": "2010-03-31T10:00:00+02:00"
      },
      "reasonCode": [ {
        "coding": [ {
          "system": "http://snomed.info/sct",
          "code": "315903005",
          "display": "Pregnancy"
        } ]
      } ],
      "reasonReference": [ {
        "reference": "Condition/8ec4c385-a8f5-4bd2-8b1e-c998d56ff009",
        "display": "Pregnancy"
      } ]
    }
  }, {
    "resource": {
      "resourceType": "Condition",
      "id": "8ec4c385-a8f5-4bd2-8b1e-c998d56ff009",
      "identifier": [ {
        "use": "official",
        "system": "urn:uuid:db734647-fc99-424c-a864-7e3cda82e703",
        "value": "45665"
      } ],
      "clinicalStatus": {
        "coding": [ {
          "system": "http://terminology.hl7.org/CodeSystem/condition-clinical",
          "code": "active",
          "display": "Active"
        } ]
      },
      "category": [ {
        "coding": [ {
          "system": "http://hl7.org/fhir/condition-category",
          "code": "encounter-diagnosis",
          "display": "Encounter Diagnosis"
        } ]
      } ],
      "code": {
        "coding": [ {
          "system": "http://snomed.info/sct",
          "code": "315903005",
          "display": "Pregnancy"
        }, {
          "system": "urn:oid:2.16.840.1.113883.6.90",
          "code": "Z33.1",
          "display": "Pregnant state, incidental"
        }, {
          "system": "urn:oid:2.16.840.1.113883.6.103",
          "code": "V22.2",
          "display": "Pregnant state, incidental"
        } ]
      },
      "subject": {
        "reference": "Patient/c332a984-7b39-4d9c-be86-431904cb5d99",
        "display": "Andrea Simmons"
      },
      "onsetDateTime": "2010-03-31T10:00:00+02:00"
    }
  }, {
    "resource": {
      "resourceType": "Encounter",
      "id": "4d32e5f7-eea4-4b96-b046-93601e1140da",
      "identifier": [ {
        "use": "official",
        "value": "2a620155-9d11-439e-92b3-5d9815ff4de8"
      } ],
      "status": "finished",
      "type": [ {
        "coding": [ {
          "system": "http://snomed.info/sct",
          "code": "424619006",
          "display": "Prenatal visit"
        }, {
          "system": "urn:oid:2.16.840.1.113883.6.90",
          "code": "Z34.9",
          "display": "Encounter for supervision of normal pregnancy, unspecified"
        }, {
          "system": "urn:oid:2.16.840.1.113883.6.103",
          "code": "V22.2",
          "display": "Pregnant state, incidental"
        } ]
      } ],
      "subject": {
        "reference": "Patient/c332a984-7b39-4d9c-be86-431904cb5d99",
        "display": "Andrea Simmons"
      },
      "period": {
        "start": "2010-07-30T10:00:00+02:00"
      }
    }
  }, {
    "resource": {
      "resourceType": "Encounter",
      "id": "3648647f-1f35-4fa3-8894-d20e5467e211",
      "identifier": [ {
        "use": "official",
        "value": "2a620155-9d11-439e-92b3-5d9815ff4de8"
      } ],
      "status": "finished",
      "type": [ {
        "coding": [ {
          "system": "http://snomed.info/sct",
          "code": "424619006",
          "display": "Prenatal visit"
        }, {
          "system": "urn:oid:2.16.840.1.113883.6.90",
          "code": "Z34.9",
          "display": "Encounter for supervision of normal pregnancy, unspecified"
        }, {
          "system": "urn:oid:2.16.840.1.113883.6.103",
          "code": "V22.2",
          "display": "Pregnant state, incidental"
        } ]
      } ],
      "subject": {
        "reference": "Patient/c332a984-7b39-4d9c-be86-431904cb5d99",
        "display": "Andrea Simmons"
      },
      "period": {
        "start": "2010-09-20T10:00:00+02:00"
      },
      "reasonCode": [ {
        "coding": [ {
          "system": "http://snomed.info/sct",
          "code": "11687002",
          "display": "Gestational Diabetes"
        } ]
      } ],
      "reasonReference": [ {
        "reference": "Condition/8ec4c385-a8f5-4bd2-8b1e-c998d56ff009",
        "display": "Pregnancy"
      } ]
    }
  }, {
    "resource": {
      "resourceType": "Encounter",
      "id": "fa322ba7-74db-417e-881b-b59346b58f9a",
      "identifier": [ {
        "use": "official",
        "value": "2a620155-9d11-439e-92b3-5d9815ff4de8"
      } ],
      "status": "finished",
      "type": [ {
        "coding": [ {
          "system": "http://www.ama-assn.org/go/cpt",
          "code": "99251",
          "display": "Initial inpatient consult"
        } ]
      } ],
      "subject": {
        "reference": "Patient/c332a984-7b39-4d9c-be86-431904cb5d99",
        "display": "Andrea Simmons"
      },
      "period": {
        "start": "2010-11-15T10:00:00+01:00"
      }
    }
  }, {
    "resource": {
      "resourceType": "Encounter",
      "id": "0bbbc1ba-f41b-4d00-8ebd-0c2592df2957",
      "identifier": [ {
        "use": "official",
        "value": "2a620155-9d11-439e-92b3-5d9815ff4de8"
      } ],
      "status": "finished",
      "type": [ {
        "coding": [ {
          "system": "http://snomed.info/sct",
          "code": "424619006",
          "display": "Prenatal visit"
        }, {
          "system": "urn:oid:2.16.840.1.113883.6.90",
          "code": "Z34.9",
          "display": "Encounter for supervision of normal pregnancy, unspecified"
        }, {
          "system": "urn:oid:2.16.840.1.113883.6.103",
          "code": "V22.2",
          "display": "Pregnant state, incidental"
        } ]
      } ],
      "subject": {
        "reference": "Patient/c332a984-7b39-4d9c-be86-431904cb5d99",
        "display": "Andrea Simmons"
      },
      "period": {
        "start": "2010-10-25T10:00:00+02:00"
      }
    }
  }, {
    "resource": {
      "resourceType": "Encounter",
      "id": "cf492071-3253-4a2a-8b99-5dd206408334",
      "identifier": [ {
        "use": "official",
        "value": "2a620155-9d11-439e-92b3-5d9815ff4de8"
      } ],
      "status": "finished",
      "type": [ {
        "coding": [ {
          "system": "http://snomed.info/sct",
          "code": "424619006",
          "display": "Prenatal visit"
        }, {
          "system": "urn:oid:2.16.840.1.113883.6.90",
          "code": "Z34.9",
          "display": "Encounter for supervision of normal pregnancy, unspecified"
        }, {
          "system": "urn:oid:2.16.840.1.113883.6.103",
          "code": "V22.2",
          "display": "Pregnant state, incidental"
        } ]
      } ],
      "subject": {
        "reference": "Patient/c332a984-7b39-4d9c-be86-431904cb5d99",
        "display": "Andrea Simmons"
      },
      "period": {
        "start": "2010-11-08T10:00:00+01:00"
      }
    }
  }, {
    "resource": {
      "resourceType": "Encounter",
      "id": "81ab65af-dd11-4945-b1da-6b5404290f23",
      "identifier": [ {
        "use": "official",
        "value": "2a620155-9d11-439e-92b3-5d9815ff4de8"
      } ],
      "status": "finished",
      "type": [ {
        "coding": [ {
          "system": "http://www.ama-assn.org/go/cpt",
          "code": "99238",
          "display": "Hospital discharge day"
        } ]
      } ],
      "subject": {
        "reference": "Patient/c332a984-7b39-4d9c-be86-431904cb5d99",
        "display": "Andrea Simmons"
      },
      "period": {
        "start": "2010-11-18T10:00:00+01:00"
      }
    }
  }, {
    "resource": {
      "resourceType": "AllergyIntolerance",
      "id": "df1f5448-e294-4590-a5f2-3bb29c2f0594",
      "identifier": [ {
        "use": "official",
        "value": "36e3e930-7b14-11db-9fe1-0800200c9a66"
      } ],
      "clinicalStatus": {
        "coding": [ {
          "system": "http://terminology.hl7.org/CodeSystem/allergyintolerance-clinical",
          "code": "active",
          "display": "Active"
        } ]
      },
      "verificationStatus": {
        "coding": [ {
          "system": "http://terminology.hl7.org/CodeSystem/allergyintolerance-verification",
          "code": "confirmed",
          "display": "Confirmed"
        } ]
      },
      "type": "allergy",
      "category": [ "food" ],
      "code": {
        "coding": [ {
          "system": "http://fdasis.nlm.nih.gov",
          "code": "291P45F896",
          "display": "Eggs"
        }, {
          "system": "urn:oid:2.16.840.1.113883.6.103",
          "code": "V15.03",
          "display": "Allergy to eggs"
        } ],
        "text": "Allergy to Eggs + Eggs"
      },
      "patient": {
        "reference": "Patient/c332a984-7b39-4d9c-be86-431904cb5d99",
        "display": "Andrea Simmons"
      },
      "recordedDate": "2010-03-31T10:00:00+02:00"
    }
  }, {
    "resource": {
      "resourceType": "AllergyIntolerance",
      "id": "5f5b9069-a06c-4736-af59-24cbde5628c1",
      "identifier": [ {
        "use": "official",
        "value": "36e3e930-7b14-11db-9fe1-0800200c9a66"
      } ],
      "clinicalStatus": {
        "coding": [ {
          "system": "http://terminology.hl7.org/CodeSystem/allergyintolerance-clinical",
          "code": "active",
          "display": "Active"
        } ]
      },
      "verificationStatus": {
        "coding": [ {
          "system": "http://terminology.hl7.org/CodeSystem/allergyintolerance-verification",
          "code": "confirmed",
          "display": "Confirmed"
        } ]
      },
      "type": "allergy",
      "category": [ "medication" ],
      "code": {
        "coding": [ {
          "system": "http://www.nlm.nih.gov/research/umls/rxnorm",
          "code": "808917",
          "display": "Fosfomycin 33.3 MG/ML Oral Suspension"
        } ],
        "text": "Fosfomycin + Fosfomycin 33.3 MG/ML Oral Suspension"
      },
      "patient": {
        "reference": "Patient/c332a984-7b39-4d9c-be86-431904cb5d99",
        "display": "Andrea Simmons"
      },
      "recordedDate": "2010-03-31T10:00:00+02:00"
    }
  }, {
    "resource": {
      "resourceType": "AllergyIntolerance",
      "id": "e5c1d20a-4a2a-4846-84dc-118e362642a7",
      "identifier": [ {
        "use": "official",
        "value": "36e3e930-7b14-11db-9fe1-0800200c9a66"
      } ],
      "clinicalStatus": {
        "coding": [ {
          "system": "http://terminology.hl7.org/CodeSystem/allergyintolerance-clinical",
          "code": "active",
          "display": "Active"
        } ]
      },
      "verificationStatus": {
        "coding": [ {
          "system": "http://terminology.hl7.org/CodeSystem/allergyintolerance-verification",
          "code": "confirmed",
          "display": "Confirmed"
        } ]
      },
      "type": "allergy",
      "category": [ "medication" ],
      "code": {
        "coding": [ {
          "system": "http://www.nlm.nih.gov/research/umls/rxnorm",
          "code": "406524",
          "display": "Doxycycline 75 MG Enteric Coated Tablet"
        }, {
          "system": "urn:oid:2.16.840.1.113883.3.26.1.5",
          "code": "N0000006275",
          "display": "Tetracycline"
        } ],
        "text": "Tetracyclines + Doxycycline 75 MG Enteric Coated Tablet"
      },
      "patient": {
        "reference": "Patient/c332a984-7b39-4d9c-be86-431904cb5d99",
        "display": "Andrea Simmons"
      },
      "recordedDate": "2010-03-31T10:00:00+02:00"
    }
  }, {
    "resource": {
      "resourceType": "DiagnosticReport",
      "id": "6ebc5395-14a3-47ce-917d-87657720a01f",
      "identifier": [ {
        "use": "official",
        "value": "7d5a02b0-67a4-11db-bd13-0800200c9a66"
      } ],
      "status": "final",
      "category": [ {
        "coding": [ {
          "system": "http://terminology.hl7.org/CodeSystem/v2-0074",
          "code": "LAB",
          "display": "Laboratory"
        } ]
      } ],
      "code": {
        "coding": [ {
          "system": "http://snomed.info/sct",
          "code": "275711006",
          "display": "Serology"
        } ]
      },
      "subject": {
        "reference": "Patient/c332a984-7b39-4d9c-be86-431904cb5d99",
        "display": "Andrea Simmons"
      },
      "result": [ {
        "reference": "Observation/096c7f01-e813-41ba-b8ea-c6facf460f9b",
        "display": "HCG SerPl-sCnc"
      } ]
    }
  }, {
    "resource": {
      "resourceType": "Observation",
      "id": "096c7f01-e813-41ba-b8ea-c6facf460f9b",
      "identifier": [ {
        "use": "official",
        "value": "107c2dc0-67a5-11db-bd13-0800200c9a66"
      } ],
      "status": "final",
      "category": [ {
        "coding": [ {
          "system": "http://terminology.hl7.org/CodeSystem/observation-category",
          "code": "laboratory"
        } ]
      } ],
      "code": {
        "coding": [ {
          "system": "http://loinc.org",
          "code": "2119-6",
          "display": "HCG SerPl-sCnc"
        }, {
          "system": "http://www.ama-assn.org/go/cpt",
          "code": "84702",
          "display": "Chorionic gonadotropin test"
        } ]
      },
      "subject": {
        "reference": "Patient/c332a984-7b39-4d9c-be86-431904cb5d99",
        "display": "Andrea Simmons"
      },
      "effectivePeriod": {
        "start": "2010-03-31T10:00:00+02:00"
      },
      "valueCodeableConcept": {
        "coding": [ {
          "system": "http://snomed.info/sct",
          "code": "10828004",
          "display": "positive"
        } ]
      },
      "interpretation": [ {
        "coding": [ {
          "system": "http://terminology.hl7.org/CodeSystem/v3-ObservationInterpretation",
          "code": "N"
        } ]
      } ],
      "referenceRange": [ {
        "text": "NA"
      } ]
    }
  }, {
    "resource": {
      "resourceType": "DiagnosticReport",
      "id": "bf066531-9e16-4b7f-8288-c2d33bccf0b2",
      "identifier": [ {
        "use": "official",
        "value": "7d5a02b0-67a4-11db-bd13-0800200c9a66"
      } ],
      "status": "final",
      "category": [ {
        "coding": [ {
          "system": "http://terminology.hl7.org/CodeSystem/v2-0074",
          "code": "LAB",
          "display": "Laboratory"
        } ]
      } ],
      "code": {
        "coding": [ {
          "system": "http://snomed.info/sct",
          "code": "275711006",
          "display": "Serology"
        } ]
      },
      "subject": {
        "reference": "Patient/c332a984-7b39-4d9c-be86-431904cb5d99",
        "display": "Andrea Simmons"
      },
      "result": [ {
        "reference": "Observation/026647c2-86e2-44ca-bbed-aa6c73120812",
        "display": "Rh Ig Scn Bld-Imp"
      } ]
    }
  }, {
    "resource": {
      "resourceType": "Observation",
      "id": "026647c2-86e2-44ca-bbed-aa6c73120812",
      "identifier": [ {
        "use": "official",
        "value": "107c2dc0-67a5-11db-bd13-0800200c9a66"
      } ],
      "status": "final",
      "category": [ {
        "coding": [ {
          "system": "http://terminology.hl7.org/CodeSystem/observation-category",
          "code": "laboratory"
        } ]
      } ],
      "code": {
        "coding": [ {
          "system": "http://loinc.org",
          "code": "1314-4",
          "display": "Rh Ig Scn Bld-Imp"
        } ]
      },
      "subject": {
        "reference": "Patient/c332a984-7b39-4d9c-be86-431904cb5d99",
        "display": "Andrea Simmons"
      },
      "effectivePeriod": {
        "start": "2010-09-20T10:00:00+02:00"
      },
      "valueCodeableConcept": {
        "coding": [ {
          "system": "http://snomed.info/sct",
          "code": "10828004",
          "display": "positive"
        } ]
      },
      "interpretation": [ {
        "coding": [ {
          "system": "http://terminology.hl7.org/CodeSystem/v3-ObservationInterpretation",
          "code": "N"
        } ]
      } ],
      "referenceRange": [ {
        "text": "NA"
      } ]
    }
  }, {
    "resource": {
      "resourceType": "DiagnosticReport",
      "id": "4c131236-a3f2-4248-b2d0-a7af7ef1ab55",
      "identifier": [ {
        "use": "official",
        "value": "7d5a02b0-67a4-11db-bd13-0800200c9a66"
      } ],
      "status": "final",
      "category": [ {
        "coding": [ {
          "system": "http://terminology.hl7.org/CodeSystem/v2-0074",
          "code": "LAB",
          "display": "Laboratory"
        } ]
      } ],
      "code": {
        "coding": [ {
          "system": "http://snomed.info/sct",
          "code": "275711006",
          "display": "Serology"
        } ]
      },
      "subject": {
        "reference": "Patient/c332a984-7b39-4d9c-be86-431904cb5d99",
        "display": "Andrea Simmons"
      },
      "result": [ {
        "reference": "Observation/bc0e47cc-6358-4ae7-b444-8412c516ac70",
        "display": "HIV1+2 IgG Bld Ql EIA.rapid"
      } ]
    }
  }, {
    "resource": {
      "resourceType": "Observation",
      "id": "bc0e47cc-6358-4ae7-b444-8412c516ac70",
      "identifier": [ {
        "use": "official",
        "value": "107c2dc0-67a5-11db-bd13-0800200c9a66"
      } ],
      "status": "final",
      "category": [ {
        "coding": [ {
          "system": "http://terminology.hl7.org/CodeSystem/observation-category",
          "code": "laboratory"
        } ]
      } ],
      "code": {
        "coding": [ {
          "system": "http://loinc.org",
          "code": "73906-0",
          "display": "HIV1+2 IgG Bld Ql EIA.rapid"
        }, {
          "system": "http://www.ama-assn.org/go/cpt",
          "code": "87389",
          "display": "Hiv-1 ag w/hiv-1 & hiv-2 ab"
        }, {
          "system": "http://snomed.info/sct",
          "code": "171121004",
          "display": "Human immunodeficiency virus screening"
        } ]
      },
      "subject": {
        "reference": "Patient/c332a984-7b39-4d9c-be86-431904cb5d99",
        "display": "Andrea Simmons"
      },
      "effectivePeriod": {
        "start": "2010-04-10T10:00:00+02:00"
      },
      "valueCodeableConcept": {
        "coding": [ {
          "system": "http://snomed.info/sct",
          "code": "131194007",
          "display": "non-reactive"
        } ]
      },
      "interpretation": [ {
        "coding": [ {
          "system": "http://terminology.hl7.org/CodeSystem/v3-ObservationInterpretation",
          "code": "N"
        } ]
      } ],
      "referenceRange": [ {
        "text": "NA"
      } ]
    }
  }, {
    "resource": {
      "resourceType": "DiagnosticReport",
      "id": "82d08589-9a13-4f05-bc40-0c98bf0b94d0",
      "identifier": [ {
        "use": "official",
        "value": "7d5a02b0-67a4-11db-bd13-0800200c9a66"
      } ],
      "status": "final",
      "category": [ {
        "coding": [ {
          "system": "http://terminology.hl7.org/CodeSystem/v2-0074",
          "code": "LAB",
          "display": "Laboratory"
        } ]
      } ],
      "code": {
        "coding": [ {
          "system": "http://snomed.info/sct",
          "code": "166312007",
          "display": "Blood Chemistry"
        } ]
      },
      "subject": {
        "reference": "Patient/c332a984-7b39-4d9c-be86-431904cb5d99",
        "display": "Andrea Simmons"
      },
      "result": [ {
        "reference": "Observation/4280dc17-6ca5-4522-846f-977415c082c4",
        "display": "Hgb A1c MFr Bld"
      } ]
    }
  }, {
    "resource": {
      "resourceType": "Observation",
      "id": "4280dc17-6ca5-4522-846f-977415c082c4",
      "identifier": [ {
        "use": "official",
        "value": "107c2dc0-67a5-11db-bd13-0800200c9a66"
      } ],
      "status": "final",
      "category": [ {
        "coding": [ {
          "system": "http://terminology.hl7.org/CodeSystem/observation-category",
          "code": "laboratory"
        } ]
      } ],
      "code": {
        "coding": [ {
          "system": "http://loinc.org",
          "code": "4548-4",
          "display": "Hgb A1c MFr Bld"
        }, {
          "system": "http://www.ama-assn.org/go/cpt",
          "code": "83036",
          "display": "Glycated hemoglobin test"
        }, {
          "system": "http://snomed.info/sct",
          "code": "43396009",
          "display": "Hemoglobin A1c measurement"
        } ]
      },
      "subject": {
        "reference": "Patient/c332a984-7b39-4d9c-be86-431904cb5d99",
        "display": "Andrea Simmons"
      },
      "effectivePeriod": {
        "start": "2010-10-25T10:00:00+02:00"
      },
      "valueQuantity": {
        "value": 6.8,
        "unit": "%",
        "system": "http://unitsofmeasure.org",
        "code": "%"
      },
      "interpretation": [ {
        "coding": [ {
          "system": "http://terminology.hl7.org/CodeSystem/v3-ObservationInterpretation",
          "code": "N"
        } ]
      } ],
      "referenceRange": [ {
        "text": "4-5.6%"
      } ]
    }
  }, {
    "resource": {
      "resourceType": "Procedure",
      "id": "40cee83f-d084-4269-91ca-802fca0ad807",
      "identifier": [ {
        "use": "official",
        "value": "e401f340-7be2-11db-9fe1-0800200c9a66"
      } ],
      "status": "completed",
      "code": {
        "coding": [ {
          "system": "http://www.ama-assn.org/go/cpt",
          "code": "59410",
          "display": "Obstetrical care"
        }, {
          "system": "http://snomed.info/sct",
          "code": "169961004",
          "display": "Normal birth"
        } ]
      },
      "subject": {
        "reference": "Patient/c332a984-7b39-4d9c-be86-431904cb5d99",
        "display": "Andrea Simmons"
      },
      "performedPeriod": {
        "start": "2010-11-16T10:00:00+01:00"
      }
    }
  }, {
    "resource": {
      "resourceType": "Observation",
      "id": "d0852dca-72f3-4e88-a384-bd3e2db0d991",
      "identifier": [ {
        "use": "official",
        "value": "c6f88321-67ad-11db-bd13-0800200c9a66"
      } ],
      "status": "final",
      "category": [ {
        "coding": [ {
          "system": "http://terminology.hl7.org/CodeSystem/observation-category",
          "code": "vital-signs",
          "display": "Vital Signs"
        } ]
      } ],
      "code": {
        "coding": [ {
          "system": "http://loinc.org",
          "code": "8462-4",
          "display": "BP Diastolic"
        } ]
      },
      "subject": {
        "reference": "Patient/c332a984-7b39-4d9c-be86-431904cb5d99",
        "display": "Andrea Simmons"
      },
      "effectivePeriod": {
        "start": "2010-11-08T10:00:00+01:00"
      },
      "valueQuantity": {
        "value": 70,
        "unit": "mm[Hg]",
        "system": "http://unitsofmeasure.org",
        "code": "mm[Hg]"
      }
    }
  }, {
    "resource": {
      "resourceType": "Observation",
      "id": "01385567-25c4-43b3-8dfe-e3e868d10517",
      "identifier": [ {
        "use": "official",
        "value": "c6f88321-67ad-11db-bd13-0800200c9a66"
      } ],
      "status": "final",
      "category": [ {
        "coding": [ {
          "system": "http://terminology.hl7.org/CodeSystem/observation-category",
          "code": "vital-signs",
          "display": "Vital Signs"
        } ]
      } ],
      "code": {
        "coding": [ {
          "system": "http://loinc.org",
          "code": "8480-6",
          "display": "BP Systolic"
        } ]
      },
      "subject": {
        "reference": "Patient/c332a984-7b39-4d9c-be86-431904cb5d99",
        "display": "Andrea Simmons"
      },
      "effectivePeriod": {
        "start": "2010-11-08T10:00:00+01:00"
      },
      "valueQuantity": {
        "value": 118,
        "unit": "mm[Hg]",
        "system": "http://unitsofmeasure.org",
        "code": "mm[Hg]"
      }
    }
  }, {
    "resource": {
      "resourceType": "Observation",
      "id": "cea0991a-2964-4c36-8477-12fc72082a1b",
      "identifier": [ {
        "use": "official",
        "value": "c6f88321-67ad-11db-bd13-0800200c9a66"
      } ],
      "status": "final",
      "category": [ {
        "coding": [ {
          "system": "http://terminology.hl7.org/CodeSystem/observation-category",
          "code": "vital-signs",
          "display": "Vital Signs"
        } ]
      } ],
      "code": {
        "coding": [ {
          "system": "http://loinc.org",
          "code": "8462-4",
          "display": "BP Diastolic"
        } ]
      },
      "subject": {
        "reference": "Patient/c332a984-7b39-4d9c-be86-431904cb5d99",
        "display": "Andrea Simmons"
      },
      "effectivePeriod": {
        "start": "2010-10-25T10:00:00+02:00"
      },
      "valueQuantity": {
        "value": 72,
        "unit": "mm[Hg]",
        "system": "http://unitsofmeasure.org",
        "code": "mm[Hg]"
      }
    }
  }, {
    "resource": {
      "resourceType": "Observation",
      "id": "dc414703-c31a-4e3d-8703-2322b2816c70",
      "identifier": [ {
        "use": "official",
        "value": "c6f88321-67ad-11db-bd13-0800200c9a66"
      } ],
      "status": "final",
      "category": [ {
        "coding": [ {
          "system": "http://terminology.hl7.org/CodeSystem/observation-category",
          "code": "vital-signs",
          "display": "Vital Signs"
        } ]
      } ],
      "code": {
        "coding": [ {
          "system": "http://loinc.org",
          "code": "8480-6",
          "display": "BP Systolic"
        } ]
      },
      "subject": {
        "reference": "Patient/c332a984-7b39-4d9c-be86-431904cb5d99",
        "display": "Andrea Simmons"
      },
      "effectivePeriod": {
        "start": "2010-10-25T10:00:00+02:00"
      },
      "valueQuantity": {
        "value": 116,
        "unit": "mm[Hg]",
        "system": "http://unitsofmeasure.org",
        "code": "mm[Hg]"
      }
    }
  }, {
    "resource": {
      "resourceType": "Observation",
      "id": "e93938a5-fe3b-4b15-b5f9-22e13781aa1b",
      "identifier": [ {
        "use": "official",
        "value": "c6f88321-67ad-11db-bd13-0800200c9a66"
      } ],
      "status": "final",
      "category": [ {
        "coding": [ {
          "system": "http://terminology.hl7.org/CodeSystem/observation-category",
          "code": "vital-signs",
          "display": "Vital Signs"
        } ]
      } ],
      "code": {
        "coding": [ {
          "system": "http://loinc.org",
          "code": "8462-4",
          "display": "BP Diastolic"
        } ]
      },
      "subject": {
        "reference": "Patient/c332a984-7b39-4d9c-be86-431904cb5d99",
        "display": "Andrea Simmons"
      },
      "effectivePeriod": {
        "start": "2010-05-15T10:00:00+02:00"
      },
      "valueQuantity": {
        "value": 76,
        "unit": "mm[Hg]",
        "system": "http://unitsofmeasure.org",
        "code": "mm[Hg]"
      }
    }
  }, {
    "resource": {
      "resourceType": "Observation",
      "id": "bc963633-7c15-4482-8d72-ddc655179533",
      "identifier": [ {
        "use": "official",
        "value": "c6f88321-67ad-11db-bd13-0800200c9a66"
      } ],
      "status": "final",
      "category": [ {
        "coding": [ {
          "system": "http://terminology.hl7.org/CodeSystem/observation-category",
          "code": "vital-signs",
          "display": "Vital Signs"
        } ]
      } ],
      "code": {
        "coding": [ {
          "system": "http://loinc.org",
          "code": "8480-6",
          "display": "BP Systolic"
        } ]
      },
      "subject": {
        "reference": "Patient/c332a984-7b39-4d9c-be86-431904cb5d99",
        "display": "Andrea Simmons"
      },
      "effectivePeriod": {
        "start": "2010-05-15T10:00:00+02:00"
      },
      "valueQuantity": {
        "value": 116,
        "unit": "mm[Hg]",
        "system": "http://unitsofmeasure.org",
        "code": "mm[Hg]"
      }
    }
  }, {
    "resource": {
      "resourceType": "Observation",
      "id": "fab1d0dc-6f69-4a30-8780-4088200a3c2e",
      "identifier": [ {
        "use": "official",
        "value": "c6f88321-67ad-11db-bd13-0800200c9a66"
      } ],
      "status": "final",
      "category": [ {
        "coding": [ {
          "system": "http://terminology.hl7.org/CodeSystem/observation-category",
          "code": "vital-signs",
          "display": "Vital Signs"
        } ]
      } ],
      "code": {
        "coding": [ {
          "system": "http://loinc.org",
          "code": "8480-6",
          "display": "BP Systolic"
        } ]
      },
      "subject": {
        "reference": "Patient/c332a984-7b39-4d9c-be86-431904cb5d99",
        "display": "Andrea Simmons"
      },
      "effectivePeriod": {
        "start": "2010-09-20T10:00:00+02:00"
      },
      "valueQuantity": {
        "value": 112,
        "unit": "mm[Hg]",
        "system": "http://unitsofmeasure.org",
        "code": "mm[Hg]"
      }
    }
  }, {
    "resource": {
      "resourceType": "Observation",
      "id": "a8260446-7498-4d25-b357-b2a739b46acb",
      "identifier": [ {
        "use": "official",
        "value": "c6f88321-67ad-11db-bd13-0800200c9a66"
      } ],
      "status": "final",
      "category": [ {
        "coding": [ {
          "system": "http://terminology.hl7.org/CodeSystem/observation-category",
          "code": "vital-signs",
          "display": "Vital Signs"
        } ]
      } ],
      "code": {
        "coding": [ {
          "system": "http://loinc.org",
          "code": "8462-4",
          "display": "BP Diastolic"
        } ]
      },
      "subject": {
        "reference": "Patient/c332a984-7b39-4d9c-be86-431904cb5d99",
        "display": "Andrea Simmons"
      },
      "effectivePeriod": {
        "start": "2010-09-20T10:00:00+02:00"
      },
      "valueQuantity": {
        "value": 74,
        "unit": "mm[Hg]",
        "system": "http://unitsofmeasure.org",
        "code": "mm[Hg]"
      }
    }
  }, {
    "resource": {
      "resourceType": "Observation",
      "id": "9329d677-ebfb-4be6-a652-cd9fb99cc180",
      "identifier": [ {
        "use": "official",
        "system": "urn:oid:2.16.840.1.113883.19",
        "value": "123456789"
      } ],
      "status": "final",
      "code": {
        "coding": [ {
          "system": "urn:oid:2.16.840.1.113883.5.4",
          "code": "ASSERTION"
        } ]
      },
      "subject": {
        "reference": "Patient/c332a984-7b39-4d9c-be86-431904cb5d99",
        "display": "Andrea Simmons"
      },
      "effectivePeriod": {
        "start": "2010-03-31T10:00:00+02:00"
      },
      "valueCodeableConcept": {
        "coding": [ {
          "system": "http://snomed.info/sct",
          "code": "266919005",
          "display": "Never smoker (Never Smoked)"
        }, {
          "system": "http://snomed.info/sct",
          "code": "449868002",
          "display": "Current every day smoker"
        } ]
      }
    }
  } ]
}