{
  "resourceType": "Bundle",
  "entry": [ {
    "resource": {
      "resourceType": "Composition",
      "id": "a7ba3f9e-2a08-4820-99fc-c7a73a815600",
      "identifier": {
        "use": "official",
        "value": "db734647-fc99-424c-a864-7e3cda82e703"
      },
      "status": "preliminary",
      "type": {
        "coding": [ {
          "system": "http://loinc.org",
          "code": "34133-9",
          "display": "Summarization of Episode Note"
        } ]
      },
      "category": [ {
        "coding": [ {
          "system": "http://hl7.org/fhir/ValueSet/doc-classcodes",
          "code": "LP173421-7",
          "display": "Note"
        } ]
      } ],
      "subject": {
        "reference": "Patient/76ddc605-d428-40e6-b1ae-d39c4b9bc2f7",
        "display": "Kenneth Mathis"
      },
      "date": "2014-04-16T11:55:27+02:00",
      "author": [ {
        "reference": "Practitioner/250d52cd-80b5-4f6e-af53-0adf39f02058",
        "display": "Henry Seven MD"
      } ],
      "title": "Community Health and Hospitals: Health Summary",
      "confidentiality": "N",
      "attester": [ {
        "mode": "legal",
        "time": "2013-04-18T09:00:00+05:00",
        "party": {
          "reference": "Practitioner/57dc2dd4-d237-4147-9b7c-cfb9c13c3e79",
          "display": "Henry Seven"
        }
      }, {
        "mode": "professional",
        "time": "2014-04-16T11:55:27+02:00",
        "party": {
          "reference": "Practitioner/57dc2dd4-d237-4147-9b7c-cfb9c13c3e79",
          "display": "Henry Seven"
        }
      } ],
      "custodian": {
        "reference": "Organization/c07e57dc-4e23-491f-be8d-1f5d69cbf7c3",
        "display": "Community Health and Hospitals"
      },
      "event": [ {
        "period": {
          "start": "2010-03-31T10:00:00+02:00",
          "end": "2010-11-25T10:00:00+01:00"
        },
        "detail": [ {
          "reference": "Practitioner/d34b59fa-ec0a-499b-b84d-80bb5f50df69",
          "display": "Henry Seven MD"
        } ]
      } ],
      "section": [ {
        "title": "Results",
        "code": {
          "coding": [ {
            "system": "http://loinc.org",
            "code": "30954-2",
            "display": "Results"
          } ]
        },
        "text": {
          "status": "additional",
          "div": "<div xmlns=\"http://www.w3.org/1999/xhtml\"><table><thead><tr><th>Group Description</th><th>Code System</th><th>Code</th><th>Code Description</th><th>Value</th><th>Unit</th><th>Reference Range</th><th>Date and Time</th><th>Status</th></tr></thead><tbody><tr><td>HbA1c test</td><td>LOINC</td><td>4548-4</td><td><span/>Hgb A1c MFr Bld</td><td>7.2</td><td>%</td><td>4-5.6%</td><td>03-31-2010 10:00:00</td><td>Completed</td></tr><tr><td/><td>CPT</td><td>83036</td><td>Glycated hemoglobin test</td><td/><td/><td/><td/><td/></tr><tr><td/><td>SNOMED-CT</td><td>43396009</td><td>Hemoglobin A1c measurement</td><td/><td/><td/><td/><td/></tr><tr><td>High Density Lipoprotein (HDL)</td><td>LOINC</td><td>14646-4</td><td><span/>HDLc SerPl-sCnc</td><td>55</td><td>mg/dL</td><td>&amp;gt;=40 mg/dL</td><td>03-31-2010 10:00:00</td><td>Completed</td></tr><tr><td/><td>CPT</td><td>83701</td><td>Lipoprotein bld, hr fraction</td><td/><td/><td/><td/><td/></tr><tr><td/><td>SNOMED-CT</td><td>28036006</td><td>High density lipoprotein cholesterol measurement</td><td/><td/><td/><td/><td/></tr><tr><td>Low Density Lipoprotein (LDL)</td><td>LOINC</td><td>2089-1</td><td><span/>LDLc SerPl-mCnc</td><td>150</td><td>mg/dL</td><td>&amp;lt;130 mg/dL (calc)</td><td>03-31-2010 10:00:00</td><td>Completed</td></tr><tr><td/><td>CPT</td><td>83721</td><td>Assay of blood lipoprotein</td><td/><td/><td/><td/><td/></tr><tr><td/><td>SNOMED-CT</td><td>113079009</td><td>Low density lipoprotein cholesterol measurement</td><td/><td/><td/><td/><td/></tr><tr><td>Total Cholesterol</td><td>LOINC</td><td>2093-3</td><td><span/>Cholest SerPl-mCnc</td><td>230</td><td>mg/dL</td><td>125-200 mg/dL</td><td>03-31-2010 10:00:00</td><td>Completed</td></tr><tr><td/><td>CPT</td><td>82465</td><td>Assay, bld/serum cholesterol</td><td/><td/><td/><td/><td/></tr><tr><td/><td>SNOMED-CT</td><td>121868005</td><td>Total cholesterol measurement</td><td/><td/><td/><td/><td/></tr><tr><td>Triglycerides</td><td>LOINC</td><td>12951-0</td><td><span/>Trigl SerPl Calc-mCnc</td><td>125</td><td>mg/dL</td><td>10-39 years: 55-110 mg/dL | 40-59 years: 70-150 mg/dL | &amp;gt;60 years: 80-150 mg/dL | Therapeutic Target: &amp;lt;100 mg/dL </td><td>03-31-2010 10:00:00</td><td>Completed</td></tr><tr><td/><td>CPT</td><td>84478</td><td>Assay of triglycerides</td><td/><td/><td/><td/><td/></tr><tr><td/><td>SNOMED-CT</td><td>14740000</td><td>Triglycerides measurement</td><td/><td/><td/><td/><td/></tr><tr><td>Urine Macroalbumin</td><td>LOINC</td><td>50561-0</td><td><span/>Prot Ur Strip.auto-mCnc</td><td>negative</td><td/><td>3.6-5.1 mg/dL</td><td>03-31-2010 10:00:00</td><td>Completed</td></tr><tr><td/><td>CPT</td><td>84156</td><td>Assay of protein urine</td><td/><td/><td/><td/><td/></tr><tr><td/><td>SNOMED-CT</td><td>57378007</td><td>Protein measurement, urine</td><td/><td/><td/><td/><td/></tr><tr><td>HbA1c test</td><td>LOINC</td><td>4548-4</td><td><span/>Hgb A1c MFr Bld</td><td>6.5</td><td>%</td><td>4-5.6%</td><td>07-15-2010 10:00:00</td><td>Completed</td></tr><tr><td/><td>CPT</td><td>83036</td><td>Glycated hemoglobin test</td><td/><td/><td/><td/><td/></tr><tr><td/><td>SNOMED-CT</td><td>43396009</td><td>Hemoglobin A1c measurement</td><td/><td/><td/><td/><td/></tr><tr><td>High Density Lipoprotein (HDL)</td><td>LOINC</td><td>14646-4</td><td><span/>HDLc SerPl-sCnc</td><td>50</td><td>mg/dL</td><td>&amp;gt;=40 mg/dL</td><td>07-15-2010 10:00:00</td><td>Completed</td></tr><tr><td/><td>CPT</td><td>83701</td><td>Lipoprotein bld, hr fraction</td><td/><td/><td/><td/><td/></tr><tr><td/><td>SNOMED-CT</td><td>28036006</td><td>High density lipoprotein cholesterol measurement</td><td/><td/><td/><td/><td/></tr><tr><td>Low Density Lipoprotein (LDL)</td><td>LOINC</td><td>2089-1</td><td><span/>LDLc SerPl-mCnc</td><td>110</td><td>mg/dL</td><td>&amp;lt;130 mg/dL (calc)</td><td>07-15-2010 10:00:00</td><td>Completed</td></tr><tr><td/><td>CPT</td><td>83721</td><td>Assay of blood lipoprotein</td><td/><td/><td/><td/><td/></tr><tr><td/><td>SNOMED-CT</td><td>113079009</td><td>Low density lipoprotein cholesterol measurement</td><td/><td/><td/><td/><td/></tr><tr><td>Total Cholesterol</td><td>LOINC</td><td>2093-3</td><td><span/>Cholest SerPl-mCnc</td><td>185</td><td>mg/dL</td><td>125-200 mg/dL</td><td>07-15-2010 10:00:00</td><td>Completed</td></tr><tr><td/><td>CPT</td><td>82465</td><td>Assay, bld/serum cholesterol</td><td/><td/><td/><td/><td/></tr><tr><td/><td>SNOMED-CT</td><td>121868005</td><td>Total cholesterol measurement</td><td/><td/><td/><td/><td/></tr><tr><td>Triglycerides</td><td>LOINC</td><td>12951-0</td><td><span/>Trigl SerPl Calc-mCnc</td><td>125</td><td>mg/dL</td><td>10-39 years: 55-110 mg/dL | 40-59 years: 70-150 mg/dL | &amp;gt;60 years: 80-150 mg/dL | Therapeutic Target: &amp;lt;100 mg/dL </td><td>07-15-2010 10:00:00</td><td>Completed</td></tr><tr><td/><td>CPT</td><td>84478</td><td>Assay of triglycerides</td><td/><td/><td/><td/><td/></tr><tr><td/><td>SNOMED-CT</td><td>14740000</td><td>Triglycerides measurement</td><td/><td/><td/><td/><td/></tr><tr><td>HbA1c test</td><td>LOINC</td><td>4548-4</td><td><span/>Hgb A1c MFr Bld</td><td>6.3</td><td>%</td><td>4-5.6%</td><td>11-25-2010 10:00:00</td><td>Completed</td></tr><tr><td/><td>CPT</td><td>83036</td><td>Glycated hemoglobin test</td><td/><td/><td/><td/><td/></tr><tr><td/><td>SNOMED-CT</td><td>43396009</td><td>Hemoglobin A1c measurement</td><td/><td/><td/><td/><td/></tr></tbody></table></div>"
        },
        "mode": "snapshot",
        "entry": [ {
          "reference": "DiagnosticReport/51fbb31f-0e9a-4986-88c4-c41544ed511f",
          "display": "Lipid Panel"
        }, {
          "reference": "DiagnosticReport/eaa14fa6-d5c2-4be3-bc18-513f4715a26b",
          "display": "Blood Chemistry"
        }, {
          "reference": "DiagnosticReport/6123692a-d05d-4a38-b4f1-6d2bb127a199",
          "display": "Urinalysis"
        }, {
          "reference": "DiagnosticReport/1bd9ac07-ec20-48fc-afed-37d105b51fd2",
          "display": "Blood Chemistry"
        }, {
          "reference": "DiagnosticReport/594de9cf-3d1b-4345-a7ad-4ca04d58fe17",
          "display": "Blood Chemistry"
        }, {
          "reference": "DiagnosticReport/5f84e4e8-c27e-4f0c-a541-12e63464d216",
          "display": "Lipid Panel"
        } ]
      }, {
        "title": "Vital Signs",
        "code": {
          "coding": [ {
            "system": "http://loinc.org",
            "code": "8716-3",
            "display": "Vital Signs"
          } ]
        },
        "text": {
          "status": "additional",
          "div": "<div xmlns=\"http://www.w3.org/1999/xhtml\"><table><thead><tr><th>Group Description</th><th>Code System</th><th>Code</th><th>Code Description</th><th>Value</th><th>Unit</th><th>Date and Time</th><th>Status</th></tr></thead><tbody><tr><td>BMI</td><td>LOINC</td><td>39156-5</td><td><span/>BMI</td><td>21.9</td><td>kg/m2</td><td>03-31-2010 10:00:00</td><td>Finding</td></tr><tr><td>Diastolic Blood Pressure</td><td>LOINC</td><td>8462-4</td><td><span/>BP Diastolic</td><td>76</td><td>mm[Hg]</td><td>03-31-2010 10:00:00</td><td>Finding</td></tr><tr><td>Systolic Blood Pressure</td><td>LOINC</td><td>8480-6</td><td><span/>BP Systolic</td><td>128</td><td>mm[Hg]</td><td>03-31-2010 10:00:00</td><td>Finding</td></tr><tr><td>BMI</td><td>LOINC</td><td>39156-5</td><td><span/>BMI</td><td>22.5</td><td>kg/m2</td><td>07-15-2010 10:00:00</td><td>Finding</td></tr><tr><td>Diastolic Blood Pressure</td><td>LOINC</td><td>8462-4</td><td><span/>BP Diastolic</td><td>74</td><td>mm[Hg]</td><td>07-15-2010 10:00:00</td><td>Finding</td></tr><tr><td>Systolic Blood Pressure</td><td>LOINC</td><td>8480-6</td><td><span/>BP Systolic</td><td>132</td><td>mm[Hg]</td><td>07-15-2010 10:00:00</td><td>Finding</td></tr><tr><td>BMI</td><td>LOINC</td><td>39156-5</td><td><span/>BMI</td><td>22</td><td>kg/m2</td><td>11-25-2010 10:00:00</td><td>Finding</td></tr><tr><td>Diastolic Blood Pressure</td><td>LOINC</td><td>8462-4</td><td><span/>BP Diastolic</td><td>94</td><td>mm[Hg]</td><td>11-25-2010 10:00:00</td><td>Finding</td></tr><tr><td>Systolic Blood Pressure</td><td>LOINC</td><td>8480-6</td><td><span/>BP Systolic</td><td>152</td><td>mm[Hg]</td><td>11-25-2010 10:00:00</td><td>Finding</td></tr></tbody></table></div>"
        },
        "mode": "snapshot",
        "entry": [ {
          "reference": "Observation/5ec4d6c0-736a-4b48-8402-cbb67319f4f1",
          "display": "BP Systolic"
        }, {
          "reference": "Observation/11d2f825-99c3-401e-968d-82c057499951",
          "display": "BMI"
        }, {
          "reference": "Observation/df039912-a801-4c01-8954-e01d1a462c7d",
          "display": "BP Diastolic"
        }, {
          "reference": "Observation/c8c58757-bc87-4187-b3b4-53bae42fd8d6",
          "display": "BP Systolic"
        }, {
          "reference": "Observation/27545383-ae1f-4f0c-8ad1-e3d6b46fb739",
          "display": "BP Diastolic"
        }, {
          "reference": "Observation/720aea8f-164d-4677-924b-115800c22097",
          "display": "BMI"
        }, {
          "reference": "Observation/0464fbe0-8a34-43b7-ba27-87d6c0478755",
          "display": "BMI"
        }, {
          "reference": "Observation/8f06d501-cd97-4f6a-b8fc-fc07cae4a458",
          "display": "BP Systolic"
        }, {
          "reference": "Observation/98f21b43-5bd1-42d3-b81f-efd0b646ac1f",
          "display": "BP Diastolic"
        } ]
      }, {
        "title": "Encounters",
        "code": {
          "coding": [ {
            "system": "http://loinc.org",
            "code": "46240-8",
            "display": "History of encounters"
          } ]
        },
        "text": {
          "status": "additional",
          "div": "<div xmlns=\"http://www.w3.org/1999/xhtml\"><table><thead><tr><th>Group Description</th><th>Code System</th><th>Code</th><th>Code Description</th><th>Date and Time</th><th>Status</th></tr></thead><tbody><tr><td>Encounter Outpatient</td><td>CPT</td><td>99213</td><td><span/>Office/outpatient visit, est</td><td>03-31-2010 10:00:00</td><td>Performed</td></tr><tr><td/><td>ICD-9-CM</td><td>V70.0</td><td>Routine general medical examination at a health care facility</td><td/><td/></tr><tr><td>Encounter Ophthalmological Services</td><td>CPT</td><td>92012</td><td><span/>Eye exam established pat</td><td>05-10-2010 10:00:00</td><td>Performed</td></tr><tr><td>Encounter Outpatient</td><td>CPT</td><td>99213</td><td><span/>Office/outpatient visit, est</td><td>07-15-2010 10:00:00</td><td>Performed</td></tr><tr><td/><td>ICD-9-CM</td><td>V70.0</td><td>Routine general medical examination at a health care facility</td><td/><td/></tr><tr><td>Encounter Prev Med 40 and Older</td><td>CPT</td><td>99396</td><td><span/>Prev visit, est, age 40-64</td><td>09-30-2010 10:00:00</td><td>Performed</td></tr><tr><td>Encounter Ophthalmological Services</td><td>CPT</td><td>92012</td><td><span/>Eye exam established pat</td><td>11-25-2010 10:00:00</td><td>Performed</td></tr></tbody></table></div>"
        },
        "mode": "snapshot",
        "entry": [ {
          "reference": "Encounter/413a4c1d-6f71-43a4-9100-25a6a193ef2a",
          "display": "Office/outpatient visit, est"
        }, {
          "reference": "Encounter/073426ec-22d6-4d7c-8443-6d9b7db63c4e",
          "display": "Eye exam established pat"
        }, {
          "reference": "Encounter/2f437450-2e64-4ddc-887c-bafd0885213c",
          "display": "Prev visit, est, age 40-64"
        }, {
          "reference": "Encounter/8b4d1c0a-c542-4155-b4a0-d4aa9bd79545",
          "display": "Eye exam established pat"
        }, {
          "reference": "Encounter/d10e9010-54fc-4470-b9b7-b9299f6ec3b1",
          "display": "Office/outpatient visit, est"
        } ]
      }, {
        "title": "Problems",
        "code": {
          "coding": [ {
            "system": "http://loinc.org",
            "code": "11450-4",
            "display": "PROBLEM LIST"
          } ]
        },
        "text": {
          "status": "additional",
          "div": "<div xmlns=\"http://www.w3.org/1999/xhtml\"><table><thead><tr><th>Group Description</th><th>Code System</th><th>Code</th><th>Code Description</th><th>Date and Time</th><th>Status</th></tr></thead><tbody><tr><td>Diabetes</td><td>SNOMED-CT</td><td>44054006</td><td><span/>Diabetes mellitus type 2</td><td>03-31-2010 10:00:00</td><td>Active</td></tr><tr><td/><td>ICD-10-CM</td><td>E11.9</td><td>Type 2 diabetes mellitus without complications</td><td/><td/></tr><tr><td/><td>ICD-9-CM</td><td>250.00</td><td>Diabetes mellitus without mention of complication, type II or unspecified type, not stated as uncontrolled</td><td/><td/></tr><tr><td>Hypertension</td><td>SNOMED-CT</td><td>59621000</td><td><span/>Essential hypertension</td><td>03-31-2010 10:00:00</td><td>Active</td></tr><tr><td/><td>ICD-10-CM</td><td>I10</td><td>Essential (primary) hypertension</td><td/><td/></tr><tr><td/><td>ICD-9-CM</td><td>401.9</td><td>Unspecified essential hypertension</td><td/><td/></tr><tr><td>Diabetic Retinopathy</td><td>SNOMED-CT</td><td>312904009</td><td><span/>Moderate nonproliferative diabetic retinopathy</td><td>05-10-2010 10:00:00</td><td>Active</td></tr><tr><td/><td>ICD-10-CM</td><td>E13.33</td><td>Other specified diabetes mellitus with moderate nonproliferative diabetic retinopathy</td><td/><td/></tr><tr><td/><td>ICD-9-CM</td><td>362.05</td><td>Moderate nonproliferative diabetic retinopathy</td><td/><td/></tr></tbody></table></div>"
        },
        "mode": "snapshot",
        "entry": [ {
          "reference": "Condition/cf2c5e02-ef37-4f5b-a9cb-c70fdc0ccbac",
          "display": "Essential hypertension"
        } ]
      }, {
        "title": "Procedures",
        "code": {
          "coding": [ {
            "system": "http://loinc.org",
            "code": "47519-4",
            "display": "HISTORY OF PROCEDURES"
          } ]
        },
        "text": {
          "status": "additional",
          "div": "<div xmlns=\"http://www.w3.org/1999/xhtml\"><table><thead><tr><th>Group Description</th><th>Code System</th><th>Code</th><th>Code Description</th><th>Date and Time</th><th>Status</th></tr></thead><tbody><tr><td>Foot Exam</td><td>SNOMED-CT</td><td>401191002</td><td><span/>Diabetic foot examination</td><td>03-31-2010 10:00:00</td><td>Performed</td></tr><tr><td>Eye Exam</td><td>CPT</td><td>92012</td><td><span/>Eye exam established pat</td><td>05-10-2010 10:00:00</td><td>Performed</td></tr><tr><td/><td>HCPCS</td><td>S0621</td><td>Routine ophthalmological exa</td><td/><td/></tr><tr><td/><td>ICD-9-CM</td><td>95.03</td><td>Extended ophthalmologic work-up</td><td/><td/></tr><tr><td/><td>SNOMED-CT</td><td>36228007</td><td>Ophthalmic examination and evaluation</td><td/><td/></tr><tr><td>Macular or Fundus Exam</td><td>SNOMED-CT</td><td>312905005</td><td><span/>Severe nonproliferative diabetic retinopathy</td><td>05-10-2010 10:00:00</td><td>Performed</td></tr><tr><td/><td>SNOMED-CT</td><td>37231002</td><td>Macular retinal edema</td><td/><td/></tr><tr><td/><td>SNOMED-CT</td><td>410455004</td><td>Slit lamp fundus examination</td><td/><td/></tr><tr><td>severity of retinopathy and macular edema fin</td><td>SNOMED-CT</td><td>399875001</td><td><span/>Non-high-risk proliferative diabetic retinopathy with clinically significant macular edema</td><td>05-10-2010 10:00:00</td><td>Performed</td></tr><tr><td>Foot Exam</td><td>SNOMED-CT</td><td>401191002</td><td><span/>Diabetic foot examination</td><td>07-15-2010 10:00:00</td><td>Performed</td></tr><tr><td>Foot Exam</td><td>SNOMED-CT</td><td>401191002</td><td><span/>Diabetic foot examination</td><td>11-25-2010 10:00:00</td><td>Performed</td></tr></tbody></table></div>"
        },
        "mode": "snapshot"
      }, {
        "title": "Allergies,  Adverse Reactions & Alerts",
        "code": {
          "coding": [ {
            "system": "http://loinc.org",
            "code": "48765-2",
            "display": "Allergies, adverse reactions, alerts"
          } ]
        },
        "text": {
          "status": "additional",
          "div": "<div xmlns=\"http://www.w3.org/1999/xhtml\"><table><thead><tr><th>Group Description</th><th>Code System</th><th>Code</th><th>Code Description</th><th>Severity</th><th>Susceptibility</th><th>Date and Time</th><th>Status</th></tr></thead><tbody><tr><td>Fosfomycin</td><td>RxNorm</td><td>808917</td><td><span/>Fosfomycin 33.3 MG/ML Oral Suspension</td><td><span/>Fatal</td><td>Moderately Susceptible</td><td>03-31-2010 10:00:00</td><td>Active</td></tr></tbody></table></div>"
        },
        "mode": "snapshot",
        "entry": [ {
          "reference": "AllergyIntolerance/6263ff5b-b407-44d3-a78f-525ba582f4e2",
          "display": "Fosfomycin + Fosfomycin 33.3 MG/ML Oral Suspension"
        } ]
      }, {
        "title": "Medications",
        "code": {
          "coding": [ {
            "system": "http://loinc.org",
            "code": "10160-0",
            "display": "History of Medication Use"
          } ]
        },
        "text": {
          "status": "additional",
          "div": "<div xmlns=\"http://www.w3.org/1999/xhtml\"><table><thead><tr><th>Group Description</th><th>Code System</th><th>Code</th><th>Code Description</th><th>Date and Time</th><th>Status</th></tr></thead><tbody><tr><td>Antidiabetics</td><td>RxNorm</td><td>744863</td><td><span/>exenatide 0.25 MG/ML Injectable Solution</td><td>03-31-2010 10:00:00</td><td>Active</td></tr><tr><td>Statins</td><td>RxNorm</td><td>617314</td><td><span/>atorvastatin 10 MG Oral Tablet [Lipitor]</td><td>03-31-2010 10:00:00</td><td>Active</td></tr><tr><td>Antidiabetics</td><td>RxNorm</td><td>744863</td><td><span/>exenatide 0.25 MG/ML Injectable Solution</td><td>11-25-2010 10:00:00</td><td>Active</td></tr><tr><td>Statins</td><td>RxNorm</td><td>617314</td><td><span/>atorvastatin 10 MG Oral Tablet [Lipitor]</td><td>11-25-2010 10:00:00</td><td>Active</td></tr></tbody></table></div>"
        },
        "mode": "snapshot",
        "entry": [ {
          "reference": "MedicationStatement/b32cba65-e11c-41d6-8de1-d108641a9772",
          "display": "exenatide 0.25 MG/ML Injectable Solution"
        }, {
          "reference": "MedicationStatement/15708d90-618c-4af2-b165-d128bf98a771",
          "display": "exenatide 0.25 MG/ML Injectable Solution"
        }, {
          "reference": "MedicationStatement/1404f91d-cfa8-4e22-a645-f3053e55bb1f",
          "display": "atorvastatin 10 MG Oral Tablet [Lipitor]"
        }, {
          "reference": "MedicationStatement/f906cff4-1f45-49eb-bbf7-330cb64f4c6e",
          "display": "atorvastatin 10 MG Oral Tablet [Lipitor]"
        } ]
      }, {
        "title": "Social History",
        "code": {
          "coding": [ {
            "system": "http://loinc.org",
            "code": "29762-2",
            "display": "Social History"
          } ]
        },
        "text": {
          "status": "additional",
          "div": "<div xmlns=\"http://www.w3.org/1999/xhtml\"><table><thead><tr><th>Group Description</th><th>Code System</th><th>Code</th><th>Code Description</th><th>Date and Time</th><th>Status</th></tr></thead><tbody><tr><td>Tobacco Use</td><td>SNOMED-CT</td><td>266919005</td><td><span/>Never smoker (Never Smoked)</td><td>03-31-2010 10:00:00</td><td>Active</td></tr><tr><td/><td>SNOMED-CT</td><td>449868002</td><td>Current every day smoker</td><td/><td/></tr></tbody></table></div>"
        },
        "mode": "snapshot",
        "entry": [ {
          "reference": "Observation/190a68a0-2be1-4ead-b431-b7a7ac03c99f"
        } ]
      } ]
    }
  }, {
    "resource": {
      "resourceType": "Patient",
      "id": "76ddc605-d428-40e6-b1ae-d39c4b9bc2f7",
      "extension": [ {
        "url": "http://hl7.org/fhir/StructureDefinition/patient-religion",
        "valueCodeableConcept": {
          "coding": [ {
            "system": "urn:oid:2.16.840.1.113883.5.1076",
            "code": "1007",
            "display": "Atheism"
          } ]
        }
      }, {
        "url": "http://hl7.org/fhir/us/core/StructureDefinition/us-core-race",
        "extension": [ {
          "url": "text",
          "valueString": "Black or African American"
        }, {
          "url": "ombCategory",
          "valueCoding": {
            "system": "urn:oid:2.16.840.1.113883.6.238",
            "code": "2054-5",
            "display": "Black or African American"
          }
        } ]
      }, {
        "url": "http://hl7.org/fhir/us/core/StructureDefinition/us-core-ethnicity",
        "extension": [ {
          "url": "text",
          "valueString": "Not Hispanic or Latino"
        }, {
          "url": "ombCategory",
          "valueCoding": {
            "system": "urn:oid:2.16.840.1.113883.6.238",
            "code": "2186-5",
            "display": "Not Hispanic or Latino"
          }
        } ]
      }, {
        "url": "http://hl7.org/fhir/StructureDefinition/patient-birthPlace",
        "valueAddress": {
          "city": "Oklahoma City",
          "state": "OK",
          "postalCode": "73128",
          "country": "US"
        }
      } ],
      "identifier": [ {
        "use": "official",
        "system": "urn:oid:2.16.840.1.113883.19.5.99999.2",
        "value": "998991"
      }, {
        "use": "official",
        "system": "urn:oid:2.16.840.1.113883.4.1",
        "value": "111-00-2330"
      } ],
      "name": [ {
        "use": "usual",
        "family": "Mathis",
        "given": [ "Kenneth" ]
      } ],
      "telecom": [ {
        "system": "phone",
        "value": "(660)489-0552",
        "use": "mobile"
      } ],
      "gender": "male",
      "birthDate": "1941-09-25",
      "address": [ {
        "use": "home",
        "line": [ "194 Blair Court" ],
        "city": "High Point",
        "state": "MO",
        "postalCode": "65042",
        "country": "US"
      } ],
      "maritalStatus": {
        "coding": [ {
          "system": "http://terminology.hl7.org/CodeSystem/v3-MaritalStatus",
          "code": "M",
          "display": "Married"
        } ]
      },
      "contact": [ {
        "relationship": [ {
          "coding": [ {
            "system": "http://terminology.hl7.org/CodeSystem/v2-0131",
            "code": "C",
            "display": "Emergency Contact"
          } ]
        } ],
        "name": {
          "family": "Cross",
          "given": [ "Willie" ],
          "prefix": [ "Mr." ]
        },
        "telecom": [ {
          "system": "phone",
          "value": "(602)431-6967",
          "use": "home"
        }, {
          "system": "email",
          "value": "WillieRCross@gustr.com",
          "use": "work"
        } ],
        "address": {
          "use": "home",
          "line": [ "3660 Burnside Court" ],
          "city": "Phoenix",
          "state": "AZ",
          "postalCode": "85040",
          "country": "US"
        }
      } ],
      "communication": [ {
        "language": {
          "coding": [ {
            "system": "urn:ietf:bcp:47",
            "code": "spa"
          } ]
        },
        "preferred": true
      } ],
      "managingOrganization": {
        "reference": "Organization/ea4e0785-4c72-48cf-ac21-693dab6239e8",
        "display": "Community Health and Hospitals"
      }
    }
  }, {
    "resource": {
      "resourceType": "Organization",
      "id": "ea4e0785-4c72-48cf-ac21-693dab6239e8",
      "identifier": [ {
        "use": "official",
        "value": "2.16.840.1.113883.4.6"
      } ],
      "name": "Community Health and Hospitals",
      "telecom": [ {
        "system": "phone",
        "value": " 555-555-5000",
        "use": "work"
      } ],
      "address": [ {
        "line": [ "1001 Village Avenue" ],
        "city": "Portland",
        "state": "OR",
        "postalCode": "99123",
        "country": "US"
      } ]
    }
  }, {
    "resource": {
      "resourceType": "Practitioner",
      "id": "250d52cd-80b5-4f6e-af53-0adf39f02058",
      "identifier": [ {
        "use": "official",
        "system": "urn:oid:2.16.840.1.113883.4.6",
        "value": "99999999"
      } ],
      "name": [ {
        "family": "Seven",
        "given": [ "Henry" ],
        "suffix": [ "MD" ]
      } ],
      "telecom": [ {
        "system": "phone",
        "value": "555-555-1002",
        "use": "work"
      } ],
      "address": [ {
        "line": [ "1002 Healthcare Drive" ],
        "city": "Portland",
        "state": "OR",
        "postalCode": "99123",
        "country": "US"
      } ]
    }
  }, {
    "resource": {
      "resourceType": "Practitioner",
      "id": "57dc2dd4-d237-4147-9b7c-cfb9c13c3e79",
      "identifier": [ {
        "use": "official",
        "system": "http://hl7.org/fhir/sid/us-npi",
        "value": "999999999"
      } ],
      "name": [ {
        "family": "Seven",
        "given": [ "Henry" ]
      } ],
      "telecom": [ {
        "system": "phone",
        "value": "555-555-1002",
        "use": "work"
      } ],
      "address": [ {
        "line": [ "1001 Village Avenue" ],
        "city": "Portland",
        "state": "OR",
        "postalCode": "99123",
        "country": "US"
      } ]
    }
  }, {
    "resource": {
      "resourceType": "Practitioner",
      "id": "d34b59fa-ec0a-499b-b84d-80bb5f50df69",
      "identifier": [ {
        "use": "official",
        "system": "http://hl7.org/fhir/sid/us-npi",
        "value": "PseudoMD-1"
      } ],
      "name": [ {
        "family": "Seven",
        "given": [ "Henry" ],
        "suffix": [ "MD" ]
      } ],
      "telecom": [ {
        "system": "phone",
        "value": "+1-555-555-5000",
        "use": "home"
      } ],
      "address": [ {
        "line": [ "1001 Village Avenue" ],
        "city": "Portland",
        "state": "OR",
        "postalCode": "99123",
        "country": "US"
      } ]
    }
  }, {
    "resource": {
      "resourceType": "Organization",
      "id": "c07e57dc-4e23-491f-be8d-1f5d69cbf7c3",
      "identifier": [ {
        "use": "official",
        "system": "urn:oid:2.16.840.1.113883.4.6",
        "value": "99999999"
      } ],
      "name": "Community Health and Hospitals",
      "telecom": [ {
        "system": "phone",
        "value": " 555-555-1002",
        "use": "work"
      } ],
      "address": [ {
        "use": "work",
        "line": [ "1002 Healthcare Drive" ],
        "city": "Portland",
        "state": "OR",
        "postalCode": "99123",
        "country": "US"
      } ]
    }
  }, {
    "resource": {
      "resourceType": "DiagnosticReport",
      "id": "51fbb31f-0e9a-4986-88c4-c41544ed511f",
      "identifier": [ {
        "use": "official",
        "value": "7d5a02b0-67a4-11db-bd13-0800200c9a66"
      } ],
      "status": "final",
      "category": [ {
        "coding": [ {
          "system": "http://terminology.hl7.org/CodeSystem/v2-0074",
          "code": "LAB",
          "display": "Laboratory"
        } ]
      } ],
      "code": {
        "coding": [ {
          "system": "http://snomed.info/sct",
          "code": "16254007",
          "display": "Lipid Panel"
        } ]
      },
      "subject": {
        "reference": "Patient/76ddc605-d428-40e6-b1ae-d39c4b9bc2f7",
        "display": "Kenneth Mathis"
      },
      "result": [ {
        "reference": "Observation/60eae7ab-57d7-43cb-a7ab-bf62d591ec67",
        "display": "Cholest SerPl-mCnc"
      }, {
        "reference": "Observation/f99ff48b-7f90-4c83-861e-b2b8d8074445",
        "display": "Trigl SerPl Calc-mCnc"
      }, {
        "reference": "Observation/4c556f81-f661-4ad1-bdad-efaece29697a",
        "display": "LDLc SerPl-mCnc"
      }, {
        "reference": "Observation/7c5fa149-4e30-4607-abbb-96868d39f44a",
        "display": "HDLc SerPl-sCnc"
      } ]
    }
  }, {
    "resource": {
      "resourceType": "Observation",
      "id": "60eae7ab-57d7-43cb-a7ab-bf62d591ec67",
      "identifier": [ {
        "use": "official",
        "value": "107c2dc0-67a5-11db-bd13-0800200c9a66"
      } ],
      "status": "final",
      "category": [ {
        "coding": [ {
          "system": "http://terminology.hl7.org/CodeSystem/observation-category",
          "code": "laboratory"
        } ]
      } ],
      "code": {
        "coding": [ {
          "system": "http://loinc.org",
          "code": "2093-3",
          "display": "Cholest SerPl-mCnc"
        }, {
          "system": "http://www.ama-assn.org/go/cpt",
          "code": "82465",
          "display": "Assay, bld/serum cholesterol"
        }, {
          "system": "http://snomed.info/sct",
          "code": "121868005",
          "display": "Total cholesterol measurement"
        } ]
      },
      "subject": {
        "reference": "Patient/76ddc605-d428-40e6-b1ae-d39c4b9bc2f7",
        "display": "Kenneth Mathis"
      },
      "effectivePeriod": {
        "start": "2010-07-15T10:00:00+02:00"
      },
      "valueQuantity": {
        "value": 185,
        "unit": "mg/dL",
        "system": "http://unitsofmeasure.org",
        "code": "mg/dL"
      },
      "interpretation": [ {
        "coding": [ {
          "system": "http://terminology.hl7.org/CodeSystem/v3-ObservationInterpretation",
          "code": "N"
        } ]
      } ],
      "referenceRange": [ {
        "text": "125-200 mg/dL"
      } ]
    }
  }, {
    "resource": {
      "resourceType": "Observation",
      "id": "f99ff48b-7f90-4c83-861e-b2b8d8074445",
      "identifier": [ {
        "use": "official",
        "value": "107c2dc0-67a5-11db-bd13-0800200c9a66"
      } ],
      "status": "final",
      "category": [ {
        "coding": [ {
          "system": "http://terminology.hl7.org/CodeSystem/observation-category",
          "code": "laboratory"
        } ]
      } ],
      "code": {
        "coding": [ {
          "system": "http://loinc.org",
          "code": "12951-0",
          "display": "Trigl SerPl Calc-mCnc"
        }, {
          "system": "http://www.ama-assn.org/go/cpt",
          "code": "84478",
          "display": "Assay of triglycerides"
        }, {
          "system": "http://snomed.info/sct",
          "code": "14740000",
          "display": "Triglycerides measurement"
        } ]
      },
      "subject": {
        "reference": "Patient/76ddc605-d428-40e6-b1ae-d39c4b9bc2f7",
        "display": "Kenneth Mathis"
      },
      "effectivePeriod": {
        "start": "2010-07-15T10:00:00+02:00"
      },
      "valueQuantity": {
        "value": 125,
        "unit": "mg/dL",
        "system": "http://unitsofmeasure.org",
        "code": "mg/dL"
      },
      "interpretation": [ {
        "coding": [ {
          "system": "http://terminology.hl7.org/CodeSystem/v3-ObservationInterpretation",
          "code": "N"
        } ]
      } ],
      "referenceRange": [ {
        "text": "10-39 years: 55-110 mg/dL | 40-59 years: 70-150 mg/dL | >60 years: 80-150 mg/dL | Therapeutic Target: <100 mg/dL "
      } ]
    }
  }, {
    "resource": {
      "resourceType": "Observation",
      "id": "4c556f81-f661-4ad1-bdad-efaece29697a",
      "identifier": [ {
        "use": "official",
        "value": "107c2dc0-67a5-11db-bd13-0800200c9a66"
      } ],
      "status": "final",
      "category": [ {
        "coding": [ {
          "system": "http://terminology.hl7.org/CodeSystem/observation-category",
          "code": "laboratory"
        } ]
      } ],
      "code": {
        "coding": [ {
          "system": "http://loinc.org",
          "code": "2089-1",
          "display": "LDLc SerPl-mCnc"
        }, {
          "system": "http://www.ama-assn.org/go/cpt",
          "code": "83721",
          "display": "Assay of blood lipoprotein"
        }, {
          "system": "http://snomed.info/sct",
          "code": "113079009",
          "display": "Low density lipoprotein cholesterol measurement"
        } ]
      },
      "subject": {
        "reference": "Patient/76ddc605-d428-40e6-b1ae-d39c4b9bc2f7",
        "display": "Kenneth Mathis"
      },
      "effectivePeriod": {
        "start": "2010-07-15T10:00:00+02:00"
      },
      "valueQuantity": {
        "value": 110,
        "unit": "mg/dL",
        "system": "http://unitsofmeasure.org",
        "code": "mg/dL"
      },
      "interpretation": [ {
        "coding": [ {
          "system": "http://terminology.hl7.org/CodeSystem/v3-ObservationInterpretation",
          "code": "N"
        } ]
      } ],
      "referenceRange": [ {
        "text": "<130 mg/dL (calc)"
      } ]
    }
  }, {
    "resource": {
      "resourceType": "Observation",
      "id": "7c5fa149-4e30-4607-abbb-96868d39f44a",
      "identifier": [ {
        "use": "official",
        "value": "107c2dc0-67a5-11db-bd13-0800200c9a66"
      } ],
      "status": "final",
      "category": [ {
        "coding": [ {
          "system": "http://terminology.hl7.org/CodeSystem/observation-category",
          "code": "laboratory"
        } ]
      } ],
      "code": {
        "coding": [ {
          "system": "http://loinc.org",
          "code": "14646-4",
          "display": "HDLc SerPl-sCnc"
        }, {
          "system": "http://www.ama-assn.org/go/cpt",
          "code": "83701",
          "display": "Lipoprotein bld, hr fraction"
        }, {
          "system": "http://snomed.info/sct",
          "code": "28036006",
          "display": "High density lipoprotein cholesterol measurement"
        } ]
      },
      "subject": {
        "reference": "Patient/76ddc605-d428-40e6-b1ae-d39c4b9bc2f7",
        "display": "Kenneth Mathis"
      },
      "effectivePeriod": {
        "start": "2010-07-15T10:00:00+02:00"
      },
      "valueQuantity": {
        "value": 50,
        "unit": "mg/dL",
        "system": "http://unitsofmeasure.org",
        "code": "mg/dL"
      },
      "interpretation": [ {
        "coding": [ {
          "system": "http://terminology.hl7.org/CodeSystem/v3-ObservationInterpretation",
          "code": "N"
        } ]
      } ],
      "referenceRange": [ {
        "text": ">=40 mg/dL"
      } ]
    }
  }, {
    "resource": {
      "resourceType": "DiagnosticReport",
      "id": "eaa14fa6-d5c2-4be3-bc18-513f4715a26b",
      "identifier": [ {
        "use": "official",
        "value": "7d5a02b0-67a4-11db-bd13-0800200c9a66"
      } ],
      "status": "final",
      "category": [ {
        "coding": [ {
          "system": "http://terminology.hl7.org/CodeSystem/v2-0074",
          "code": "LAB",
          "display": "Laboratory"
        } ]
      } ],
      "code": {
        "coding": [ {
          "system": "http://snomed.info/sct",
          "code": "166312007",
          "display": "Blood Chemistry"
        } ]
      },
      "subject": {
        "reference": "Patient/76ddc605-d428-40e6-b1ae-d39c4b9bc2f7",
        "display": "Kenneth Mathis"
      },
      "result": [ {
        "reference": "Observation/9382f7aa-d4cd-40c9-8da0-df146fa727da",
        "display": "Hgb A1c MFr Bld"
      } ]
    }
  }, {
    "resource": {
      "resourceType": "Observation",
      "id": "9382f7aa-d4cd-40c9-8da0-df146fa727da",
      "identifier": [ {
        "use": "official",
        "value": "107c2dc0-67a5-11db-bd13-0800200c9a66"
      } ],
      "status": "final",
      "category": [ {
        "coding": [ {
          "system": "http://terminology.hl7.org/CodeSystem/observation-category",
          "code": "laboratory"
        } ]
      } ],
      "code": {
        "coding": [ {
          "system": "http://loinc.org",
          "code": "4548-4",
          "display": "Hgb A1c MFr Bld"
        }, {
          "system": "http://www.ama-assn.org/go/cpt",
          "code": "83036",
          "display": "Glycated hemoglobin test"
        }, {
          "system": "http://snomed.info/sct",
          "code": "43396009",
          "display": "Hemoglobin A1c measurement"
        } ]
      },
      "subject": {
        "reference": "Patient/76ddc605-d428-40e6-b1ae-d39c4b9bc2f7",
        "display": "Kenneth Mathis"
      },
      "effectivePeriod": {
        "start": "2010-07-15T10:00:00+02:00"
      },
      "valueQuantity": {
        "value": 6.5,
        "unit": "%",
        "system": "http://unitsofmeasure.org",
        "code": "%"
      },
      "interpretation": [ {
        "coding": [ {
          "system": "http://terminology.hl7.org/CodeSystem/v3-ObservationInterpretation",
          "code": "N"
        } ]
      } ],
      "referenceRange": [ {
        "text": "4-5.6%"
      } ]
    }
  }, {
    "resource": {
      "resourceType": "DiagnosticReport",
      "id": "6123692a-d05d-4a38-b4f1-6d2bb127a199",
      "identifier": [ {
        "use": "official",
        "value": "7d5a02b0-67a4-11db-bd13-0800200c9a66"
      } ],
      "status": "final",
      "category": [ {
        "coding": [ {
          "system": "http://terminology.hl7.org/CodeSystem/v2-0074",
          "code": "LAB",
          "display": "Laboratory"
        } ]
      } ],
      "code": {
        "coding": [ {
          "system": "http://snomed.info/sct",
          "code": "27171005",
          "display": "Urinalysis"
        } ]
      },
      "subject": {
        "reference": "Patient/76ddc605-d428-40e6-b1ae-d39c4b9bc2f7",
        "display": "Kenneth Mathis"
      },
      "result": [ {
        "reference": "Observation/7b19ec05-a621-4424-8ad9-959b7060c168",
        "display": "Prot Ur Strip.auto-mCnc"
      } ]
    }
  }, {
    "resource": {
      "resourceType": "Observation",
      "id": "7b19ec05-a621-4424-8ad9-959b7060c168",
      "identifier": [ {
        "use": "official",
        "value": "107c2dc0-67a5-11db-bd13-0800200c9a66"
      } ],
      "status": "final",
      "category": [ {
        "coding": [ {
          "system": "http://terminology.hl7.org/CodeSystem/observation-category",
          "code": "laboratory"
        } ]
      } ],
      "code": {
        "coding": [ {
          "system": "http://loinc.org",
          "code": "50561-0",
          "display": "Prot Ur Strip.auto-mCnc"
        }, {
          "system": "http://www.ama-assn.org/go/cpt",
          "code": "84156",
          "display": "Assay of protein urine"
        }, {
          "system": "http://snomed.info/sct",
          "code": "57378007",
          "display": "Protein measurement, urine"
        } ]
      },
      "subject": {
        "reference": "Patient/76ddc605-d428-40e6-b1ae-d39c4b9bc2f7",
        "display": "Kenneth Mathis"
      },
      "effectivePeriod": {
        "start": "2010-03-31T10:00:00+02:00"
      },
      "valueCodeableConcept": {
        "coding": [ {
          "system": "http://snomed.info/sct",
          "code": "260385009",
          "display": "negative"
        } ]
      },
      "interpretation": [ {
        "coding": [ {
          "system": "http://terminology.hl7.org/CodeSystem/v3-ObservationInterpretation",
          "code": "N"
        } ]
      } ],
      "referenceRange": [ {
        "text": "3.6-5.1 mg/dL"
      } ]
    }
  }, {
    "resource": {
      "resourceType": "DiagnosticReport",
      "id": "1bd9ac07-ec20-48fc-afed-37d105b51fd2",
      "identifier": [ {
        "use": "official",
        "value": "7d5a02b0-67a4-11db-bd13-0800200c9a66"
      } ],
      "status": "final",
      "category": [ {
        "coding": [ {
          "system": "http://terminology.hl7.org/CodeSystem/v2-0074",
          "code": "LAB",
          "display": "Laboratory"
        } ]
      } ],
      "code": {
        "coding": [ {
          "system": "http://snomed.info/sct",
          "code": "166312007",
          "display": "Blood Chemistry"
        } ]
      },
      "subject": {
        "reference": "Patient/76ddc605-d428-40e6-b1ae-d39c4b9bc2f7",
        "display": "Kenneth Mathis"
      },
      "result": [ {
        "reference": "Observation/83bf7f5f-0521-478a-9482-1b738a5a6dda",
        "display": "Hgb A1c MFr Bld"
      } ]
    }
  }, {
    "resource": {
      "resourceType": "Observation",
      "id": "83bf7f5f-0521-478a-9482-1b738a5a6dda",
      "identifier": [ {
        "use": "official",
        "value": "107c2dc0-67a5-11db-bd13-0800200c9a66"
      } ],
      "status": "final",
      "category": [ {
        "coding": [ {
          "system": "http://terminology.hl7.org/CodeSystem/observation-category",
          "code": "laboratory"
        } ]
      } ],
      "code": {
        "coding": [ {
          "system": "http://loinc.org",
          "code": "4548-4",
          "display": "Hgb A1c MFr Bld"
        }, {
          "system": "http://www.ama-assn.org/go/cpt",
          "code": "83036",
          "display": "Glycated hemoglobin test"
        }, {
          "system": "http://snomed.info/sct",
          "code": "43396009",
          "display": "Hemoglobin A1c measurement"
        } ]
      },
      "subject": {
        "reference": "Patient/76ddc605-d428-40e6-b1ae-d39c4b9bc2f7",
        "display": "Kenneth Mathis"
      },
      "effectivePeriod": {
        "start": "2010-11-25T10:00:00+01:00"
      },
      "valueQuantity": {
        "value": 6.3,
        "unit": "%",
        "system": "http://unitsofmeasure.org",
        "code": "%"
      },
      "interpretation": [ {
        "coding": [ {
          "system": "http://terminology.hl7.org/CodeSystem/v3-ObservationInterpretation",
          "code": "N"
        } ]
      } ],
      "referenceRange": [ {
        "text": "4-5.6%"
      } ]
    }
  }, {
    "resource": {
      "resourceType": "DiagnosticReport",
      "id": "594de9cf-3d1b-4345-a7ad-4ca04d58fe17",
      "identifier": [ {
        "use": "official",
        "value": "7d5a02b0-67a4-11db-bd13-0800200c9a66"
      } ],
      "status": "final",
      "category": [ {
        "coding": [ {
          "system": "http://terminology.hl7.org/CodeSystem/v2-0074",
          "code": "LAB",
          "display": "Laboratory"
        } ]
      } ],
      "code": {
        "coding": [ {
          "system": "http://snomed.info/sct",
          "code": "166312007",
          "display": "Blood Chemistry"
        } ]
      },
      "subject": {
        "reference": "Patient/76ddc605-d428-40e6-b1ae-d39c4b9bc2f7",
        "display": "Kenneth Mathis"
      },
      "result": [ {
        "reference": "Observation/50a1d0b7-654b-4a00-8630-61500ba9cdff",
        "display": "Hgb A1c MFr Bld"
      } ]
    }
  }, {
    "resource": {
      "resourceType": "Observation",
      "id": "50a1d0b7-654b-4a00-8630-61500ba9cdff",
      "identifier": [ {
        "use": "official",
        "value": "107c2dc0-67a5-11db-bd13-0800200c9a66"
      } ],
      "status": "final",
      "category": [ {
        "coding": [ {
          "system": "http://terminology.hl7.org/CodeSystem/observation-category",
          "code": "laboratory"
        } ]
      } ],
      "code": {
        "coding": [ {
          "system": "http://loinc.org",
          "code": "4548-4",
          "display": "Hgb A1c MFr Bld"
        }, {
          "system": "http://www.ama-assn.org/go/cpt",
          "code": "83036",
          "display": "Glycated hemoglobin test"
        }, {
          "system": "http://snomed.info/sct",
          "code": "43396009",
          "display": "Hemoglobin A1c measurement"
        } ]
      },
      "subject": {
        "reference": "Patient/76ddc605-d428-40e6-b1ae-d39c4b9bc2f7",
        "display": "Kenneth Mathis"
      },
      "effectivePeriod": {
        "start": "2010-03-31T10:00:00+02:00"
      },
      "valueQuantity": {
        "value": 7.2,
        "unit": "%",
        "system": "http://unitsofmeasure.org",
        "code": "%"
      },
      "interpretation": [ {
        "coding": [ {
          "system": "http://terminology.hl7.org/CodeSystem/v3-ObservationInterpretation",
          "code": "N"
        } ]
      } ],
      "referenceRange": [ {
        "text": "4-5.6%"
      } ]
    }
  }, {
    "resource": {
      "resourceType": "DiagnosticReport",
      "id": "5f84e4e8-c27e-4f0c-a541-12e63464d216",
      "identifier": [ {
        "use": "official",
        "value": "7d5a02b0-67a4-11db-bd13-0800200c9a66"
      } ],
      "status": "final",
      "category": [ {
        "coding": [ {
          "system": "http://terminology.hl7.org/CodeSystem/v2-0074",
          "code": "LAB",
          "display": "Laboratory"
        } ]
      } ],
      "code": {
        "coding": [ {
          "system": "http://snomed.info/sct",
          "code": "16254007",
          "display": "Lipid Panel"
        } ]
      },
      "subject": {
        "reference": "Patient/76ddc605-d428-40e6-b1ae-d39c4b9bc2f7",
        "display": "Kenneth Mathis"
      },
      "result": [ {
        "reference": "Observation/34be470a-92c1-4216-99a0-8ea3e62a04a4",
        "display": "HDLc SerPl-sCnc"
      }, {
        "reference": "Observation/77e5227f-df88-4178-a5ba-e3238cfee8f5",
        "display": "LDLc SerPl-mCnc"
      }, {
        "reference": "Observation/2835c73c-5677-4aed-99ad-cfd75ad11526",
        "display": "Cholest SerPl-mCnc"
      }, {
        "reference": "Observation/ca653511-55bf-4c5f-a90c-dcb8bf97c661",
        "display": "Trigl SerPl Calc-mCnc"
      } ]
    }
  }, {
    "resource": {
      "resourceType": "Observation",
      "id": "34be470a-92c1-4216-99a0-8ea3e62a04a4",
      "identifier": [ {
        "use": "official",
        "value": "107c2dc0-67a5-11db-bd13-0800200c9a66"
      } ],
      "status": "final",
      "category": [ {
        "coding": [ {
          "system": "http://terminology.hl7.org/CodeSystem/observation-category",
          "code": "laboratory"
        } ]
      } ],
      "code": {
        "coding": [ {
          "system": "http://loinc.org",
          "code": "14646-4",
          "display": "HDLc SerPl-sCnc"
        }, {
          "system": "http://www.ama-assn.org/go/cpt",
          "code": "83701",
          "display": "Lipoprotein bld, hr fraction"
        }, {
          "system": "http://snomed.info/sct",
          "code": "28036006",
          "display": "High density lipoprotein cholesterol measurement"
        } ]
      },
      "subject": {
        "reference": "Patient/76ddc605-d428-40e6-b1ae-d39c4b9bc2f7",
        "display": "Kenneth Mathis"
      },
      "effectivePeriod": {
        "start": "2010-03-31T10:00:00+02:00"
      },
      "valueQuantity": {
        "value": 55,
        "unit": "mg/dL",
        "system": "http://unitsofmeasure.org",
        "code": "mg/dL"
      },
      "interpretation": [ {
        "coding": [ {
          "system": "http://terminology.hl7.org/CodeSystem/v3-ObservationInterpretation",
          "code": "N"
        } ]
      } ],
      "referenceRange": [ {
        "text": ">=40 mg/dL"
      } ]
    }
  }, {
    "resource": {
      "resourceType": "Observation",
      "id": "77e5227f-df88-4178-a5ba-e3238cfee8f5",
      "identifier": [ {
        "use": "official",
        "value": "107c2dc0-67a5-11db-bd13-0800200c9a66"
      } ],
      "status": "final",
      "category": [ {
        "coding": [ {
          "system": "http://terminology.hl7.org/CodeSystem/observation-category",
          "code": "laboratory"
        } ]
      } ],
      "code": {
        "coding": [ {
          "system": "http://loinc.org",
          "code": "2089-1",
          "display": "LDLc SerPl-mCnc"
        }, {
          "system": "http://www.ama-assn.org/go/cpt",
          "code": "83721",
          "display": "Assay of blood lipoprotein"
        }, {
          "system": "http://snomed.info/sct",
          "code": "113079009",
          "display": "Low density lipoprotein cholesterol measurement"
        } ]
      },
      "subject": {
        "reference": "Patient/76ddc605-d428-40e6-b1ae-d39c4b9bc2f7",
        "display": "Kenneth Mathis"
      },
      "effectivePeriod": {
        "start": "2010-03-31T10:00:00+02:00"
      },
      "valueQuantity": {
        "value": 150,
        "unit": "mg/dL",
        "system": "http://unitsofmeasure.org",
        "code": "mg/dL"
      },
      "interpretation": [ {
        "coding": [ {
          "system": "http://terminology.hl7.org/CodeSystem/v3-ObservationInterpretation",
          "code": "N"
        } ]
      } ],
      "referenceRange": [ {
        "text": "<130 mg/dL (calc)"
      } ]
    }
  }, {
    "resource": {
      "resourceType": "Observation",
      "id": "2835c73c-5677-4aed-99ad-cfd75ad11526",
      "identifier": [ {
        "use": "official",
        "value": "107c2dc0-67a5-11db-bd13-0800200c9a66"
      } ],
      "status": "final",
      "category": [ {
        "coding": [ {
          "system": "http://terminology.hl7.org/CodeSystem/observation-category",
          "code": "laboratory"
        } ]
      } ],
      "code": {
        "coding": [ {
          "system": "http://loinc.org",
          "code": "2093-3",
          "display": "Cholest SerPl-mCnc"
        }, {
          "system": "http://www.ama-assn.org/go/cpt",
          "code": "82465",
          "display": "Assay, bld/serum cholesterol"
        }, {
          "system": "http://snomed.info/sct",
          "code": "121868005",
          "display": "Total cholesterol measurement"
        } ]
      },
      "subject": {
        "reference": "Patient/76ddc605-d428-40e6-b1ae-d39c4b9bc2f7",
        "display": "Kenneth Mathis"
      },
      "effectivePeriod": {
        "start": "2010-03-31T10:00:00+02:00"
      },
      "valueQuantity": {
        "value": 230,
        "unit": "mg/dL",
        "system": "http://unitsofmeasure.org",
        "code": "mg/dL"
      },
      "interpretation": [ {
        "coding": [ {
          "system": "http://terminology.hl7.org/CodeSystem/v3-ObservationInterpretation",
          "code": "N"
        } ]
      } ],
      "referenceRange": [ {
        "text": "125-200 mg/dL"
      } ]
    }
  }, {
    "resource": {
      "resourceType": "Observation",
      "id": "ca653511-55bf-4c5f-a90c-dcb8bf97c661",
      "identifier": [ {
        "use": "official",
        "value": "107c2dc0-67a5-11db-bd13-0800200c9a66"
      } ],
      "status": "final",
      "category": [ {
        "coding": [ {
          "system": "http://terminology.hl7.org/CodeSystem/observation-category",
          "code": "laboratory"
        } ]
      } ],
      "code": {
        "coding": [ {
          "system": "http://loinc.org",
          "code": "12951-0",
          "display": "Trigl SerPl Calc-mCnc"
        }, {
          "system": "http://www.ama-assn.org/go/cpt",
          "code": "84478",
          "display": "Assay of triglycerides"
        }, {
          "system": "http://snomed.info/sct",
          "code": "14740000",
          "display": "Triglycerides measurement"
        } ]
      },
      "subject": {
        "reference": "Patient/76ddc605-d428-40e6-b1ae-d39c4b9bc2f7",
        "display": "Kenneth Mathis"
      },
      "effectivePeriod": {
        "start": "2010-03-31T10:00:00+02:00"
      },
      "valueQuantity": {
        "value": 125,
        "unit": "mg/dL",
        "system": "http://unitsofmeasure.org",
        "code": "mg/dL"
      },
      "interpretation": [ {
        "coding": [ {
          "system": "http://terminology.hl7.org/CodeSystem/v3-ObservationInterpretation",
          "code": "N"
        } ]
      } ],
      "referenceRange": [ {
        "text": "10-39 years: 55-110 mg/dL | 40-59 years: 70-150 mg/dL | >60 years: 80-150 mg/dL | Therapeutic Target: <100 mg/dL "
      } ]
    }
  }, {
    "resource": {
      "resourceType": "Observation",
      "id": "5ec4d6c0-736a-4b48-8402-cbb67319f4f1",
      "identifier": [ {
        "use": "official",
        "value": "c6f88321-67ad-11db-bd13-0800200c9a66"
      } ],
      "status": "final",
      "category": [ {
        "coding": [ {
          "system": "http://terminology.hl7.org/CodeSystem/observation-category",
          "code": "vital-signs",
          "display": "Vital Signs"
        } ]
      } ],
      "code": {
        "coding": [ {
          "system": "http://loinc.org",
          "code": "8480-6",
          "display": "BP Systolic"
        } ]
      },
      "subject": {
        "reference": "Patient/76ddc605-d428-40e6-b1ae-d39c4b9bc2f7",
        "display": "Kenneth Mathis"
      },
      "effectivePeriod": {
        "start": "2010-07-15T10:00:00+02:00"
      },
      "valueQuantity": {
        "value": 132,
        "unit": "mm[Hg]",
        "system": "http://unitsofmeasure.org",
        "code": "mm[Hg]"
      }
    }
  }, {
    "resource": {
      "resourceType": "Observation",
      "id": "11d2f825-99c3-401e-968d-82c057499951",
      "identifier": [ {
        "use": "official",
        "value": "c6f88321-67ad-11db-bd13-0800200c9a66"
      } ],
      "status": "final",
      "category": [ {
        "coding": [ {
          "system": "http://terminology.hl7.org/CodeSystem/observation-category",
          "code": "vital-signs",
          "display": "Vital Signs"
        } ]
      } ],
      "code": {
        "coding": [ {
          "system": "http://loinc.org",
          "code": "39156-5",
          "display": "BMI"
        } ]
      },
      "subject": {
        "reference": "Patient/76ddc605-d428-40e6-b1ae-d39c4b9bc2f7",
        "display": "Kenneth Mathis"
      },
      "effectivePeriod": {
        "start": "2010-07-15T10:00:00+02:00"
      },
      "valueQuantity": {
        "value": 22.5,
        "unit": "kg/m2",
        "system": "http://unitsofmeasure.org",
        "code": "kg/m2"
      }
    }
  }, {
    "resource": {
      "resourceType": "Observation",
      "id": "df039912-a801-4c01-8954-e01d1a462c7d",
      "identifier": [ {
        "use": "official",
        "value": "c6f88321-67ad-11db-bd13-0800200c9a66"
      } ],
      "status": "final",
      "category": [ {
        "coding": [ {
          "system": "http://terminology.hl7.org/CodeSystem/observation-category",
          "code": "vital-signs",
          "display": "Vital Signs"
        } ]
      } ],
      "code": {
        "coding": [ {
          "system": "http://loinc.org",
          "code": "8462-4",
          "display": "BP Diastolic"
        } ]
      },
      "subject": {
        "reference": "Patient/76ddc605-d428-40e6-b1ae-d39c4b9bc2f7",
        "display": "Kenneth Mathis"
      },
      "effectivePeriod": {
        "start": "2010-07-15T10:00:00+02:00"
      },
      "valueQuantity": {
        "value": 74,
        "unit": "mm[Hg]",
        "system": "http://unitsofmeasure.org",
        "code": "mm[Hg]"
      }
    }
  }, {
    "resource": {
      "resourceType": "Observation",
      "id": "c8c58757-bc87-4187-b3b4-53bae42fd8d6",
      "identifier": [ {
        "use": "official",
        "value": "c6f88321-67ad-11db-bd13-0800200c9a66"
      } ],
      "status": "final",
      "category": [ {
        "coding": [ {
          "system": "http://terminology.hl7.org/CodeSystem/observation-category",
          "code": "vital-signs",
          "display": "Vital Signs"
        } ]
      } ],
      "code": {
        "coding": [ {
          "system": "http://loinc.org",
          "code": "8480-6",
          "display": "BP Systolic"
        } ]
      },
      "subject": {
        "reference": "Patient/76ddc605-d428-40e6-b1ae-d39c4b9bc2f7",
        "display": "Kenneth Mathis"
      },
      "effectivePeriod": {
        "start": "2010-03-31T10:00:00+02:00"
      },
      "valueQuantity": {
        "value": 128,
        "unit": "mm[Hg]",
        "system": "http://unitsofmeasure.org",
        "code": "mm[Hg]"
      }
    }
  }, {
    "resource": {
      "resourceType": "Observation",
      "id": "27545383-ae1f-4f0c-8ad1-e3d6b46fb739",
      "identifier": [ {
        "use": "official",
        "value": "c6f88321-67ad-11db-bd13-0800200c9a66"
      } ],
      "status": "final",
      "category": [ {
        "coding": [ {
          "system": "http://terminology.hl7.org/CodeSystem/observation-category",
          "code": "vital-signs",
          "display": "Vital Signs"
        } ]
      } ],
      "code": {
        "coding": [ {
          "system": "http://loinc.org",
          "code": "8462-4",
          "display": "BP Diastolic"
        } ]
      },
      "subject": {
        "reference": "Patient/76ddc605-d428-40e6-b1ae-d39c4b9bc2f7",
        "display": "Kenneth Mathis"
      },
      "effectivePeriod": {
        "start": "2010-03-31T10:00:00+02:00"
      },
      "valueQuantity": {
        "value": 76,
        "unit": "mm[Hg]",
        "system": "http://unitsofmeasure.org",
        "code": "mm[Hg]"
      }
    }
  }, {
    "resource": {
      "resourceType": "Observation",
      "id": "720aea8f-164d-4677-924b-115800c22097",
      "identifier": [ {
        "use": "official",
        "value": "c6f88321-67ad-11db-bd13-0800200c9a66"
      } ],
      "status": "final",
      "category": [ {
        "coding": [ {
          "system": "http://terminology.hl7.org/CodeSystem/observation-category",
          "code": "vital-signs",
          "display": "Vital Signs"
        } ]
      } ],
      "code": {
        "coding": [ {
          "system": "http://loinc.org",
          "code": "39156-5",
          "display": "BMI"
        } ]
      },
      "subject": {
        "reference": "Patient/76ddc605-d428-40e6-b1ae-d39c4b9bc2f7",
        "display": "Kenneth Mathis"
      },
      "effectivePeriod": {
        "start": "2010-03-31T10:00:00+02:00"
      },
      "valueQuantity": {
        "value": 21.9,
        "unit": "kg/m2",
        "system": "http://unitsofmeasure.org",
        "code": "kg/m2"
      }
    }
  }, {
    "resource": {
      "resourceType": "Observation",
      "id": "0464fbe0-8a34-43b7-ba27-87d6c0478755",
      "identifier": [ {
        "use": "official",
        "value": "c6f88321-67ad-11db-bd13-0800200c9a66"
      } ],
      "status": "final",
      "category": [ {
        "coding": [ {
          "system": "http://terminology.hl7.org/CodeSystem/observation-category",
          "code": "vital-signs",
          "display": "Vital Signs"
        } ]
      } ],
      "code": {
        "coding": [ {
          "system": "http://loinc.org",
          "code": "39156-5",
          "display": "BMI"
        } ]
      },
      "subject": {
        "reference": "Patient/76ddc605-d428-40e6-b1ae-d39c4b9bc2f7",
        "display": "Kenneth Mathis"
      },
      "effectivePeriod": {
        "start": "2010-11-25T10:00:00+01:00"
      },
      "valueQuantity": {
        "value": 22,
        "unit": "kg/m2",
        "system": "http://unitsofmeasure.org",
        "code": "kg/m2"
      }
    }
  }, {
    "resource": {
      "resourceType": "Observation",
      "id": "8f06d501-cd97-4f6a-b8fc-fc07cae4a458",
      "identifier": [ {
        "use": "official",
        "value": "c6f88321-67ad-11db-bd13-0800200c9a66"
      } ],
      "status": "final",
      "category": [ {
        "coding": [ {
          "system": "http://terminology.hl7.org/CodeSystem/observation-category",
          "code": "vital-signs",
          "display": "Vital Signs"
        } ]
      } ],
      "code": {
        "coding": [ {
          "system": "http://loinc.org",
          "code": "8480-6",
          "display": "BP Systolic"
        } ]
      },
      "subject": {
        "reference": "Patient/76ddc605-d428-40e6-b1ae-d39c4b9bc2f7",
        "display": "Kenneth Mathis"
      },
      "effectivePeriod": {
        "start": "2010-11-25T10:00:00+01:00"
      },
      "valueQuantity": {
        "value": 152,
        "unit": "mm[Hg]",
        "system": "http://unitsofmeasure.org",
        "code": "mm[Hg]"
      }
    }
  }, {
    "resource": {
      "resourceType": "Observation",
      "id": "98f21b43-5bd1-42d3-b81f-efd0b646ac1f",
      "identifier": [ {
        "use": "official",
        "value": "c6f88321-67ad-11db-bd13-0800200c9a66"
      } ],
      "status": "final",
      "category": [ {
        "coding": [ {
          "system": "http://terminology.hl7.org/CodeSystem/observation-category",
          "code": "vital-signs",
          "display": "Vital Signs"
        } ]
      } ],
      "code": {
        "coding": [ {
          "system": "http://loinc.org",
          "code": "8462-4",
          "display": "BP Diastolic"
        } ]
      },
      "subject": {
        "reference": "Patient/76ddc605-d428-40e6-b1ae-d39c4b9bc2f7",
        "display": "Kenneth Mathis"
      },
      "effectivePeriod": {
        "start": "2010-11-25T10:00:00+01:00"
      },
      "valueQuantity": {
        "value": 94,
        "unit": "mm[Hg]",
        "system": "http://unitsofmeasure.org",
        "code": "mm[Hg]"
      }
    }
  }, {
    "resource": {
      "resourceType": "Encounter",
      "id": "413a4c1d-6f71-43a4-9100-25a6a193ef2a",
      "identifier": [ {
        "use": "official",
        "value": "2a620155-9d11-439e-92b3-5d9815ff4de8"
      } ],
      "status": "finished",
      "type": [ {
        "coding": [ {
          "system": "http://www.ama-assn.org/go/cpt",
          "code": "99213",
          "display": "Office/outpatient visit, est"
        }, {
          "system": "urn:oid:2.16.840.1.113883.6.103",
          "code": "V70.0",
          "display": "Routine general medical examination at a health care facility"
        } ]
      } ],
      "subject": {
        "reference": "Patient/76ddc605-d428-40e6-b1ae-d39c4b9bc2f7",
        "display": "Kenneth Mathis"
      },
      "period": {
        "start": "2010-07-15T10:00:00+02:00"
      }
    }
  }, {
    "resource": {
      "resourceType": "Encounter",
      "id": "073426ec-22d6-4d7c-8443-6d9b7db63c4e",
      "identifier": [ {
        "use": "official",
        "value": "2a620155-9d11-439e-92b3-5d9815ff4de8"
      } ],
      "status": "finished",
      "type": [ {
        "coding": [ {
          "system": "http://www.ama-assn.org/go/cpt",
          "code": "92012",
          "display": "Eye exam established pat"
        } ]
      } ],
      "subject": {
        "reference": "Patient/76ddc605-d428-40e6-b1ae-d39c4b9bc2f7",
        "display": "Kenneth Mathis"
      },
      "period": {
        "start": "2010-05-10T10:00:00+02:00"
      },
      "reasonCode": [ {
        "coding": [ {
          "system": "http://snomed.info/sct",
          "code": "312904009",
          "display": "Diabetic Retinopathy"
        } ]
      } ],
      "reasonReference": [ {
        "reference": "Condition/33ad8faa-01e7-47f7-847c-e929417e93c5",
        "display": "Diabetic Retinopathy"
      } ]
    }
  }, {
    "resource": {
      "resourceType": "Condition",
      "id": "33ad8faa-01e7-47f7-847c-e929417e93c5",
      "identifier": [ {
        "use": "official",
        "system": "urn:uuid:db734647-fc99-424c-a864-7e3cda82e703",
        "value": "45665"
      } ],
      "clinicalStatus": {
        "coding": [ {
          "system": "http://terminology.hl7.org/CodeSystem/condition-clinical",
          "code": "active",
          "display": "Active"
        } ]
      },
      "category": [ {
        "coding": [ {
          "system": "http://hl7.org/fhir/condition-category",
          "code": "encounter-diagnosis",
          "display": "Encounter Diagnosis"
        } ]
      } ],
      "code": {
        "coding": [ {
          "system": "http://snomed.info/sct",
          "code": "312904009",
          "display": "Diabetic Retinopathy"
        }, {
          "system": "urn:oid:2.16.840.1.113883.6.90",
          "code": "E13.33",
          "display": "Other specified diabetes mellitus with moderate nonproliferative diabetic retinopathy"
        }, {
          "system": "urn:oid:2.16.840.1.113883.6.103",
          "code": "362.05",
          "display": "Moderate nonproliferative diabetic retinopathy"
        } ]
      },
      "subject": {
        "reference": "Patient/76ddc605-d428-40e6-b1ae-d39c4b9bc2f7",
        "display": "Kenneth Mathis"
      },
      "onsetDateTime": "2010-05-10T10:00:00+02:00"
    }
  }, {
    "resource": {
      "resourceType": "Encounter",
      "id": "2f437450-2e64-4ddc-887c-bafd0885213c",
      "identifier": [ {
        "use": "official",
        "value": "2a620155-9d11-439e-92b3-5d9815ff4de8"
      } ],
      "status": "finished",
      "type": [ {
        "coding": [ {
          "system": "http://www.ama-assn.org/go/cpt",
          "code": "99396",
          "display": "Prev visit, est, age 40-64"
        } ]
      } ],
      "subject": {
        "reference": "Patient/76ddc605-d428-40e6-b1ae-d39c4b9bc2f7",
        "display": "Kenneth Mathis"
      },
      "period": {
        "start": "2010-09-30T10:00:00+02:00"
      }
    }
  }, {
    "resource": {
      "resourceType": "Encounter",
      "id": "8b4d1c0a-c542-4155-b4a0-d4aa9bd79545",
      "identifier": [ {
        "use": "official",
        "value": "2a620155-9d11-439e-92b3-5d9815ff4de8"
      } ],
      "status": "finished",
      "type": [ {
        "coding": [ {
          "system": "http://www.ama-assn.org/go/cpt",
          "code": "92012",
          "display": "Eye exam established pat"
        } ]
      } ],
      "subject": {
        "reference": "Patient/76ddc605-d428-40e6-b1ae-d39c4b9bc2f7",
        "display": "Kenneth Mathis"
      },
      "period": {
        "start": "2010-11-25T10:00:00+01:00"
      }
    }
  }, {
    "resource": {
      "resourceType": "Encounter",
      "id": "d10e9010-54fc-4470-b9b7-b9299f6ec3b1",
      "identifier": [ {
        "use": "official",
        "value": "2a620155-9d11-439e-92b3-5d9815ff4de8"
      } ],
      "status": "finished",
      "type": [ {
        "coding": [ {
          "system": "http://www.ama-assn.org/go/cpt",
          "code": "99213",
          "display": "Office/outpatient visit, est"
        }, {
          "system": "urn:oid:2.16.840.1.113883.6.103",
          "code": "V70.0",
          "display": "Routine general medical examination at a health care facility"
        } ]
      } ],
      "subject": {
        "reference": "Patient/76ddc605-d428-40e6-b1ae-d39c4b9bc2f7",
        "display": "Kenneth Mathis"
      },
      "period": {
        "start": "2010-03-31T10:00:00+02:00"
      },
      "reasonCode": [ {
        "coding": [ {
          "system": "http://snomed.info/sct",
          "code": "44054006",
          "display": "Diabetes"
        } ]
      }, {
        "coding": [ {
          "system": "http://snomed.info/sct",
          "code": "59621000",
          "display": "Hypertension"
        } ]
      } ],
      "reasonReference": [ {
        "reference": "Condition/33ad8faa-01e7-47f7-847c-e929417e93c5",
        "display": "Diabetic Retinopathy"
      }, {
        "reference": "Condition/33ad8faa-01e7-47f7-847c-e929417e93c5",
        "display": "Diabetic Retinopathy"
      } ]
    }
  }, {
    "resource": {
      "resourceType": "Condition",
      "id": "cf2c5e02-ef37-4f5b-a9cb-c70fdc0ccbac",
      "identifier": [ {
        "use": "official",
        "value": "9d3d416d-45ab-4da1-912f-4583e0632000"
      } ],
      "clinicalStatus": {
        "coding": [ {
          "system": "http://terminology.hl7.org/CodeSystem/condition-clinical",
          "code": "active",
          "display": "Active"
        } ]
      },
      "verificationStatus": {
        "coding": [ {
          "system": "http://terminology.hl7.org/CodeSystem/condition-ver-status",
          "code": "confirmed",
          "display": "Confirmed"
        } ]
      },
      "category": [ {
        "coding": [ {
          "system": "http://terminology.hl7.org/CodeSystem/condition-category",
          "code": "problem-list-item",
          "display": "Problem List Item"
        } ]
      } ],
      "code": {
        "coding": [ {
          "system": "http://snomed.info/sct",
          "code": "59621000",
          "display": "Essential hypertension"
        }, {
          "system": "urn:oid:2.16.840.1.113883.6.90",
          "code": "I10",
          "display": "Essential (primary) hypertension"
        }, {
          "system": "urn:oid:2.16.840.1.113883.6.103",
          "code": "401.9",
          "display": "Unspecified essential hypertension"
        } ]
      },
      "subject": {
        "reference": "Patient/76ddc605-d428-40e6-b1ae-d39c4b9bc2f7",
        "display": "Kenneth Mathis"
      },
      "onsetDateTime": "2010-03-31T10:00:00+02:00"
    }
  }, {
    "resource": {
      "resourceType": "AllergyIntolerance",
      "id": "6263ff5b-b407-44d3-a78f-525ba582f4e2",
      "identifier": [ {
        "use": "official",
        "value": "36e3e930-7b14-11db-9fe1-0800200c9a66"
      } ],
      "clinicalStatus": {
        "coding": [ {
          "system": "http://terminology.hl7.org/CodeSystem/allergyintolerance-clinical",
          "code": "active",
          "display": "Active"
        } ]
      },
      "verificationStatus": {
        "coding": [ {
          "system": "http://terminology.hl7.org/CodeSystem/allergyintolerance-verification",
          "code": "confirmed",
          "display": "Confirmed"
        } ]
      },
      "type": "allergy",
      "category": [ "medication" ],
      "code": {
        "coding": [ {
          "system": "http://www.nlm.nih.gov/research/umls/rxnorm",
          "code": "808917",
          "display": "Fosfomycin 33.3 MG/ML Oral Suspension"
        } ],
        "text": "Fosfomycin + Fosfomycin 33.3 MG/ML Oral Suspension"
      },
      "patient": {
        "reference": "Patient/76ddc605-d428-40e6-b1ae-d39c4b9bc2f7",
        "display": "Kenneth Mathis"
      },
      "recordedDate": "2010-03-31T10:00:00+02:00"
    }
  }, {
    "resource": {
      "resourceType": "MedicationStatement",
      "id": "b32cba65-e11c-41d6-8de1-d108641a9772",
      "extension": [ {
        "url": "http://hl7.org/fhir/3.0/StructureDefinition/extension-MedicationStatement.status",
        "valueCode": "UNKNOWN"
      } ],
      "identifier": [ {
        "use": "official",
        "value": "cdbd33f0-6cde-11db-9fe1-0800200c9a66"
      } ],
      "status": "completed",
      "medicationReference": {
        "reference": "Medication/e00d4c00-5642-4d70-92b7-ec1379b5fa10",
        "display": "exenatide 0.25 MG/ML Injectable Solution"
      },
      "subject": {
        "reference": "Patient/76ddc605-d428-40e6-b1ae-d39c4b9bc2f7",
        "display": "Kenneth Mathis"
      },
      "effectivePeriod": {
        "start": "2010-03-31T10:00:00+02:00"
      }
    }
  }, {
    "resource": {
      "resourceType": "Medication",
      "id": "e00d4c00-5642-4d70-92b7-ec1379b5fa10",
      "code": {
        "coding": [ {
          "system": "http://www.nlm.nih.gov/research/umls/rxnorm",
          "code": "744863",
          "display": "exenatide 0.25 MG/ML Injectable Solution"
        } ]
      }
    }
  }, {
    "resource": {
      "resourceType": "MedicationStatement",
      "id": "15708d90-618c-4af2-b165-d128bf98a771",
      "extension": [ {
        "url": "http://hl7.org/fhir/3.0/StructureDefinition/extension-MedicationStatement.status",
        "valueCode": "UNKNOWN"
      } ],
      "identifier": [ {
        "use": "official",
        "value": "cdbd33f0-6cde-11db-9fe1-0800200c9a66"
      } ],
      "status": "completed",
      "medicationReference": {
        "reference": "Medication/e00d4c00-5642-4d70-92b7-ec1379b5fa10",
        "display": "exenatide 0.25 MG/ML Injectable Solution"
      },
      "subject": {
        "reference": "Patient/76ddc605-d428-40e6-b1ae-d39c4b9bc2f7",
        "display": "Kenneth Mathis"
      },
      "effectivePeriod": {
        "start": "2010-11-25T10:00:00+01:00"
      }
    }
  }, {
    "resource": {
      "resourceType": "MedicationStatement",
      "id": "1404f91d-cfa8-4e22-a645-f3053e55bb1f",
      "extension": [ {
        "url": "http://hl7.org/fhir/3.0/StructureDefinition/extension-MedicationStatement.status",
        "valueCode": "UNKNOWN"
      } ],
      "identifier": [ {
        "use": "official",
        "value": "cdbd33f0-6cde-11db-9fe1-0800200c9a66"
      } ],
      "status": "completed",
      "medicationReference": {
        "reference": "Medication/66a9e9a2-2dd3-4a47-9ff4-4447f2f731e1",
        "display": "atorvastatin 10 MG Oral Tablet [Lipitor]"
      },
      "subject": {
        "reference": "Patient/76ddc605-d428-40e6-b1ae-d39c4b9bc2f7",
        "display": "Kenneth Mathis"
      },
      "effectivePeriod": {
        "start": "2010-11-25T10:00:00+01:00"
      }
    }
  }, {
    "resource": {
      "resourceType": "Medication",
      "id": "66a9e9a2-2dd3-4a47-9ff4-4447f2f731e1",
      "code": {
        "coding": [ {
          "system": "http://www.nlm.nih.gov/research/umls/rxnorm",
          "code": "617314",
          "display": "atorvastatin 10 MG Oral Tablet [Lipitor]"
        } ]
      }
    }
  }, {
    "resource": {
      "resourceType": "MedicationStatement",
      "id": "f906cff4-1f45-49eb-bbf7-330cb64f4c6e",
      "extension": [ {
        "url": "http://hl7.org/fhir/3.0/StructureDefinition/extension-MedicationStatement.status",
        "valueCode": "UNKNOWN"
      } ],
      "identifier": [ {
        "use": "official",
        "value": "cdbd33f0-6cde-11db-9fe1-0800200c9a66"
      } ],
      "status": "completed",
      "medicationReference": {
        "reference": "Medication/66a9e9a2-2dd3-4a47-9ff4-4447f2f731e1",
        "display": "atorvastatin 10 MG Oral Tablet [Lipitor]"
      },
      "subject": {
        "reference": "Patient/76ddc605-d428-40e6-b1ae-d39c4b9bc2f7",
        "display": "Kenneth Mathis"
      },
      "effectivePeriod": {
        "start": "2010-03-31T10:00:00+02:00"
      }
    }
  }, {
    "resource": {
      "resourceType": "Observation",
      "id": "190a68a0-2be1-4ead-b431-b7a7ac03c99f",
      "identifier": [ {
        "use": "official",
        "system": "urn:oid:2.16.840.1.113883.19",
        "value": "123456789"
      } ],
      "status": "final",
      "code": {
        "coding": [ {
          "system": "urn:oid:2.16.840.1.113883.5.4",
          "code": "ASSERTION"
        } ]
      },
      "subject": {
        "reference": "Patient/76ddc605-d428-40e6-b1ae-d39c4b9bc2f7",
        "display": "Kenneth Mathis"
      },
      "effectivePeriod": {
        "start": "2010-03-31T10:00:00+02:00"
      },
      "valueCodeableConcept": {
        "coding": [ {
          "system": "http://snomed.info/sct",
          "code": "266919005",
          "display": "Never smoker (Never Smoked)"
        }, {
          "system": "http://snomed.info/sct",
          "code": "449868002",
          "display": "Current every day smoker"
        } ]
      }
    }
  } ]
}