{
  "resourceType": "Bundle",
  "entry": [ {
    "resource": {
      "resourceType": "Composition",
      "id": "613e7e1a-9d55-42fd-8280-ec600564c4f1",
      "identifier": {
        "use": "official",
        "value": "db734647-fc99-424c-a864-7e3cda82e703"
      },
      "status": "preliminary",
      "type": {
        "coding": [ {
          "system": "http://loinc.org",
          "code": "34133-9",
          "display": "Summarization of Episode Note"
        } ]
      },
      "category": [ {
        "coding": [ {
          "system": "http://hl7.org/fhir/ValueSet/doc-classcodes",
          "code": "LP173421-7",
          "display": "Note"
        } ]
      } ],
      "subject": {
        "reference": "Patient/5109f902-f4a7-4fd6-be92-47b63e20cfdb",
        "display": "Daniel Taylor"
      },
      "date": "2014-04-16T11:55:16+02:00",
      "author": [ {
        "reference": "Practitioner/82352822-ceda-47bc-8a36-2ca0bfc842dd",
        "display": "Henry Seven MD"
      } ],
      "title": "Community Health and Hospitals: Health Summary",
      "confidentiality": "N",
      "attester": [ {
        "mode": "legal",
        "time": "2013-04-18T09:00:00+05:00",
        "party": {
          "reference": "Practitioner/84f19c04-8ce3-4a0a-8079-a15ec0639f7f",
          "display": "Henry Seven"
        }
      }, {
        "mode": "professional",
        "time": "2014-04-16T11:55:16+02:00",
        "party": {
          "reference": "Practitioner/84f19c04-8ce3-4a0a-8079-a15ec0639f7f",
          "display": "Henry Seven"
        }
      } ],
      "custodian": {
        "reference": "Organization/723ec559-d471-48a3-bc85-eaab895d54af",
        "display": "Community Health and Hospitals"
      },
      "event": [ {
        "period": {
          "start": "2010-04-07T10:00:00+02:00",
          "end": "2011-02-13T10:00:00+01:00"
        },
        "detail": [ {
          "reference": "Practitioner/a5491814-2bb6-48a9-bb70-daad29284591",
          "display": "Henry Seven MD"
        } ]
      } ],
      "section": [ {
        "title": "Allergies,  Adverse Reactions & Alerts",
        "code": {
          "coding": [ {
            "system": "http://loinc.org",
            "code": "48765-2",
            "display": "Allergies, adverse reactions, alerts"
          } ]
        },
        "text": {
          "status": "additional",
          "div": "<div xmlns=\"http://www.w3.org/1999/xhtml\"><table><thead><tr><th>Group Description</th><th>Code System</th><th>Code</th><th>Code Description</th><th>Severity</th><th>Susceptibility</th><th>Date and Time</th><th>Status</th></tr></thead><tbody><tr><td>Allergy to Eggs</td><td>UNII</td><td>291P45F896</td><td><span/>Eggs</td><td><span/>Severe</td><td>Susceptible</td><td>04-07-2010 10:00:00</td><td>Active</td></tr><tr><td/><td>ICD-9-CM</td><td>V15.03</td><td>Allergy to eggs</td><td/><td/><td/><td/></tr><tr><td>Fosfomycin</td><td>RxNorm</td><td>808917</td><td><span/>Fosfomycin 33.3 MG/ML Oral Suspension</td><td><span/>Moderate</td><td>Moderately Susceptible</td><td>04-07-2010 10:00:00</td><td>Active</td></tr><tr><td>Penicillin V</td><td>NDF-RT</td><td>N0000011298</td><td><span/>Penicillin V</td><td><span/>Mild</td><td>Susceptible</td><td>04-07-2010 10:00:00</td><td>Active</td></tr></tbody></table></div>"
        },
        "mode": "snapshot",
        "entry": [ {
          "reference": "AllergyIntolerance/e50c060a-7695-418c-8306-bfe4d2217d7f",
          "display": "Penicillin V + Penicillin V"
        }, {
          "reference": "AllergyIntolerance/3adb61ba-59e6-42a6-85f0-de1c5dae470a",
          "display": "Allergy to Eggs + Eggs"
        }, {
          "reference": "AllergyIntolerance/9d5e2345-2e1b-4f06-adb2-def5569059cf",
          "display": "Fosfomycin + Fosfomycin 33.3 MG/ML Oral Suspension"
        } ]
      }, {
        "title": "Problems",
        "code": {
          "coding": [ {
            "system": "http://loinc.org",
            "code": "11450-4",
            "display": "PROBLEM LIST"
          } ]
        },
        "text": {
          "status": "additional",
          "div": "<div xmlns=\"http://www.w3.org/1999/xhtml\"><table><thead><tr><th>Group Description</th><th>Code System</th><th>Code</th><th>Code Description</th><th>Date and Time</th><th>Status</th></tr></thead><tbody><tr><td>low back pain</td><td>SNOMED-CT</td><td>279039007</td><td><span/>Low back pain</td><td>04-07-2010 10:00:00</td><td>Active</td></tr><tr><td/><td>ICD-10-CM</td><td>M54.9</td><td>Dorsalgia, unspecified</td><td/><td/></tr><tr><td/><td>ICD-9-CM</td><td>724.2</td><td>Lumbago</td><td/><td/></tr><tr><td>Primary Open Angle Glaucoma (POAG)</td><td>SNOMED-CT</td><td>84494001</td><td><span/>Open-angle glaucoma</td><td>07-04-2010 10:00:00</td><td>Active</td></tr><tr><td/><td>ICD-10-CM</td><td>H40.11X0</td><td>Primary open-angle glaucoma, stage unspecified</td><td/><td/></tr><tr><td/><td>ICD-9-CM</td><td>365.10</td><td>Open-angle glaucoma, unspecified</td><td/><td/></tr></tbody></table></div>"
        },
        "mode": "snapshot",
        "entry": [ {
          "reference": "Condition/48410237-642b-4324-afa9-8a246e495a32",
          "display": "Low back pain"
        } ]
      }, {
        "title": "Encounters",
        "code": {
          "coding": [ {
            "system": "http://loinc.org",
            "code": "46240-8",
            "display": "History of encounters"
          } ]
        },
        "text": {
          "status": "additional",
          "div": "<div xmlns=\"http://www.w3.org/1999/xhtml\"><table><thead><tr><th>Group Description</th><th>Code System</th><th>Code</th><th>Code Description</th><th>Date and Time</th><th>Status</th></tr></thead><tbody><tr><td>Encounter Outpatient</td><td>CPT</td><td>99213</td><td><span/>Office/outpatient visit, est</td><td>04-07-2010 10:00:00</td><td>Performed</td></tr><tr><td/><td>ICD-9-CM</td><td>V70.0</td><td>Routine general medical examination at a health care facility</td><td/><td/></tr><tr><td>Encounter Outpatient Including Orthopedics an</td><td>CPT</td><td>98940</td><td><span/>Chiropractic manipulation</td><td>06-10-2010 10:00:00</td><td>Performed</td></tr><tr><td>Encounter Domiciliary</td><td>CPT</td><td>99324</td><td><span/>Domicil/r-home visit new pat</td><td>07-05-2010 10:00:00</td><td>Performed</td></tr><tr><td>Encounter Domiciliary</td><td>CPT</td><td>99324</td><td><span/>Domicil/r-home visit new pat</td><td>08-06-2010 10:00:00</td><td>Performed</td></tr><tr><td>Encounter Outpatient Including Orthopedics an</td><td>CPT</td><td>98940</td><td><span/>Chiropractic manipulation</td><td>09-03-2010 10:00:00</td><td>Performed</td></tr><tr><td>Encounter Outpatient</td><td>CPT</td><td>99213</td><td><span/>Office/outpatient visit, est</td><td>12-11-2010 10:00:00</td><td>Performed</td></tr><tr><td/><td>ICD-9-CM</td><td>V70.0</td><td>Routine general medical examination at a health care facility</td><td/><td/></tr></tbody></table></div>"
        },
        "mode": "snapshot",
        "entry": [ {
          "reference": "Encounter/67d7863c-db62-4eb6-8f2b-00997f0c915c",
          "display": "Chiropractic manipulation"
        }, {
          "reference": "Encounter/68e109da-14c4-41e6-b6a7-b0bc752a8034",
          "display": "Office/outpatient visit, est"
        }, {
          "reference": "Encounter/b7c59958-d50f-448b-b630-7f645cfde4fd",
          "display": "Domicil/r-home visit new pat"
        }, {
          "reference": "Encounter/d5504d9e-805f-4f81-a2fd-f2f7349c18f7",
          "display": "Office/outpatient visit, est"
        }, {
          "reference": "Encounter/1d6848b2-5061-4b25-bd95-0df36f16f525",
          "display": "Domicil/r-home visit new pat"
        }, {
          "reference": "Encounter/7f145857-1ec5-4f59-b64e-5ec2490b8c40",
          "display": "Chiropractic manipulation"
        } ]
      }, {
        "title": "Results",
        "code": {
          "coding": [ {
            "system": "http://loinc.org",
            "code": "30954-2",
            "display": "Results"
          } ]
        },
        "text": {
          "status": "additional",
          "div": "<div xmlns=\"http://www.w3.org/1999/xhtml\"><table><thead><tr><th>Group Description</th><th>Code System</th><th>Code</th><th>Code Description</th><th>Value</th><th>Unit</th><th>Date and Time</th><th>Status</th></tr></thead><tbody><tr><td>No data</td></tr></tbody></table></div>"
        },
        "mode": "snapshot"
      }, {
        "title": "Procedures",
        "code": {
          "coding": [ {
            "system": "http://loinc.org",
            "code": "47519-4",
            "display": "HISTORY OF PROCEDURES"
          } ]
        },
        "text": {
          "status": "additional",
          "div": "<div xmlns=\"http://www.w3.org/1999/xhtml\"><table><thead><tr><th>Group Description</th><th>Code System</th><th>Code</th><th>Code Description</th><th>Date and Time</th><th>Status</th></tr></thead><tbody><tr><td>Tobacco Use Cessation Counseling</td><td>CPT</td><td>99406</td><td><span/>Behav chng smoking 3-10 min</td><td>04-07-2010 10:00:00</td><td>Performed</td></tr><tr><td/><td>SNOMED-CT</td><td>384742004</td><td>Smoking cessation assistance</td><td/><td/></tr><tr><td>Optic Nerve Head Evaluation</td><td>SNOMED-CT</td><td>36228007</td><td><span/>Ophthalmic examination and evaluation</td><td>07-05-2010 10:00:00</td><td>Performed</td></tr><tr><td>Counseling For Nutrition</td><td>CPT</td><td>97802</td><td><span/>Medical nutrition, indiv, in</td><td>08-06-2010 10:00:00</td><td>Performed</td></tr><tr><td/><td>HCPCS</td><td>S9470</td><td>Nutritional counseling, diet</td><td/><td/></tr><tr><td/><td>ICD-10-CM</td><td>Z00.8</td><td>Encounter for other general examination</td><td/><td/></tr><tr><td/><td>ICD-9-CM</td><td>V65.3</td><td>Dietary surveillance and counseling</td><td/><td/></tr><tr><td>Colonoscopy</td><td>CPT</td><td>45378</td><td><span/>Diagnostic colonoscopy</td><td>02-13-2011 10:00:00</td><td>Performed</td></tr><tr><td/><td>HCPCS</td><td>G0121</td><td>Colon ca scrn not hi rsk ind</td><td/><td/></tr><tr><td/><td>ICD-10-CM</td><td>Z12.11</td><td>Encounter for screening for malignant neoplasm of colon</td><td/><td/></tr><tr><td/><td>ICD-9-CM</td><td>45.23</td><td>Colonoscopy</td><td/><td/></tr><tr><td/><td>SNOMED-CT</td><td>174184006</td><td>Diagnostic endoscopic examination on colon</td><td/><td/></tr></tbody></table></div>"
        },
        "mode": "snapshot"
      }, {
        "title": "Social History",
        "code": {
          "coding": [ {
            "system": "http://loinc.org",
            "code": "29762-2",
            "display": "Social History"
          } ]
        },
        "text": {
          "status": "additional",
          "div": "<div xmlns=\"http://www.w3.org/1999/xhtml\"><table><thead><tr><th>Group Description</th><th>Code System</th><th>Code</th><th>Code Description</th><th>Date and Time</th><th>Status</th></tr></thead><tbody><tr><td>Tobacco Use</td><td>SNOMED-CT</td><td>266919005</td><td><span/>Never smoker (Never Smoked)</td><td>04-07-2010 10:00:00</td><td>Active</td></tr><tr><td/><td>SNOMED-CT</td><td>449868002</td><td>Current every day smoker</td><td/><td/></tr></tbody></table></div>"
        },
        "mode": "snapshot",
        "entry": [ {
          "reference": "Observation/a91d0220-6f2b-4819-9fc8-666d745bad5d"
        } ]
      }, {
        "title": "Medications",
        "code": {
          "coding": [ {
            "system": "http://loinc.org",
            "code": "10160-0",
            "display": "History of Medication Use"
          } ]
        },
        "text": {
          "status": "additional",
          "div": "<div xmlns=\"http://www.w3.org/1999/xhtml\"><table><thead><tr><th>Group Description</th><th>Code System</th><th>Code</th><th>Code Description</th><th>Date and Time</th><th>Status</th></tr></thead><tbody><tr><td>No Information</td></tr></tbody></table></div>"
        },
        "mode": "snapshot"
      }, {
        "title": "Vital Signs",
        "code": {
          "coding": [ {
            "system": "http://loinc.org",
            "code": "8716-3",
            "display": "Vital Signs"
          } ]
        },
        "text": {
          "status": "additional",
          "div": "<div xmlns=\"http://www.w3.org/1999/xhtml\"><table><thead><tr><th>Group Description</th><th>Code System</th><th>Code</th><th>Code Description</th><th>Value</th><th>Unit</th><th>Date and Time</th><th>Status</th></tr></thead><tbody><tr><td>BMI</td><td>LOINC</td><td>39156-5</td><td><span/>BMI</td><td>18.4</td><td>kg/m2</td><td>04-07-2010 10:00:00</td><td>Finding</td></tr><tr><td>Diastolic Blood Pressure</td><td>LOINC</td><td>8462-4</td><td><span/>BP Diastolic</td><td>60</td><td>mm[Hg]</td><td>04-07-2010 10:00:00</td><td>Finding</td></tr><tr><td>Heart Rate</td><td>LOINC</td><td>8867-4</td><td><span/>Heart Rate</td><td>70</td><td>/min</td><td>04-07-2010 10:00:00</td><td>Finding</td></tr><tr><td>Systolic Blood Pressure</td><td>LOINC</td><td>8480-6</td><td><span/>BP Systolic</td><td>128</td><td>mm[Hg]</td><td>04-07-2010 10:00:00</td><td>Finding</td></tr><tr><td>BMI</td><td>LOINC</td><td>39156-5</td><td><span/>BMI</td><td>18.2</td><td>kg/m2</td><td>08-06-2010 10:00:00</td><td>Finding</td></tr><tr><td>Diastolic Blood Pressure</td><td>LOINC</td><td>8462-4</td><td><span/>BP Diastolic</td><td>60</td><td>mm[Hg]</td><td>08-06-2010 10:00:00</td><td>Finding</td></tr><tr><td>Heart Rate</td><td>LOINC</td><td>8867-4</td><td><span/>Heart Rate</td><td>80</td><td>/min</td><td>08-06-2010 10:00:00</td><td>Finding</td></tr><tr><td>Systolic Blood Pressure</td><td>LOINC</td><td>8480-6</td><td><span/>BP Systolic</td><td>124</td><td>mm[Hg]</td><td>08-06-2010 10:00:00</td><td>Finding</td></tr><tr><td>Diastolic Blood Pressure</td><td>LOINC</td><td>8462-4</td><td><span/>BP Diastolic</td><td>64</td><td>mm[Hg]</td><td>12-11-2010 10:00:00</td><td>Finding</td></tr><tr><td>Heart Rate</td><td>LOINC</td><td>8867-4</td><td><span/>Heart Rate</td><td>80</td><td>/min</td><td>12-11-2010 10:00:00</td><td>Finding</td></tr><tr><td>Systolic Blood Pressure</td><td>LOINC</td><td>8480-6</td><td><span/>BP Systolic</td><td>126</td><td>mm[Hg]</td><td>12-11-2010 10:00:00</td><td>Finding</td></tr></tbody></table></div>"
        },
        "mode": "snapshot",
        "entry": [ {
          "reference": "Observation/2ffab8b0-bb6a-44ce-aa22-8ccf61824384",
          "display": "Heart Rate"
        }, {
          "reference": "Observation/0aa3f57e-074f-433f-94fa-69109faf463e",
          "display": "BP Diastolic"
        }, {
          "reference": "Observation/c636f2c5-04ff-4ba9-8eb2-056d0080fa26",
          "display": "BMI"
        }, {
          "reference": "Observation/41f59d10-caf7-4e74-96a4-58bad8f62e21",
          "display": "BP Systolic"
        }, {
          "reference": "Observation/13bccfbe-0e27-4ca8-8d24-31110e3f3a76",
          "display": "BMI"
        }, {
          "reference": "Observation/950c5891-5e02-46b1-8a33-0e52e2400cc4",
          "display": "BP Diastolic"
        }, {
          "reference": "Observation/d250a9ce-bd1b-46d6-93f1-6a6fed89b4c9",
          "display": "BP Systolic"
        }, {
          "reference": "Observation/ee9cbcb9-c2f4-48c8-9027-86a14e644178",
          "display": "Heart Rate"
        }, {
          "reference": "Observation/63e9ed97-d6cd-4367-8d33-18272c0421c4",
          "display": "BP Systolic"
        }, {
          "reference": "Observation/be6f0f79-4e25-4060-9632-107466cdf047",
          "display": "Heart Rate"
        }, {
          "reference": "Observation/b6ace326-5ae9-4ae2-abf2-da2851edd53a",
          "display": "BP Diastolic"
        } ]
      } ]
    }
  }, {
    "resource": {
      "resourceType": "Patient",
      "id": "5109f902-f4a7-4fd6-be92-47b63e20cfdb",
      "extension": [ {
        "url": "http://hl7.org/fhir/StructureDefinition/patient-religion",
        "valueCodeableConcept": {
          "coding": [ {
            "system": "urn:oid:2.16.840.1.113883.5.1076",
            "code": "1077",
            "display": "Protestant"
          } ]
        }
      }, {
        "url": "http://hl7.org/fhir/us/core/StructureDefinition/us-core-race",
        "extension": [ {
          "url": "text",
          "valueString": "Other Race"
        }, {
          "url": "ombCategory",
          "valueCoding": {
            "system": "urn:oid:2.16.840.1.113883.6.238",
            "code": "2131-1",
            "display": "Other Race"
          }
        } ]
      }, {
        "url": "http://hl7.org/fhir/us/core/StructureDefinition/us-core-ethnicity",
        "extension": [ {
          "url": "text",
          "valueString": "Hispanic or Latino"
        }, {
          "url": "ombCategory",
          "valueCoding": {
            "system": "urn:oid:2.16.840.1.113883.6.238",
            "code": "2135-2",
            "display": "Hispanic or Latino"
          }
        } ]
      }, {
        "url": "http://hl7.org/fhir/StructureDefinition/patient-birthPlace",
        "valueAddress": {
          "city": "Scranton",
          "state": "PA",
          "postalCode": "18503",
          "country": "US"
        }
      } ],
      "identifier": [ {
        "use": "official",
        "system": "urn:oid:2.16.840.1.113883.19.5.99999.2",
        "value": "998991"
      }, {
        "use": "official",
        "system": "urn:oid:2.16.840.1.113883.4.1",
        "value": "111-00-2330"
      } ],
      "name": [ {
        "use": "usual",
        "family": "Taylor",
        "given": [ "Daniel" ]
      } ],
      "telecom": [ {
        "system": "phone",
        "value": "(704)566-0640",
        "use": "mobile"
      } ],
      "gender": "male",
      "birthDate": "1962-05-28",
      "address": [ {
        "use": "home",
        "line": [ "2653 Concord Street" ],
        "city": "Charlotte",
        "state": "NC",
        "postalCode": "28212",
        "country": "US"
      } ],
      "maritalStatus": {
        "coding": [ {
          "system": "http://terminology.hl7.org/CodeSystem/v3-MaritalStatus",
          "code": "M",
          "display": "Married"
        } ]
      },
      "contact": [ {
        "relationship": [ {
          "coding": [ {
            "system": "http://terminology.hl7.org/CodeSystem/v2-0131",
            "code": "C",
            "display": "Emergency Contact"
          } ]
        } ],
        "name": {
          "family": "Hatcher",
          "given": [ "Thomas" ],
          "prefix": [ "Mr." ]
        },
        "telecom": [ {
          "system": "phone",
          "value": "(870)665-0076",
          "use": "home"
        }, {
          "system": "email",
          "value": "ThomasCHatcher@dayrep.com",
          "use": "work"
        } ],
        "address": {
          "use": "home",
          "line": [ "2607 Sunset Drive" ],
          "city": "Pine Bluff",
          "state": "AR",
          "postalCode": "71602",
          "country": "US"
        }
      } ],
      "communication": [ {
        "language": {
          "coding": [ {
            "system": "urn:ietf:bcp:47",
            "code": "spa"
          } ]
        },
        "preferred": true
      } ],
      "managingOrganization": {
        "reference": "Organization/be48a872-afe4-476b-a882-342a5270d072",
        "display": "Community Health and Hospitals"
      }
    }
  }, {
    "resource": {
      "resourceType": "Organization",
      "id": "be48a872-afe4-476b-a882-342a5270d072",
      "identifier": [ {
        "use": "official",
        "value": "2.16.840.1.113883.4.6"
      } ],
      "name": "Community Health and Hospitals",
      "telecom": [ {
        "system": "phone",
        "value": " 555-555-5000",
        "use": "work"
      } ],
      "address": [ {
        "line": [ "1001 Village Avenue" ],
        "city": "Portland",
        "state": "OR",
        "postalCode": "99123",
        "country": "US"
      } ]
    }
  }, {
    "resource": {
      "resourceType": "Practitioner",
      "id": "82352822-ceda-47bc-8a36-2ca0bfc842dd",
      "identifier": [ {
        "use": "official",
        "system": "urn:oid:2.16.840.1.113883.4.6",
        "value": "99999999"
      } ],
      "name": [ {
        "family": "Seven",
        "given": [ "Henry" ],
        "suffix": [ "MD" ]
      } ],
      "telecom": [ {
        "system": "phone",
        "value": "555-555-1002",
        "use": "work"
      } ],
      "address": [ {
        "line": [ "1002 Healthcare Drive" ],
        "city": "Portland",
        "state": "OR",
        "postalCode": "99123",
        "country": "US"
      } ]
    }
  }, {
    "resource": {
      "resourceType": "Practitioner",
      "id": "84f19c04-8ce3-4a0a-8079-a15ec0639f7f",
      "identifier": [ {
        "use": "official",
        "system": "http://hl7.org/fhir/sid/us-npi",
        "value": "999999999"
      } ],
      "name": [ {
        "family": "Seven",
        "given": [ "Henry" ]
      } ],
      "telecom": [ {
        "system": "phone",
        "value": "555-555-1002",
        "use": "work"
      } ],
      "address": [ {
        "line": [ "1001 Village Avenue" ],
        "city": "Portland",
        "state": "OR",
        "postalCode": "99123",
        "country": "US"
      } ]
    }
  }, {
    "resource": {
      "resourceType": "Practitioner",
      "id": "a5491814-2bb6-48a9-bb70-daad29284591",
      "identifier": [ {
        "use": "official",
        "system": "http://hl7.org/fhir/sid/us-npi",
        "value": "PseudoMD-1"
      } ],
      "name": [ {
        "family": "Seven",
        "given": [ "Henry" ],
        "suffix": [ "MD" ]
      } ],
      "telecom": [ {
        "system": "phone",
        "value": "+1-555-555-5000",
        "use": "home"
      } ],
      "address": [ {
        "line": [ "1001 Village Avenue" ],
        "city": "Portland",
        "state": "OR",
        "postalCode": "99123",
        "country": "US"
      } ]
    }
  }, {
    "resource": {
      "resourceType": "Organization",
      "id": "723ec559-d471-48a3-bc85-eaab895d54af",
      "identifier": [ {
        "use": "official",
        "system": "urn:oid:2.16.840.1.113883.4.6",
        "value": "99999999"
      } ],
      "name": "Community Health and Hospitals",
      "telecom": [ {
        "system": "phone",
        "value": " 555-555-1002",
        "use": "work"
      } ],
      "address": [ {
        "use": "work",
        "line": [ "1002 Healthcare Drive" ],
        "city": "Portland",
        "state": "OR",
        "postalCode": "99123",
        "country": "US"
      } ]
    }
  }, {
    "resource": {
      "resourceType": "AllergyIntolerance",
      "id": "e50c060a-7695-418c-8306-bfe4d2217d7f",
      "identifier": [ {
        "use": "official",
        "value": "36e3e930-7b14-11db-9fe1-0800200c9a66"
      } ],
      "clinicalStatus": {
        "coding": [ {
          "system": "http://terminology.hl7.org/CodeSystem/allergyintolerance-clinical",
          "code": "active",
          "display": "Active"
        } ]
      },
      "verificationStatus": {
        "coding": [ {
          "system": "http://terminology.hl7.org/CodeSystem/allergyintolerance-verification",
          "code": "confirmed",
          "display": "Confirmed"
        } ]
      },
      "type": "allergy",
      "category": [ "medication" ],
      "code": {
        "coding": [ {
          "system": "urn:oid:2.16.840.1.113883.3.26.1.5",
          "code": "N0000011298",
          "display": "Penicillin V"
        } ],
        "text": "Penicillin V + Penicillin V"
      },
      "patient": {
        "reference": "Patient/5109f902-f4a7-4fd6-be92-47b63e20cfdb",
        "display": "Daniel Taylor"
      },
      "recordedDate": "2010-04-07T10:00:00+02:00"
    }
  }, {
    "resource": {
      "resourceType": "AllergyIntolerance",
      "id": "3adb61ba-59e6-42a6-85f0-de1c5dae470a",
      "identifier": [ {
        "use": "official",
        "value": "36e3e930-7b14-11db-9fe1-0800200c9a66"
      } ],
      "clinicalStatus": {
        "coding": [ {
          "system": "http://terminology.hl7.org/CodeSystem/allergyintolerance-clinical",
          "code": "active",
          "display": "Active"
        } ]
      },
      "verificationStatus": {
        "coding": [ {
          "system": "http://terminology.hl7.org/CodeSystem/allergyintolerance-verification",
          "code": "confirmed",
          "display": "Confirmed"
        } ]
      },
      "type": "allergy",
      "category": [ "food" ],
      "code": {
        "coding": [ {
          "system": "http://fdasis.nlm.nih.gov",
          "code": "291P45F896",
          "display": "Eggs"
        }, {
          "system": "urn:oid:2.16.840.1.113883.6.103",
          "code": "V15.03",
          "display": "Allergy to eggs"
        } ],
        "text": "Allergy to Eggs + Eggs"
      },
      "patient": {
        "reference": "Patient/5109f902-f4a7-4fd6-be92-47b63e20cfdb",
        "display": "Daniel Taylor"
      },
      "recordedDate": "2010-04-07T10:00:00+02:00"
    }
  }, {
    "resource": {
      "resourceType": "AllergyIntolerance",
      "id": "9d5e2345-2e1b-4f06-adb2-def5569059cf",
      "identifier": [ {
        "use": "official",
        "value": "36e3e930-7b14-11db-9fe1-0800200c9a66"
      } ],
      "clinicalStatus": {
        "coding": [ {
          "system": "http://terminology.hl7.org/CodeSystem/allergyintolerance-clinical",
          "code": "active",
          "display": "Active"
        } ]
      },
      "verificationStatus": {
        "coding": [ {
          "system": "http://terminology.hl7.org/CodeSystem/allergyintolerance-verification",
          "code": "confirmed",
          "display": "Confirmed"
        } ]
      },
      "type": "allergy",
      "category": [ "medication" ],
      "code": {
        "coding": [ {
          "system": "http://www.nlm.nih.gov/research/umls/rxnorm",
          "code": "808917",
          "display": "Fosfomycin 33.3 MG/ML Oral Suspension"
        } ],
        "text": "Fosfomycin + Fosfomycin 33.3 MG/ML Oral Suspension"
      },
      "patient": {
        "reference": "Patient/5109f902-f4a7-4fd6-be92-47b63e20cfdb",
        "display": "Daniel Taylor"
      },
      "recordedDate": "2010-04-07T10:00:00+02:00"
    }
  }, {
    "resource": {
      "resourceType": "Condition",
      "id": "48410237-642b-4324-afa9-8a246e495a32",
      "identifier": [ {
        "use": "official",
        "value": "9d3d416d-45ab-4da1-912f-4583e0632000"
      } ],
      "clinicalStatus": {
        "coding": [ {
          "system": "http://terminology.hl7.org/CodeSystem/condition-clinical",
          "code": "active",
          "display": "Active"
        } ]
      },
      "verificationStatus": {
        "coding": [ {
          "system": "http://terminology.hl7.org/CodeSystem/condition-ver-status",
          "code": "confirmed",
          "display": "Confirmed"
        } ]
      },
      "category": [ {
        "coding": [ {
          "system": "http://terminology.hl7.org/CodeSystem/condition-category",
          "code": "problem-list-item",
          "display": "Problem List Item"
        } ]
      } ],
      "code": {
        "coding": [ {
          "system": "http://snomed.info/sct",
          "code": "279039007",
          "display": "Low back pain"
        }, {
          "system": "urn:oid:2.16.840.1.113883.6.90",
          "code": "M54.9",
          "display": "Dorsalgia, unspecified"
        }, {
          "system": "urn:oid:2.16.840.1.113883.6.103",
          "code": "724.2",
          "display": "Lumbago"
        } ]
      },
      "subject": {
        "reference": "Patient/5109f902-f4a7-4fd6-be92-47b63e20cfdb",
        "display": "Daniel Taylor"
      },
      "onsetDateTime": "2010-04-07T10:00:00+02:00"
    }
  }, {
    "resource": {
      "resourceType": "Encounter",
      "id": "67d7863c-db62-4eb6-8f2b-00997f0c915c",
      "identifier": [ {
        "use": "official",
        "value": "2a620155-9d11-439e-92b3-5d9815ff4de8"
      } ],
      "status": "finished",
      "type": [ {
        "coding": [ {
          "system": "http://www.ama-assn.org/go/cpt",
          "code": "98940",
          "display": "Chiropractic manipulation"
        } ]
      } ],
      "subject": {
        "reference": "Patient/5109f902-f4a7-4fd6-be92-47b63e20cfdb",
        "display": "Daniel Taylor"
      },
      "period": {
        "start": "2010-06-10T10:00:00+02:00"
      }
    }
  }, {
    "resource": {
      "resourceType": "Encounter",
      "id": "68e109da-14c4-41e6-b6a7-b0bc752a8034",
      "identifier": [ {
        "use": "official",
        "value": "2a620155-9d11-439e-92b3-5d9815ff4de8"
      } ],
      "status": "finished",
      "type": [ {
        "coding": [ {
          "system": "http://www.ama-assn.org/go/cpt",
          "code": "99213",
          "display": "Office/outpatient visit, est"
        }, {
          "system": "urn:oid:2.16.840.1.113883.6.103",
          "code": "V70.0",
          "display": "Routine general medical examination at a health care facility"
        } ]
      } ],
      "subject": {
        "reference": "Patient/5109f902-f4a7-4fd6-be92-47b63e20cfdb",
        "display": "Daniel Taylor"
      },
      "period": {
        "start": "2010-12-11T10:00:00+01:00"
      }
    }
  }, {
    "resource": {
      "resourceType": "Encounter",
      "id": "b7c59958-d50f-448b-b630-7f645cfde4fd",
      "identifier": [ {
        "use": "official",
        "value": "2a620155-9d11-439e-92b3-5d9815ff4de8"
      } ],
      "status": "finished",
      "type": [ {
        "coding": [ {
          "system": "http://www.ama-assn.org/go/cpt",
          "code": "99324",
          "display": "Domicil/r-home visit new pat"
        } ]
      } ],
      "subject": {
        "reference": "Patient/5109f902-f4a7-4fd6-be92-47b63e20cfdb",
        "display": "Daniel Taylor"
      },
      "period": {
        "start": "2010-07-05T10:00:00+02:00"
      }
    }
  }, {
    "resource": {
      "resourceType": "Encounter",
      "id": "d5504d9e-805f-4f81-a2fd-f2f7349c18f7",
      "identifier": [ {
        "use": "official",
        "value": "2a620155-9d11-439e-92b3-5d9815ff4de8"
      } ],
      "status": "finished",
      "type": [ {
        "coding": [ {
          "system": "http://www.ama-assn.org/go/cpt",
          "code": "99213",
          "display": "Office/outpatient visit, est"
        }, {
          "system": "urn:oid:2.16.840.1.113883.6.103",
          "code": "V70.0",
          "display": "Routine general medical examination at a health care facility"
        } ]
      } ],
      "subject": {
        "reference": "Patient/5109f902-f4a7-4fd6-be92-47b63e20cfdb",
        "display": "Daniel Taylor"
      },
      "period": {
        "start": "2010-04-07T10:00:00+02:00"
      },
      "reasonCode": [ {
        "coding": [ {
          "system": "http://snomed.info/sct",
          "code": "279039007",
          "display": "low back pain"
        } ]
      } ],
      "reasonReference": [ {
        "reference": "Condition/2e58a463-8fe7-4235-88df-8cbca9f8e086",
        "display": "low back pain"
      } ]
    }
  }, {
    "resource": {
      "resourceType": "Condition",
      "id": "2e58a463-8fe7-4235-88df-8cbca9f8e086",
      "identifier": [ {
        "use": "official",
        "system": "urn:uuid:db734647-fc99-424c-a864-7e3cda82e703",
        "value": "45665"
      } ],
      "clinicalStatus": {
        "coding": [ {
          "system": "http://terminology.hl7.org/CodeSystem/condition-clinical",
          "code": "active",
          "display": "Active"
        } ]
      },
      "category": [ {
        "coding": [ {
          "system": "http://hl7.org/fhir/condition-category",
          "code": "encounter-diagnosis",
          "display": "Encounter Diagnosis"
        } ]
      } ],
      "code": {
        "coding": [ {
          "system": "http://snomed.info/sct",
          "code": "279039007",
          "display": "low back pain"
        }, {
          "system": "urn:oid:2.16.840.1.113883.6.90",
          "code": "M54.9",
          "display": "Dorsalgia, unspecified"
        }, {
          "system": "urn:oid:2.16.840.1.113883.6.103",
          "code": "724.2",
          "display": "Lumbago"
        } ]
      },
      "subject": {
        "reference": "Patient/5109f902-f4a7-4fd6-be92-47b63e20cfdb",
        "display": "Daniel Taylor"
      },
      "onsetDateTime": "2010-04-07T10:00:00+02:00"
    }
  }, {
    "resource": {
      "resourceType": "Encounter",
      "id": "1d6848b2-5061-4b25-bd95-0df36f16f525",
      "identifier": [ {
        "use": "official",
        "value": "2a620155-9d11-439e-92b3-5d9815ff4de8"
      } ],
      "status": "finished",
      "type": [ {
        "coding": [ {
          "system": "http://www.ama-assn.org/go/cpt",
          "code": "99324",
          "display": "Domicil/r-home visit new pat"
        } ]
      } ],
      "subject": {
        "reference": "Patient/5109f902-f4a7-4fd6-be92-47b63e20cfdb",
        "display": "Daniel Taylor"
      },
      "period": {
        "start": "2010-08-06T10:00:00+02:00"
      }
    }
  }, {
    "resource": {
      "resourceType": "Encounter",
      "id": "7f145857-1ec5-4f59-b64e-5ec2490b8c40",
      "identifier": [ {
        "use": "official",
        "value": "2a620155-9d11-439e-92b3-5d9815ff4de8"
      } ],
      "status": "finished",
      "type": [ {
        "coding": [ {
          "system": "http://www.ama-assn.org/go/cpt",
          "code": "98940",
          "display": "Chiropractic manipulation"
        } ]
      } ],
      "subject": {
        "reference": "Patient/5109f902-f4a7-4fd6-be92-47b63e20cfdb",
        "display": "Daniel Taylor"
      },
      "period": {
        "start": "2010-09-03T10:00:00+02:00"
      }
    }
  }, {
    "resource": {
      "resourceType": "Observation",
      "id": "a91d0220-6f2b-4819-9fc8-666d745bad5d",
      "identifier": [ {
        "use": "official",
        "system": "urn:oid:2.16.840.1.113883.19",
        "value": "123456789"
      } ],
      "status": "final",
      "code": {
        "coding": [ {
          "system": "urn:oid:2.16.840.1.113883.5.4",
          "code": "ASSERTION"
        } ]
      },
      "subject": {
        "reference": "Patient/5109f902-f4a7-4fd6-be92-47b63e20cfdb",
        "display": "Daniel Taylor"
      },
      "effectivePeriod": {
        "start": "2010-04-07T10:00:00+02:00"
      },
      "valueCodeableConcept": {
        "coding": [ {
          "system": "http://snomed.info/sct",
          "code": "266919005",
          "display": "Never smoker (Never Smoked)"
        }, {
          "system": "http://snomed.info/sct",
          "code": "449868002",
          "display": "Current every day smoker"
        } ]
      }
    }
  }, {
    "resource": {
      "resourceType": "Observation",
      "id": "2ffab8b0-bb6a-44ce-aa22-8ccf61824384",
      "identifier": [ {
        "use": "official",
        "value": "c6f88321-67ad-11db-bd13-0800200c9a66"
      } ],
      "status": "final",
      "category": [ {
        "coding": [ {
          "system": "http://terminology.hl7.org/CodeSystem/observation-category",
          "code": "vital-signs",
          "display": "Vital Signs"
        } ]
      } ],
      "code": {
        "coding": [ {
          "system": "http://loinc.org",
          "code": "8867-4",
          "display": "Heart Rate"
        } ]
      },
      "subject": {
        "reference": "Patient/5109f902-f4a7-4fd6-be92-47b63e20cfdb",
        "display": "Daniel Taylor"
      },
      "effectivePeriod": {
        "start": "2010-04-07T10:00:00+02:00"
      },
      "valueQuantity": {
        "value": 70,
        "unit": "/min",
        "system": "http://unitsofmeasure.org",
        "code": "/min"
      }
    }
  }, {
    "resource": {
      "resourceType": "Observation",
      "id": "0aa3f57e-074f-433f-94fa-69109faf463e",
      "identifier": [ {
        "use": "official",
        "value": "c6f88321-67ad-11db-bd13-0800200c9a66"
      } ],
      "status": "final",
      "category": [ {
        "coding": [ {
          "system": "http://terminology.hl7.org/CodeSystem/observation-category",
          "code": "vital-signs",
          "display": "Vital Signs"
        } ]
      } ],
      "code": {
        "coding": [ {
          "system": "http://loinc.org",
          "code": "8462-4",
          "display": "BP Diastolic"
        } ]
      },
      "subject": {
        "reference": "Patient/5109f902-f4a7-4fd6-be92-47b63e20cfdb",
        "display": "Daniel Taylor"
      },
      "effectivePeriod": {
        "start": "2010-04-07T10:00:00+02:00"
      },
      "valueQuantity": {
        "value": 60,
        "unit": "mm[Hg]",
        "system": "http://unitsofmeasure.org",
        "code": "mm[Hg]"
      }
    }
  }, {
    "resource": {
      "resourceType": "Observation",
      "id": "c636f2c5-04ff-4ba9-8eb2-056d0080fa26",
      "identifier": [ {
        "use": "official",
        "value": "c6f88321-67ad-11db-bd13-0800200c9a66"
      } ],
      "status": "final",
      "category": [ {
        "coding": [ {
          "system": "http://terminology.hl7.org/CodeSystem/observation-category",
          "code": "vital-signs",
          "display": "Vital Signs"
        } ]
      } ],
      "code": {
        "coding": [ {
          "system": "http://loinc.org",
          "code": "39156-5",
          "display": "BMI"
        } ]
      },
      "subject": {
        "reference": "Patient/5109f902-f4a7-4fd6-be92-47b63e20cfdb",
        "display": "Daniel Taylor"
      },
      "effectivePeriod": {
        "start": "2010-04-07T10:00:00+02:00"
      },
      "valueQuantity": {
        "value": 18.4,
        "unit": "kg/m2",
        "system": "http://unitsofmeasure.org",
        "code": "kg/m2"
      }
    }
  }, {
    "resource": {
      "resourceType": "Observation",
      "id": "41f59d10-caf7-4e74-96a4-58bad8f62e21",
      "identifier": [ {
        "use": "official",
        "value": "c6f88321-67ad-11db-bd13-0800200c9a66"
      } ],
      "status": "final",
      "category": [ {
        "coding": [ {
          "system": "http://terminology.hl7.org/CodeSystem/observation-category",
          "code": "vital-signs",
          "display": "Vital Signs"
        } ]
      } ],
      "code": {
        "coding": [ {
          "system": "http://loinc.org",
          "code": "8480-6",
          "display": "BP Systolic"
        } ]
      },
      "subject": {
        "reference": "Patient/5109f902-f4a7-4fd6-be92-47b63e20cfdb",
        "display": "Daniel Taylor"
      },
      "effectivePeriod": {
        "start": "2010-04-07T10:00:00+02:00"
      },
      "valueQuantity": {
        "value": 128,
        "unit": "mm[Hg]",
        "system": "http://unitsofmeasure.org",
        "code": "mm[Hg]"
      }
    }
  }, {
    "resource": {
      "resourceType": "Observation",
      "id": "13bccfbe-0e27-4ca8-8d24-31110e3f3a76",
      "identifier": [ {
        "use": "official",
        "value": "c6f88321-67ad-11db-bd13-0800200c9a66"
      } ],
      "status": "final",
      "category": [ {
        "coding": [ {
          "system": "http://terminology.hl7.org/CodeSystem/observation-category",
          "code": "vital-signs",
          "display": "Vital Signs"
        } ]
      } ],
      "code": {
        "coding": [ {
          "system": "http://loinc.org",
          "code": "39156-5",
          "display": "BMI"
        } ]
      },
      "subject": {
        "reference": "Patient/5109f902-f4a7-4fd6-be92-47b63e20cfdb",
        "display": "Daniel Taylor"
      },
      "effectivePeriod": {
        "start": "2010-08-06T10:00:00+02:00"
      },
      "valueQuantity": {
        "value": 18.2,
        "unit": "kg/m2",
        "system": "http://unitsofmeasure.org",
        "code": "kg/m2"
      }
    }
  }, {
    "resource": {
      "resourceType": "Observation",
      "id": "950c5891-5e02-46b1-8a33-0e52e2400cc4",
      "identifier": [ {
        "use": "official",
        "value": "c6f88321-67ad-11db-bd13-0800200c9a66"
      } ],
      "status": "final",
      "category": [ {
        "coding": [ {
          "system": "http://terminology.hl7.org/CodeSystem/observation-category",
          "code": "vital-signs",
          "display": "Vital Signs"
        } ]
      } ],
      "code": {
        "coding": [ {
          "system": "http://loinc.org",
          "code": "8462-4",
          "display": "BP Diastolic"
        } ]
      },
      "subject": {
        "reference": "Patient/5109f902-f4a7-4fd6-be92-47b63e20cfdb",
        "display": "Daniel Taylor"
      },
      "effectivePeriod": {
        "start": "2010-08-06T10:00:00+02:00"
      },
      "valueQuantity": {
        "value": 60,
        "unit": "mm[Hg]",
        "system": "http://unitsofmeasure.org",
        "code": "mm[Hg]"
      }
    }
  }, {
    "resource": {
      "resourceType": "Observation",
      "id": "d250a9ce-bd1b-46d6-93f1-6a6fed89b4c9",
      "identifier": [ {
        "use": "official",
        "value": "c6f88321-67ad-11db-bd13-0800200c9a66"
      } ],
      "status": "final",
      "category": [ {
        "coding": [ {
          "system": "http://terminology.hl7.org/CodeSystem/observation-category",
          "code": "vital-signs",
          "display": "Vital Signs"
        } ]
      } ],
      "code": {
        "coding": [ {
          "system": "http://loinc.org",
          "code": "8480-6",
          "display": "BP Systolic"
        } ]
      },
      "subject": {
        "reference": "Patient/5109f902-f4a7-4fd6-be92-47b63e20cfdb",
        "display": "Daniel Taylor"
      },
      "effectivePeriod": {
        "start": "2010-08-06T10:00:00+02:00"
      },
      "valueQuantity": {
        "value": 124,
        "unit": "mm[Hg]",
        "system": "http://unitsofmeasure.org",
        "code": "mm[Hg]"
      }
    }
  }, {
    "resource": {
      "resourceType": "Observation",
      "id": "ee9cbcb9-c2f4-48c8-9027-86a14e644178",
      "identifier": [ {
        "use": "official",
        "value": "c6f88321-67ad-11db-bd13-0800200c9a66"
      } ],
      "status": "final",
      "category": [ {
        "coding": [ {
          "system": "http://terminology.hl7.org/CodeSystem/observation-category",
          "code": "vital-signs",
          "display": "Vital Signs"
        } ]
      } ],
      "code": {
        "coding": [ {
          "system": "http://loinc.org",
          "code": "8867-4",
          "display": "Heart Rate"
        } ]
      },
      "subject": {
        "reference": "Patient/5109f902-f4a7-4fd6-be92-47b63e20cfdb",
        "display": "Daniel Taylor"
      },
      "effectivePeriod": {
        "start": "2010-08-06T10:00:00+02:00"
      },
      "valueQuantity": {
        "value": 80,
        "unit": "/min",
        "system": "http://unitsofmeasure.org",
        "code": "/min"
      }
    }
  }, {
    "resource": {
      "resourceType": "Observation",
      "id": "63e9ed97-d6cd-4367-8d33-18272c0421c4",
      "identifier": [ {
        "use": "official",
        "value": "c6f88321-67ad-11db-bd13-0800200c9a66"
      } ],
      "status": "final",
      "category": [ {
        "coding": [ {
          "system": "http://terminology.hl7.org/CodeSystem/observation-category",
          "code": "vital-signs",
          "display": "Vital Signs"
        } ]
      } ],
      "code": {
        "coding": [ {
          "system": "http://loinc.org",
          "code": "8480-6",
          "display": "BP Systolic"
        } ]
      },
      "subject": {
        "reference": "Patient/5109f902-f4a7-4fd6-be92-47b63e20cfdb",
        "display": "Daniel Taylor"
      },
      "effectivePeriod": {
        "start": "2010-12-11T10:00:00+01:00"
      },
      "valueQuantity": {
        "value": 126,
        "unit": "mm[Hg]",
        "system": "http://unitsofmeasure.org",
        "code": "mm[Hg]"
      }
    }
  }, {
    "resource": {
      "resourceType": "Observation",
      "id": "be6f0f79-4e25-4060-9632-107466cdf047",
      "identifier": [ {
        "use": "official",
        "value": "c6f88321-67ad-11db-bd13-0800200c9a66"
      } ],
      "status": "final",
      "category": [ {
        "coding": [ {
          "system": "http://terminology.hl7.org/CodeSystem/observation-category",
          "code": "vital-signs",
          "display": "Vital Signs"
        } ]
      } ],
      "code": {
        "coding": [ {
          "system": "http://loinc.org",
          "code": "8867-4",
          "display": "Heart Rate"
        } ]
      },
      "subject": {
        "reference": "Patient/5109f902-f4a7-4fd6-be92-47b63e20cfdb",
        "display": "Daniel Taylor"
      },
      "effectivePeriod": {
        "start": "2010-12-11T10:00:00+01:00"
      },
      "valueQuantity": {
        "value": 80,
        "unit": "/min",
        "system": "http://unitsofmeasure.org",
        "code": "/min"
      }
    }
  }, {
    "resource": {
      "resourceType": "Observation",
      "id": "b6ace326-5ae9-4ae2-abf2-da2851edd53a",
      "identifier": [ {
        "use": "official",
        "value": "c6f88321-67ad-11db-bd13-0800200c9a66"
      } ],
      "status": "final",
      "category": [ {
        "coding": [ {
          "system": "http://terminology.hl7.org/CodeSystem/observation-category",
          "code": "vital-signs",
          "display": "Vital Signs"
        } ]
      } ],
      "code": {
        "coding": [ {
          "system": "http://loinc.org",
          "code": "8462-4",
          "display": "BP Diastolic"
        } ]
      },
      "subject": {
        "reference": "Patient/5109f902-f4a7-4fd6-be92-47b63e20cfdb",
        "display": "Daniel Taylor"
      },
      "effectivePeriod": {
        "start": "2010-12-11T10:00:00+01:00"
      },
      "valueQuantity": {
        "value": 64,
        "unit": "mm[Hg]",
        "system": "http://unitsofmeasure.org",
        "code": "mm[Hg]"
      }
    }
  } ]
}