{
  "resourceType": "Bundle",
  "entry": [ {
    "resource": {
      "resourceType": "Composition",
      "id": "ddaceece-3124-47fc-b109-138621e53929",
      "identifier": {
        "use": "official",
        "value": "db734647-fc99-424c-a864-7e3cda82e703"
      },
      "status": "preliminary",
      "type": {
        "coding": [ {
          "system": "http://loinc.org",
          "code": "34133-9",
          "display": "Summarization of Episode Note"
        } ]
      },
      "category": [ {
        "coding": [ {
          "system": "http://hl7.org/fhir/ValueSet/doc-classcodes",
          "code": "LP173421-7",
          "display": "Note"
        } ]
      } ],
      "subject": {
        "reference": "Patient/2a3e5584-3714-44e7-b0da-01c742272972",
        "display": "Brent Bush"
      },
      "date": "2014-04-16T11:54:43+02:00",
      "author": [ {
        "reference": "Practitioner/61ee5fe4-611a-4a9c-8a69-c5376ce688d9",
        "display": "Henry Seven MD"
      } ],
      "title": "Community Health and Hospitals: Health Summary",
      "confidentiality": "N",
      "attester": [ {
        "mode": "legal",
        "time": "2013-04-18T09:00:00+05:00",
        "party": {
          "reference": "Practitioner/17af596e-940b-4268-b240-0756f2f1c757",
          "display": "Henry Seven"
        }
      }, {
        "mode": "professional",
        "time": "2014-04-16T11:54:43+02:00",
        "party": {
          "reference": "Practitioner/17af596e-940b-4268-b240-0756f2f1c757",
          "display": "Henry Seven"
        }
      } ],
      "custodian": {
        "reference": "Organization/8bdede07-f979-4572-9be6-fb188b9dbcb1",
        "display": "Community Health and Hospitals"
      },
      "event": [ {
        "period": {
          "start": "2010-06-02T10:00:00+02:00",
          "end": "2010-09-09T10:00:00+02:00"
        },
        "detail": [ {
          "reference": "Practitioner/bb4558fc-330a-42ec-b37e-f6f1b95c9d71",
          "display": "Henry Seven MD"
        } ]
      } ],
      "section": [ {
        "title": "Results",
        "code": {
          "coding": [ {
            "system": "http://loinc.org",
            "code": "30954-2",
            "display": "Results"
          } ]
        },
        "text": {
          "status": "additional",
          "div": "<div xmlns=\"http://www.w3.org/1999/xhtml\"><table><thead><tr><th>Group Description</th><th>Code System</th><th>Code</th><th>Code Description</th><th>Value</th><th>Unit</th><th>Reference Range</th><th>Date and Time</th><th>Status</th></tr></thead><tbody><tr><td>High Density Lipoprotein (HDL)</td><td>LOINC</td><td>14646-4</td><td><span/>HDLc SerPl-sCnc</td><td>58</td><td>mg/dL</td><td>&amp;gt;=40 mg/dL</td><td>06-02-2010 10:00:00</td><td>Completed</td></tr><tr><td/><td>CPT</td><td>83701</td><td>Lipoprotein bld, hr fraction</td><td/><td/><td/><td/><td/></tr><tr><td/><td>SNOMED-CT</td><td>28036006</td><td>High density lipoprotein cholesterol measurement</td><td/><td/><td/><td/><td/></tr><tr><td>Low Density Lipoprotein (LDL)</td><td>LOINC</td><td>2089-1</td><td><span/>LDLc SerPl-mCnc</td><td>106</td><td>mg/dL</td><td>&amp;lt;130 mg/dL (calc)</td><td>06-02-2010 10:00:00</td><td>Completed</td></tr><tr><td/><td>CPT</td><td>83721</td><td>Assay of blood lipoprotein</td><td/><td/><td/><td/><td/></tr><tr><td/><td>SNOMED-CT</td><td>113079009</td><td>Low density lipoprotein cholesterol measurement</td><td/><td/><td/><td/><td/></tr><tr><td>Total Cholesterol</td><td>LOINC</td><td>2093-3</td><td><span/>Cholest SerPl-mCnc</td><td>190</td><td>mg/dL</td><td>125-200 mg/dL</td><td>06-02-2010 10:00:00</td><td>Completed</td></tr><tr><td/><td>CPT</td><td>82465</td><td>Assay, bld/serum cholesterol</td><td/><td/><td/><td/><td/></tr><tr><td/><td>SNOMED-CT</td><td>121868005</td><td>Total cholesterol measurement</td><td/><td/><td/><td/><td/></tr><tr><td>Triglycerides</td><td>LOINC</td><td>12951-0</td><td><span/>Trigl SerPl Calc-mCnc</td><td>130</td><td>mg/dL</td><td>10-39 years: 55-110 mg/dL | 40-59 years: 70-150 mg/dL | &amp;gt;60 years: 80-150 mg/dL | Therapeutic Target: &amp;lt;100 mg/dL </td><td>06-02-2010 10:00:00</td><td>Completed</td></tr><tr><td/><td>CPT</td><td>84478</td><td>Assay of triglycerides</td><td/><td/><td/><td/><td/></tr><tr><td/><td>SNOMED-CT</td><td>14740000</td><td>Triglycerides measurement</td><td/><td/><td/><td/><td/></tr><tr><td>Gleason Score</td><td>LOINC</td><td>35266-6</td><td><span/>Gleason Score Spec Ql</td><td>4</td><td>NA</td><td>2-10</td><td>08-04-2010 10:00:00</td><td>Completed</td></tr><tr><td/><td>SNOMED-CT</td><td>384997002</td><td>Total Gleason score</td><td/><td/><td/><td/><td/></tr><tr><td>Prostate Specific Antigen Test</td><td>LOINC</td><td>19195-7</td><td><span/>PSA SerPl-aCnc</td><td>24</td><td>ng/mL</td><td>&amp;lt;2.5 ng/mL</td><td>08-04-2010 10:00:00</td><td>Completed</td></tr><tr><td/><td>CPT</td><td>84153</td><td>Assay of psa, total</td><td/><td/><td/><td/><td/></tr><tr><td/><td>SNOMED-CT</td><td>63476009</td><td>Prostate specific antigen measurement</td><td/><td/><td/><td/><td/></tr></tbody></table></div>"
        },
        "mode": "snapshot",
        "entry": [ {
          "reference": "DiagnosticReport/b6b5bbec-93c9-4c53-b51b-fceb407df1fa",
          "display": "Pathology"
        }, {
          "reference": "DiagnosticReport/40349d67-ea79-459e-b2b1-2e5cb285b692",
          "display": "Blood Chemistry"
        }, {
          "reference": "DiagnosticReport/47fdbf9d-9d07-439f-bc76-4520cddc65f8",
          "display": "Lipid Panel"
        } ]
      }, {
        "title": "Vital Signs",
        "code": {
          "coding": [ {
            "system": "http://loinc.org",
            "code": "8716-3",
            "display": "Vital Signs"
          } ]
        },
        "text": {
          "status": "additional",
          "div": "<div xmlns=\"http://www.w3.org/1999/xhtml\"><table><thead><tr><th>Group Description</th><th>Code System</th><th>Code</th><th>Code Description</th><th>Value</th><th>Unit</th><th>Date and Time</th><th>Status</th></tr></thead><tbody><tr><td>BMI</td><td>LOINC</td><td>39156-5</td><td><span/>BMI</td><td>29.3</td><td>kg/m2</td><td>06-02-2010 10:00:00</td><td>Finding</td></tr><tr><td>Diastolic Blood Pressure</td><td>LOINC</td><td>8462-4</td><td><span/>BP Diastolic</td><td>86</td><td>mm[Hg]</td><td>06-02-2010 10:00:00</td><td>Finding</td></tr><tr><td>Heart Rate</td><td>LOINC</td><td>8867-4</td><td><span/>Heart Rate</td><td>88</td><td>/min</td><td>06-02-2010 10:00:00</td><td>Finding</td></tr><tr><td>Systolic Blood Pressure</td><td>LOINC</td><td>8480-6</td><td><span/>BP Systolic</td><td>138</td><td>mm[Hg]</td><td>06-02-2010 10:00:00</td><td>Finding</td></tr><tr><td>Diastolic Blood Pressure</td><td>LOINC</td><td>8462-4</td><td><span/>BP Diastolic</td><td>88</td><td>mm[Hg]</td><td>07-08-2010 10:00:00</td><td>Finding</td></tr><tr><td>Heart Rate</td><td>LOINC</td><td>8867-4</td><td><span/>Heart Rate</td><td>90</td><td>/min</td><td>07-08-2010 10:00:00</td><td>Finding</td></tr><tr><td>Systolic Blood Pressure</td><td>LOINC</td><td>8480-6</td><td><span/>BP Systolic</td><td>136</td><td>mm[Hg]</td><td>07-08-2010 10:00:00</td><td>Finding</td></tr><tr><td>BMI</td><td>LOINC</td><td>39156-5</td><td><span/>BMI</td><td>28.2</td><td>kg/m2</td><td>09-09-2010 10:00:00</td><td>Finding</td></tr><tr><td>Diastolic Blood Pressure</td><td>LOINC</td><td>8462-4</td><td><span/>BP Diastolic</td><td>88</td><td>mm[Hg]</td><td>09-09-2010 10:00:00</td><td>Finding</td></tr><tr><td>Heart Rate</td><td>LOINC</td><td>8867-4</td><td><span/>Heart Rate</td><td>88</td><td>/min</td><td>09-09-2010 10:00:00</td><td>Finding</td></tr><tr><td>Systolic Blood Pressure</td><td>LOINC</td><td>8480-6</td><td><span/>BP Systolic</td><td>138</td><td>mm[Hg]</td><td>09-09-2010 10:00:00</td><td>Finding</td></tr></tbody></table></div>"
        },
        "mode": "snapshot",
        "entry": [ {
          "reference": "Observation/e5d43543-2b4a-4b53-a4ff-fc6fae1daacd",
          "display": "BP Diastolic"
        }, {
          "reference": "Observation/3c52eb2b-d5a3-4d05-8f8c-98b34d4056a0",
          "display": "Heart Rate"
        }, {
          "reference": "Observation/5bded6ba-e3c0-4137-92dc-c34d27f6f798",
          "display": "BMI"
        }, {
          "reference": "Observation/86b58b11-ac21-4fdf-b3f5-92aae0d77f9d",
          "display": "BP Systolic"
        }, {
          "reference": "Observation/be91ecd6-ec3b-4f3f-bed5-8c59cd79a1dd",
          "display": "BMI"
        }, {
          "reference": "Observation/3510dc8d-61e8-46af-8d98-fb9ca639a4eb",
          "display": "BP Diastolic"
        }, {
          "reference": "Observation/4e5fe372-8c43-4591-bd30-6a60ea9633c0",
          "display": "Heart Rate"
        }, {
          "reference": "Observation/1563fddd-caa1-4224-b79e-bbd1c588d0b4",
          "display": "BP Systolic"
        }, {
          "reference": "Observation/b191e7f6-4449-40b1-b1a3-5ffddd24ff43",
          "display": "Heart Rate"
        }, {
          "reference": "Observation/5173c1c2-ac88-4394-ad0b-7cc8ebafa377",
          "display": "BP Diastolic"
        }, {
          "reference": "Observation/de237ad0-5bea-40ab-9702-a08072afb956",
          "display": "BP Systolic"
        } ]
      }, {
        "title": "Social History",
        "code": {
          "coding": [ {
            "system": "http://loinc.org",
            "code": "29762-2",
            "display": "Social History"
          } ]
        },
        "text": {
          "status": "additional",
          "div": "<div xmlns=\"http://www.w3.org/1999/xhtml\"><table><thead><tr><th>Group Description</th><th>Code System</th><th>Code</th><th>Code Description</th><th>Date and Time</th><th>Status</th></tr></thead><tbody><tr><td>Tobacco Use</td><td>SNOMED-CT</td><td>266919005</td><td><span/>Never smoker (Never Smoked)</td><td>06-02-2010 10:00:00</td><td>Active</td></tr><tr><td/><td>SNOMED-CT</td><td>449868002</td><td>Current every day smoker</td><td/><td/></tr></tbody></table></div>"
        },
        "mode": "snapshot",
        "entry": [ {
          "reference": "Observation/bae8a527-01ca-46ea-9cab-c9a447755366"
        } ]
      }, {
        "title": "Procedures",
        "code": {
          "coding": [ {
            "system": "http://loinc.org",
            "code": "47519-4",
            "display": "HISTORY OF PROCEDURES"
          } ]
        },
        "text": {
          "status": "additional",
          "div": "<div xmlns=\"http://www.w3.org/1999/xhtml\"><table><thead><tr><th>Group Description</th><th>Code System</th><th>Code</th><th>Code Description</th><th>Date and Time</th><th>Status</th></tr></thead><tbody><tr><td>Colonoscopy</td><td>CPT</td><td>45378</td><td><span/>Diagnostic colonoscopy</td><td>06-02-2010 10:00:00</td><td>Performed</td></tr><tr><td/><td>HCPCS</td><td>G0121</td><td>Colon ca scrn not hi rsk ind</td><td/><td/></tr><tr><td/><td>ICD-10-CM</td><td>Z12.11</td><td>Encounter for screening for malignant neoplasm of colon</td><td/><td/></tr><tr><td/><td>ICD-9-CM</td><td>45.23</td><td>Colonoscopy</td><td/><td/></tr><tr><td/><td>SNOMED-CT</td><td>174184006</td><td>Diagnostic endoscopic examination on colon</td><td/><td/></tr><tr><td>Counseling For Nutrition</td><td>CPT</td><td>97802</td><td><span/>Medical nutrition, indiv, in</td><td>06-02-2010 10:00:00</td><td>Performed</td></tr><tr><td/><td>HCPCS</td><td>S9470</td><td>Nutritional counseling, diet</td><td/><td/></tr><tr><td/><td>ICD-10-CM</td><td>Z00.8</td><td>Encounter for other general examination</td><td/><td/></tr><tr><td/><td>ICD-9-CM</td><td>V65.3</td><td>Dietary surveillance and counseling</td><td/><td/></tr><tr><td>Counseling For Physical Activity</td><td>HCPCS</td><td>S9451</td><td><span/>Exercise class</td><td>06-02-2010 10:00:00</td><td>Performed</td></tr><tr><td/><td>ICD-10-CM</td><td>Z71.3</td><td>Dietary counseling and surveillance</td><td/><td/></tr><tr><td/><td>ICD-9-CM</td><td>V65.41</td><td>Exercise counseling</td><td/><td/></tr><tr><td>Bone Scan</td><td>CPT</td><td>78300</td><td><span/>Bone imaging, limited area</td><td>08-04-2010 10:00:00</td><td>Performed</td></tr><tr><td/><td>SNOMED-CT</td><td>3998005</td><td>Bone imaging of limited area</td><td/><td/></tr><tr><td>Prostate Cancer Treatment</td><td>CPT</td><td>55810</td><td><span/>Extensive prostate surgery</td><td>08-04-2010 10:00:00</td><td>Performed</td></tr><tr><td/><td>SNOMED-CT</td><td>176259004</td><td>Radical prostatectomy - unspecified excision of pelvic nodes</td><td/><td/></tr></tbody></table></div>"
        },
        "mode": "snapshot",
        "entry": [ {
          "reference": "Procedure/40441638-2d81-4db9-8f22-69ca364121c4",
          "display": "Extensive prostate surgery"
        } ]
      }, {
        "title": "Medications",
        "code": {
          "coding": [ {
            "system": "http://loinc.org",
            "code": "10160-0",
            "display": "History of Medication Use"
          } ]
        },
        "text": {
          "status": "additional",
          "div": "<div xmlns=\"http://www.w3.org/1999/xhtml\"><table><thead><tr><th>Group Description</th><th>Code System</th><th>Code</th><th>Code Description</th><th>Date and Time</th><th>Status</th></tr></thead><tbody><tr><td>Antihypertensive combinations</td><td>RxNorm</td><td>858828</td><td><span/>Enalapril Maleate 10 MG / Hydrochlorothiazide 25 MG Oral Tablet</td><td>06-04-2010 10:00:00</td><td>Active</td></tr></tbody></table></div>"
        },
        "mode": "snapshot",
        "entry": [ {
          "reference": "MedicationStatement/b8d47fe4-1296-4ca5-92d0-1fb1b2d7fba8",
          "display": "Enalapril Maleate 10 MG / Hydrochlorothiazide 25 MG Oral Tablet"
        } ]
      }, {
        "title": "Encounters",
        "code": {
          "coding": [ {
            "system": "http://loinc.org",
            "code": "46240-8",
            "display": "History of encounters"
          } ]
        },
        "text": {
          "status": "additional",
          "div": "<div xmlns=\"http://www.w3.org/1999/xhtml\"><table><thead><tr><th>Group Description</th><th>Code System</th><th>Code</th><th>Code Description</th><th>Date and Time</th><th>Status</th></tr></thead><tbody><tr><td>Encounter Outpatient</td><td>CPT</td><td>99213</td><td><span/>Office/outpatient visit, est</td><td>06-02-2010 10:00:00</td><td>Performed</td></tr><tr><td/><td>ICD-9-CM</td><td>V70.0</td><td>Routine general medical examination at a health care facility</td><td/><td/></tr><tr><td>Encounter Outpatient</td><td>CPT</td><td>99213</td><td><span/>Office/outpatient visit, est</td><td>07-08-2010 10:00:00</td><td>Performed</td></tr><tr><td/><td>ICD-9-CM</td><td>V70.0</td><td>Routine general medical examination at a health care facility</td><td/><td/></tr><tr><td>Encounter Non-Acute Inpatient</td><td>CPT</td><td>99324</td><td><span/>Domicil/r-home visit new pat</td><td>08-04-2010 10:00:00</td><td>Performed</td></tr><tr><td>Encounter Inpatient Discharge</td><td>CPT</td><td>99238</td><td><span/>Hospital discharge day</td><td>08-08-2010 10:00:00</td><td>Performed</td></tr><tr><td>Encounter Outpatient</td><td>CPT</td><td>99213</td><td><span/>Office/outpatient visit, est</td><td>09-09-2010 10:00:00</td><td>Performed</td></tr><tr><td/><td>ICD-9-CM</td><td>V70.0</td><td>Routine general medical examination at a health care facility</td><td/><td/></tr></tbody></table></div>"
        },
        "mode": "snapshot",
        "entry": [ {
          "reference": "Encounter/968f7154-7471-4cf5-874d-60f99917ef53",
          "display": "Office/outpatient visit, est"
        }, {
          "reference": "Encounter/24ab6c61-72ce-49b9-8037-7368e8661409",
          "display": "Hospital discharge day"
        }, {
          "reference": "Encounter/3bd150d1-c2db-4ae6-b78e-107082436b50",
          "display": "Office/outpatient visit, est"
        }, {
          "reference": "Encounter/b5216e02-f90b-41d2-9e71-c0d10c5ae034",
          "display": "Domicil/r-home visit new pat"
        }, {
          "reference": "Encounter/7ce26519-d410-4d50-a59c-027b05009c3f",
          "display": "Office/outpatient visit, est"
        } ]
      }, {
        "title": "Allergies,  Adverse Reactions & Alerts",
        "code": {
          "coding": [ {
            "system": "http://loinc.org",
            "code": "48765-2",
            "display": "Allergies, adverse reactions, alerts"
          } ]
        },
        "text": {
          "status": "additional",
          "div": "<div xmlns=\"http://www.w3.org/1999/xhtml\"><table><thead><tr><th>Group Description</th><th>Code System</th><th>Code</th><th>Code Description</th><th>Severity</th><th>Susceptibility</th><th>Date and Time</th><th>Status</th></tr></thead><tbody><tr><td>Allergy to Eggs</td><td>UNII</td><td>291P45F896</td><td><span/>Eggs</td><td><span/>Severe</td><td>Susceptible</td><td>06-02-2010 10:00:00</td><td>Active</td></tr><tr><td/><td>ICD-9-CM</td><td>V15.03</td><td>Allergy to eggs</td><td/><td/><td/><td/></tr><tr><td>Codeine</td><td>NDF-RT</td><td>N0000006691</td><td><span/>Codeine</td><td><span/>Fatal</td><td>Moderately Susceptible</td><td>06-02-2010 10:00:00</td><td>Active</td></tr><tr><td>Neomycin</td><td>RxNorm</td><td>866041</td><td><span/>Neomycin Sulfate 500 MG</td><td><span/>Severe</td><td>Susceptible</td><td>06-02-2010 10:00:00</td><td>Active</td></tr></tbody></table></div>"
        },
        "mode": "snapshot",
        "entry": [ {
          "reference": "AllergyIntolerance/144f8659-238e-4478-995c-61a240ae80a1",
          "display": "Allergy to Eggs + Eggs"
        }, {
          "reference": "AllergyIntolerance/c59558a3-ce80-4a20-8985-7d6316446518",
          "display": "Codeine + Codeine"
        }, {
          "reference": "AllergyIntolerance/61a81272-782e-45ce-bca3-05203cc0e987",
          "display": "Neomycin + Neomycin Sulfate 500 MG"
        } ]
      }, {
        "title": "Problems",
        "code": {
          "coding": [ {
            "system": "http://loinc.org",
            "code": "11450-4",
            "display": "PROBLEM LIST"
          } ]
        },
        "text": {
          "status": "additional",
          "div": "<div xmlns=\"http://www.w3.org/1999/xhtml\"><table><thead><tr><th>Group Description</th><th>Code System</th><th>Code</th><th>Code Description</th><th>Date and Time</th><th>Status</th></tr></thead><tbody><tr><td>Hypertension</td><td>SNOMED-CT</td><td>59621000</td><td><span/>Essential hypertension</td><td>06-02-2010 10:00:00</td><td>Active</td></tr><tr><td/><td>ICD-10-CM</td><td>I10</td><td>Essential (primary) hypertension</td><td/><td/></tr><tr><td/><td>ICD-9-CM</td><td>401.9</td><td>Unspecified essential hypertension</td><td/><td/></tr><tr><td>AJCC Cancer Stage Low Risk Recurrence Prostat</td><td>SNOMED-CT</td><td>261650005</td><td><span/>Tumor stage T1c</td><td>08-04-2010 10:00:00</td><td>Active</td></tr><tr><td>Prostate Cancer</td><td>SNOMED-CT</td><td>399068003</td><td><span/>Malignant tumor of prostate</td><td>08-04-2010 10:00:00</td><td>Active</td></tr><tr><td/><td>ICD-10-CM</td><td>C61</td><td>Malignant neoplasm of prostate</td><td/><td/></tr><tr><td/><td>ICD-9-CM</td><td>185</td><td>Malignant neoplasm of prostate</td><td/><td/></tr></tbody></table></div>"
        },
        "mode": "snapshot",
        "entry": [ {
          "reference": "Condition/e6037c4c-fdf4-4631-9597-41e3c12a57ee",
          "display": "Malignant tumor of prostate"
        } ]
      } ]
    }
  }, {
    "resource": {
      "resourceType": "Patient",
      "id": "2a3e5584-3714-44e7-b0da-01c742272972",
      "extension": [ {
        "url": "http://hl7.org/fhir/StructureDefinition/patient-religion",
        "valueCodeableConcept": {
          "coding": [ {
            "system": "urn:oid:2.16.840.1.113883.5.1076",
            "code": "1059",
            "display": "Zen Buddhism"
          } ]
        }
      }, {
        "url": "http://hl7.org/fhir/us/core/StructureDefinition/us-core-race",
        "extension": [ {
          "url": "text",
          "valueString": "Black or African American"
        }, {
          "url": "ombCategory",
          "valueCoding": {
            "system": "urn:oid:2.16.840.1.113883.6.238",
            "code": "2054-5",
            "display": "Black or African American"
          }
        } ]
      }, {
        "url": "http://hl7.org/fhir/us/core/StructureDefinition/us-core-ethnicity",
        "extension": [ {
          "url": "text",
          "valueString": "Not Hispanic or Latino"
        }, {
          "url": "ombCategory",
          "valueCoding": {
            "system": "urn:oid:2.16.840.1.113883.6.238",
            "code": "2186-5",
            "display": "Not Hispanic or Latino"
          }
        } ]
      }, {
        "url": "http://hl7.org/fhir/StructureDefinition/patient-birthPlace",
        "valueAddress": {
          "city": "Vernon",
          "state": "UT",
          "postalCode": "84080",
          "country": "US"
        }
      } ],
      "identifier": [ {
        "use": "official",
        "system": "urn:oid:2.16.840.1.113883.19.5.99999.2",
        "value": "998991"
      }, {
        "use": "official",
        "system": "urn:oid:2.16.840.1.113883.4.1",
        "value": "111-00-2330"
      } ],
      "name": [ {
        "use": "usual",
        "family": "Bush",
        "given": [ "Brent" ]
      } ],
      "telecom": [ {
        "system": "phone",
        "value": "(949)546-1004",
        "use": "mobile"
      } ],
      "gender": "male",
      "birthDate": "1945-02-07",
      "address": [ {
        "use": "home",
        "line": [ "3936 Peck Court" ],
        "city": "Rancho Santa Margarita",
        "state": "CA",
        "postalCode": "92688",
        "country": "US"
      } ],
      "maritalStatus": {
        "coding": [ {
          "system": "http://terminology.hl7.org/CodeSystem/v3-MaritalStatus",
          "code": "M",
          "display": "Married"
        } ]
      },
      "contact": [ {
        "relationship": [ {
          "coding": [ {
            "system": "http://terminology.hl7.org/CodeSystem/v2-0131",
            "code": "C",
            "display": "Emergency Contact"
          } ]
        } ],
        "name": {
          "family": "Wilcox",
          "given": [ "Anthony" ],
          "prefix": [ "Mr." ]
        },
        "telecom": [ {
          "system": "phone",
          "value": "(916)919-5165",
          "use": "home"
        }, {
          "system": "email",
          "value": "AnthonyKWilcox@cuvox.de",
          "use": "work"
        } ],
        "address": {
          "use": "home",
          "line": [ "2188 Woodland Terrace" ],
          "city": "Rancho Cordova",
          "state": "CA",
          "postalCode": "95742",
          "country": "US"
        }
      } ],
      "communication": [ {
        "language": {
          "coding": [ {
            "system": "urn:ietf:bcp:47",
            "code": "spa"
          } ]
        },
        "preferred": true
      } ],
      "managingOrganization": {
        "reference": "Organization/34a61919-488f-475c-9678-b7f47b984a78",
        "display": "Community Health and Hospitals"
      }
    }
  }, {
    "resource": {
      "resourceType": "Organization",
      "id": "34a61919-488f-475c-9678-b7f47b984a78",
      "identifier": [ {
        "use": "official",
        "value": "2.16.840.1.113883.4.6"
      } ],
      "name": "Community Health and Hospitals",
      "telecom": [ {
        "system": "phone",
        "value": " 555-555-5000",
        "use": "work"
      } ],
      "address": [ {
        "line": [ "1001 Village Avenue" ],
        "city": "Portland",
        "state": "OR",
        "postalCode": "99123",
        "country": "US"
      } ]
    }
  }, {
    "resource": {
      "resourceType": "Practitioner",
      "id": "61ee5fe4-611a-4a9c-8a69-c5376ce688d9",
      "identifier": [ {
        "use": "official",
        "system": "urn:oid:2.16.840.1.113883.4.6",
        "value": "99999999"
      } ],
      "name": [ {
        "family": "Seven",
        "given": [ "Henry" ],
        "suffix": [ "MD" ]
      } ],
      "telecom": [ {
        "system": "phone",
        "value": "555-555-1002",
        "use": "work"
      } ],
      "address": [ {
        "line": [ "1002 Healthcare Drive" ],
        "city": "Portland",
        "state": "OR",
        "postalCode": "99123",
        "country": "US"
      } ]
    }
  }, {
    "resource": {
      "resourceType": "Practitioner",
      "id": "17af596e-940b-4268-b240-0756f2f1c757",
      "identifier": [ {
        "use": "official",
        "system": "http://hl7.org/fhir/sid/us-npi",
        "value": "999999999"
      } ],
      "name": [ {
        "family": "Seven",
        "given": [ "Henry" ]
      } ],
      "telecom": [ {
        "system": "phone",
        "value": "555-555-1002",
        "use": "work"
      } ],
      "address": [ {
        "line": [ "1001 Village Avenue" ],
        "city": "Portland",
        "state": "OR",
        "postalCode": "99123",
        "country": "US"
      } ]
    }
  }, {
    "resource": {
      "resourceType": "Practitioner",
      "id": "bb4558fc-330a-42ec-b37e-f6f1b95c9d71",
      "identifier": [ {
        "use": "official",
        "system": "http://hl7.org/fhir/sid/us-npi",
        "value": "PseudoMD-1"
      } ],
      "name": [ {
        "family": "Seven",
        "given": [ "Henry" ],
        "suffix": [ "MD" ]
      } ],
      "telecom": [ {
        "system": "phone",
        "value": "+1-555-555-5000",
        "use": "home"
      } ],
      "address": [ {
        "line": [ "1001 Village Avenue" ],
        "city": "Portland",
        "state": "OR",
        "postalCode": "99123",
        "country": "US"
      } ]
    }
  }, {
    "resource": {
      "resourceType": "Organization",
      "id": "8bdede07-f979-4572-9be6-fb188b9dbcb1",
      "identifier": [ {
        "use": "official",
        "system": "urn:oid:2.16.840.1.113883.4.6",
        "value": "99999999"
      } ],
      "name": "Community Health and Hospitals",
      "telecom": [ {
        "system": "phone",
        "value": " 555-555-1002",
        "use": "work"
      } ],
      "address": [ {
        "use": "work",
        "line": [ "1002 Healthcare Drive" ],
        "city": "Portland",
        "state": "OR",
        "postalCode": "99123",
        "country": "US"
      } ]
    }
  }, {
    "resource": {
      "resourceType": "DiagnosticReport",
      "id": "b6b5bbec-93c9-4c53-b51b-fceb407df1fa",
      "identifier": [ {
        "use": "official",
        "value": "7d5a02b0-67a4-11db-bd13-0800200c9a66"
      } ],
      "status": "final",
      "category": [ {
        "coding": [ {
          "system": "http://terminology.hl7.org/CodeSystem/v2-0074",
          "code": "LAB",
          "display": "Laboratory"
        } ]
      } ],
      "code": {
        "coding": [ {
          "system": "http://snomed.info/sct",
          "code": "116784002",
          "display": "Pathology"
        } ]
      },
      "subject": {
        "reference": "Patient/2a3e5584-3714-44e7-b0da-01c742272972",
        "display": "Brent Bush"
      },
      "result": [ {
        "reference": "Observation/f1b75667-c8a9-434f-b020-16c0454299b8",
        "display": "Gleason Score Spec Ql"
      } ]
    }
  }, {
    "resource": {
      "resourceType": "Observation",
      "id": "f1b75667-c8a9-434f-b020-16c0454299b8",
      "identifier": [ {
        "use": "official",
        "value": "107c2dc0-67a5-11db-bd13-0800200c9a66"
      } ],
      "status": "final",
      "category": [ {
        "coding": [ {
          "system": "http://terminology.hl7.org/CodeSystem/observation-category",
          "code": "laboratory"
        } ]
      } ],
      "code": {
        "coding": [ {
          "system": "http://loinc.org",
          "code": "35266-6",
          "display": "Gleason Score Spec Ql"
        }, {
          "system": "http://snomed.info/sct",
          "code": "384997002",
          "display": "Total Gleason score"
        } ]
      },
      "subject": {
        "reference": "Patient/2a3e5584-3714-44e7-b0da-01c742272972",
        "display": "Brent Bush"
      },
      "effectivePeriod": {
        "start": "2010-08-04T10:00:00+02:00"
      },
      "valueQuantity": {
        "value": 4,
        "unit": "NA",
        "system": "http://unitsofmeasure.org",
        "code": "NA"
      },
      "interpretation": [ {
        "coding": [ {
          "system": "http://terminology.hl7.org/CodeSystem/v3-ObservationInterpretation",
          "code": "N"
        } ]
      } ],
      "referenceRange": [ {
        "text": "2-10"
      } ]
    }
  }, {
    "resource": {
      "resourceType": "DiagnosticReport",
      "id": "40349d67-ea79-459e-b2b1-2e5cb285b692",
      "identifier": [ {
        "use": "official",
        "value": "7d5a02b0-67a4-11db-bd13-0800200c9a66"
      } ],
      "status": "final",
      "category": [ {
        "coding": [ {
          "system": "http://terminology.hl7.org/CodeSystem/v2-0074",
          "code": "LAB",
          "display": "Laboratory"
        } ]
      } ],
      "code": {
        "coding": [ {
          "system": "http://snomed.info/sct",
          "code": "166312007",
          "display": "Blood Chemistry"
        } ]
      },
      "subject": {
        "reference": "Patient/2a3e5584-3714-44e7-b0da-01c742272972",
        "display": "Brent Bush"
      },
      "result": [ {
        "reference": "Observation/b2ae5242-5ec6-4556-83cd-21b08fd64c3d",
        "display": "PSA SerPl-aCnc"
      } ]
    }
  }, {
    "resource": {
      "resourceType": "Observation",
      "id": "b2ae5242-5ec6-4556-83cd-21b08fd64c3d",
      "identifier": [ {
        "use": "official",
        "value": "107c2dc0-67a5-11db-bd13-0800200c9a66"
      } ],
      "status": "final",
      "category": [ {
        "coding": [ {
          "system": "http://terminology.hl7.org/CodeSystem/observation-category",
          "code": "laboratory"
        } ]
      } ],
      "code": {
        "coding": [ {
          "system": "http://loinc.org",
          "code": "19195-7",
          "display": "PSA SerPl-aCnc"
        }, {
          "system": "http://www.ama-assn.org/go/cpt",
          "code": "84153",
          "display": "Assay of psa, total"
        }, {
          "system": "http://snomed.info/sct",
          "code": "63476009",
          "display": "Prostate specific antigen measurement"
        } ]
      },
      "subject": {
        "reference": "Patient/2a3e5584-3714-44e7-b0da-01c742272972",
        "display": "Brent Bush"
      },
      "effectivePeriod": {
        "start": "2010-08-04T10:00:00+02:00"
      },
      "valueQuantity": {
        "value": 24,
        "unit": "ng/mL",
        "system": "http://unitsofmeasure.org",
        "code": "ng/mL"
      },
      "interpretation": [ {
        "coding": [ {
          "system": "http://terminology.hl7.org/CodeSystem/v3-ObservationInterpretation",
          "code": "N"
        } ]
      } ],
      "referenceRange": [ {
        "text": "<2.5 ng/mL"
      } ]
    }
  }, {
    "resource": {
      "resourceType": "DiagnosticReport",
      "id": "47fdbf9d-9d07-439f-bc76-4520cddc65f8",
      "identifier": [ {
        "use": "official",
        "value": "7d5a02b0-67a4-11db-bd13-0800200c9a66"
      } ],
      "status": "final",
      "category": [ {
        "coding": [ {
          "system": "http://terminology.hl7.org/CodeSystem/v2-0074",
          "code": "LAB",
          "display": "Laboratory"
        } ]
      } ],
      "code": {
        "coding": [ {
          "system": "http://snomed.info/sct",
          "code": "16254007",
          "display": "Lipid Panel"
        } ]
      },
      "subject": {
        "reference": "Patient/2a3e5584-3714-44e7-b0da-01c742272972",
        "display": "Brent Bush"
      },
      "result": [ {
        "reference": "Observation/256a72e4-1a17-495e-8ef5-c466501674c9",
        "display": "HDLc SerPl-sCnc"
      }, {
        "reference": "Observation/6de8b69c-4697-4ee3-9a25-07bf459305db",
        "display": "Trigl SerPl Calc-mCnc"
      }, {
        "reference": "Observation/e22cfaab-dda4-430b-af4b-2e872409a877",
        "display": "Cholest SerPl-mCnc"
      }, {
        "reference": "Observation/38722cd0-5dc0-4bc8-a858-2a4fb0c2d4d5",
        "display": "LDLc SerPl-mCnc"
      } ]
    }
  }, {
    "resource": {
      "resourceType": "Observation",
      "id": "256a72e4-1a17-495e-8ef5-c466501674c9",
      "identifier": [ {
        "use": "official",
        "value": "107c2dc0-67a5-11db-bd13-0800200c9a66"
      } ],
      "status": "final",
      "category": [ {
        "coding": [ {
          "system": "http://terminology.hl7.org/CodeSystem/observation-category",
          "code": "laboratory"
        } ]
      } ],
      "code": {
        "coding": [ {
          "system": "http://loinc.org",
          "code": "14646-4",
          "display": "HDLc SerPl-sCnc"
        }, {
          "system": "http://www.ama-assn.org/go/cpt",
          "code": "83701",
          "display": "Lipoprotein bld, hr fraction"
        }, {
          "system": "http://snomed.info/sct",
          "code": "28036006",
          "display": "High density lipoprotein cholesterol measurement"
        } ]
      },
      "subject": {
        "reference": "Patient/2a3e5584-3714-44e7-b0da-01c742272972",
        "display": "Brent Bush"
      },
      "effectivePeriod": {
        "start": "2010-06-02T10:00:00+02:00"
      },
      "valueQuantity": {
        "value": 58,
        "unit": "mg/dL",
        "system": "http://unitsofmeasure.org",
        "code": "mg/dL"
      },
      "interpretation": [ {
        "coding": [ {
          "system": "http://terminology.hl7.org/CodeSystem/v3-ObservationInterpretation",
          "code": "N"
        } ]
      } ],
      "referenceRange": [ {
        "text": ">=40 mg/dL"
      } ]
    }
  }, {
    "resource": {
      "resourceType": "Observation",
      "id": "6de8b69c-4697-4ee3-9a25-07bf459305db",
      "identifier": [ {
        "use": "official",
        "value": "107c2dc0-67a5-11db-bd13-0800200c9a66"
      } ],
      "status": "final",
      "category": [ {
        "coding": [ {
          "system": "http://terminology.hl7.org/CodeSystem/observation-category",
          "code": "laboratory"
        } ]
      } ],
      "code": {
        "coding": [ {
          "system": "http://loinc.org",
          "code": "12951-0",
          "display": "Trigl SerPl Calc-mCnc"
        }, {
          "system": "http://www.ama-assn.org/go/cpt",
          "code": "84478",
          "display": "Assay of triglycerides"
        }, {
          "system": "http://snomed.info/sct",
          "code": "14740000",
          "display": "Triglycerides measurement"
        } ]
      },
      "subject": {
        "reference": "Patient/2a3e5584-3714-44e7-b0da-01c742272972",
        "display": "Brent Bush"
      },
      "effectivePeriod": {
        "start": "2010-06-02T10:00:00+02:00"
      },
      "valueQuantity": {
        "value": 130,
        "unit": "mg/dL",
        "system": "http://unitsofmeasure.org",
        "code": "mg/dL"
      },
      "interpretation": [ {
        "coding": [ {
          "system": "http://terminology.hl7.org/CodeSystem/v3-ObservationInterpretation",
          "code": "N"
        } ]
      } ],
      "referenceRange": [ {
        "text": "10-39 years: 55-110 mg/dL | 40-59 years: 70-150 mg/dL | >60 years: 80-150 mg/dL | Therapeutic Target: <100 mg/dL "
      } ]
    }
  }, {
    "resource": {
      "resourceType": "Observation",
      "id": "e22cfaab-dda4-430b-af4b-2e872409a877",
      "identifier": [ {
        "use": "official",
        "value": "107c2dc0-67a5-11db-bd13-0800200c9a66"
      } ],
      "status": "final",
      "category": [ {
        "coding": [ {
          "system": "http://terminology.hl7.org/CodeSystem/observation-category",
          "code": "laboratory"
        } ]
      } ],
      "code": {
        "coding": [ {
          "system": "http://loinc.org",
          "code": "2093-3",
          "display": "Cholest SerPl-mCnc"
        }, {
          "system": "http://www.ama-assn.org/go/cpt",
          "code": "82465",
          "display": "Assay, bld/serum cholesterol"
        }, {
          "system": "http://snomed.info/sct",
          "code": "121868005",
          "display": "Total cholesterol measurement"
        } ]
      },
      "subject": {
        "reference": "Patient/2a3e5584-3714-44e7-b0da-01c742272972",
        "display": "Brent Bush"
      },
      "effectivePeriod": {
        "start": "2010-06-02T10:00:00+02:00"
      },
      "valueQuantity": {
        "value": 190,
        "unit": "mg/dL",
        "system": "http://unitsofmeasure.org",
        "code": "mg/dL"
      },
      "interpretation": [ {
        "coding": [ {
          "system": "http://terminology.hl7.org/CodeSystem/v3-ObservationInterpretation",
          "code": "N"
        } ]
      } ],
      "referenceRange": [ {
        "text": "125-200 mg/dL"
      } ]
    }
  }, {
    "resource": {
      "resourceType": "Observation",
      "id": "38722cd0-5dc0-4bc8-a858-2a4fb0c2d4d5",
      "identifier": [ {
        "use": "official",
        "value": "107c2dc0-67a5-11db-bd13-0800200c9a66"
      } ],
      "status": "final",
      "category": [ {
        "coding": [ {
          "system": "http://terminology.hl7.org/CodeSystem/observation-category",
          "code": "laboratory"
        } ]
      } ],
      "code": {
        "coding": [ {
          "system": "http://loinc.org",
          "code": "2089-1",
          "display": "LDLc SerPl-mCnc"
        }, {
          "system": "http://www.ama-assn.org/go/cpt",
          "code": "83721",
          "display": "Assay of blood lipoprotein"
        }, {
          "system": "http://snomed.info/sct",
          "code": "113079009",
          "display": "Low density lipoprotein cholesterol measurement"
        } ]
      },
      "subject": {
        "reference": "Patient/2a3e5584-3714-44e7-b0da-01c742272972",
        "display": "Brent Bush"
      },
      "effectivePeriod": {
        "start": "2010-06-02T10:00:00+02:00"
      },
      "valueQuantity": {
        "value": 106,
        "unit": "mg/dL",
        "system": "http://unitsofmeasure.org",
        "code": "mg/dL"
      },
      "interpretation": [ {
        "coding": [ {
          "system": "http://terminology.hl7.org/CodeSystem/v3-ObservationInterpretation",
          "code": "N"
        } ]
      } ],
      "referenceRange": [ {
        "text": "<130 mg/dL (calc)"
      } ]
    }
  }, {
    "resource": {
      "resourceType": "Observation",
      "id": "e5d43543-2b4a-4b53-a4ff-fc6fae1daacd",
      "identifier": [ {
        "use": "official",
        "value": "c6f88321-67ad-11db-bd13-0800200c9a66"
      } ],
      "status": "final",
      "category": [ {
        "coding": [ {
          "system": "http://terminology.hl7.org/CodeSystem/observation-category",
          "code": "vital-signs",
          "display": "Vital Signs"
        } ]
      } ],
      "code": {
        "coding": [ {
          "system": "http://loinc.org",
          "code": "8462-4",
          "display": "BP Diastolic"
        } ]
      },
      "subject": {
        "reference": "Patient/2a3e5584-3714-44e7-b0da-01c742272972",
        "display": "Brent Bush"
      },
      "effectivePeriod": {
        "start": "2010-09-09T10:00:00+02:00"
      },
      "valueQuantity": {
        "value": 88,
        "unit": "mm[Hg]",
        "system": "http://unitsofmeasure.org",
        "code": "mm[Hg]"
      }
    }
  }, {
    "resource": {
      "resourceType": "Observation",
      "id": "3c52eb2b-d5a3-4d05-8f8c-98b34d4056a0",
      "identifier": [ {
        "use": "official",
        "value": "c6f88321-67ad-11db-bd13-0800200c9a66"
      } ],
      "status": "final",
      "category": [ {
        "coding": [ {
          "system": "http://terminology.hl7.org/CodeSystem/observation-category",
          "code": "vital-signs",
          "display": "Vital Signs"
        } ]
      } ],
      "code": {
        "coding": [ {
          "system": "http://loinc.org",
          "code": "8867-4",
          "display": "Heart Rate"
        } ]
      },
      "subject": {
        "reference": "Patient/2a3e5584-3714-44e7-b0da-01c742272972",
        "display": "Brent Bush"
      },
      "effectivePeriod": {
        "start": "2010-09-09T10:00:00+02:00"
      },
      "valueQuantity": {
        "value": 88,
        "unit": "/min",
        "system": "http://unitsofmeasure.org",
        "code": "/min"
      }
    }
  }, {
    "resource": {
      "resourceType": "Observation",
      "id": "5bded6ba-e3c0-4137-92dc-c34d27f6f798",
      "identifier": [ {
        "use": "official",
        "value": "c6f88321-67ad-11db-bd13-0800200c9a66"
      } ],
      "status": "final",
      "category": [ {
        "coding": [ {
          "system": "http://terminology.hl7.org/CodeSystem/observation-category",
          "code": "vital-signs",
          "display": "Vital Signs"
        } ]
      } ],
      "code": {
        "coding": [ {
          "system": "http://loinc.org",
          "code": "39156-5",
          "display": "BMI"
        } ]
      },
      "subject": {
        "reference": "Patient/2a3e5584-3714-44e7-b0da-01c742272972",
        "display": "Brent Bush"
      },
      "effectivePeriod": {
        "start": "2010-09-09T10:00:00+02:00"
      },
      "valueQuantity": {
        "value": 28.2,
        "unit": "kg/m2",
        "system": "http://unitsofmeasure.org",
        "code": "kg/m2"
      }
    }
  }, {
    "resource": {
      "resourceType": "Observation",
      "id": "86b58b11-ac21-4fdf-b3f5-92aae0d77f9d",
      "identifier": [ {
        "use": "official",
        "value": "c6f88321-67ad-11db-bd13-0800200c9a66"
      } ],
      "status": "final",
      "category": [ {
        "coding": [ {
          "system": "http://terminology.hl7.org/CodeSystem/observation-category",
          "code": "vital-signs",
          "display": "Vital Signs"
        } ]
      } ],
      "code": {
        "coding": [ {
          "system": "http://loinc.org",
          "code": "8480-6",
          "display": "BP Systolic"
        } ]
      },
      "subject": {
        "reference": "Patient/2a3e5584-3714-44e7-b0da-01c742272972",
        "display": "Brent Bush"
      },
      "effectivePeriod": {
        "start": "2010-09-09T10:00:00+02:00"
      },
      "valueQuantity": {
        "value": 138,
        "unit": "mm[Hg]",
        "system": "http://unitsofmeasure.org",
        "code": "mm[Hg]"
      }
    }
  }, {
    "resource": {
      "resourceType": "Observation",
      "id": "be91ecd6-ec3b-4f3f-bed5-8c59cd79a1dd",
      "identifier": [ {
        "use": "official",
        "value": "c6f88321-67ad-11db-bd13-0800200c9a66"
      } ],
      "status": "final",
      "category": [ {
        "coding": [ {
          "system": "http://terminology.hl7.org/CodeSystem/observation-category",
          "code": "vital-signs",
          "display": "Vital Signs"
        } ]
      } ],
      "code": {
        "coding": [ {
          "system": "http://loinc.org",
          "code": "39156-5",
          "display": "BMI"
        } ]
      },
      "subject": {
        "reference": "Patient/2a3e5584-3714-44e7-b0da-01c742272972",
        "display": "Brent Bush"
      },
      "effectivePeriod": {
        "start": "2010-06-02T10:00:00+02:00"
      },
      "valueQuantity": {
        "value": 29.3,
        "unit": "kg/m2",
        "system": "http://unitsofmeasure.org",
        "code": "kg/m2"
      }
    }
  }, {
    "resource": {
      "resourceType": "Observation",
      "id": "3510dc8d-61e8-46af-8d98-fb9ca639a4eb",
      "identifier": [ {
        "use": "official",
        "value": "c6f88321-67ad-11db-bd13-0800200c9a66"
      } ],
      "status": "final",
      "category": [ {
        "coding": [ {
          "system": "http://terminology.hl7.org/CodeSystem/observation-category",
          "code": "vital-signs",
          "display": "Vital Signs"
        } ]
      } ],
      "code": {
        "coding": [ {
          "system": "http://loinc.org",
          "code": "8462-4",
          "display": "BP Diastolic"
        } ]
      },
      "subject": {
        "reference": "Patient/2a3e5584-3714-44e7-b0da-01c742272972",
        "display": "Brent Bush"
      },
      "effectivePeriod": {
        "start": "2010-06-02T10:00:00+02:00"
      },
      "valueQuantity": {
        "value": 86,
        "unit": "mm[Hg]",
        "system": "http://unitsofmeasure.org",
        "code": "mm[Hg]"
      }
    }
  }, {
    "resource": {
      "resourceType": "Observation",
      "id": "4e5fe372-8c43-4591-bd30-6a60ea9633c0",
      "identifier": [ {
        "use": "official",
        "value": "c6f88321-67ad-11db-bd13-0800200c9a66"
      } ],
      "status": "final",
      "category": [ {
        "coding": [ {
          "system": "http://terminology.hl7.org/CodeSystem/observation-category",
          "code": "vital-signs",
          "display": "Vital Signs"
        } ]
      } ],
      "code": {
        "coding": [ {
          "system": "http://loinc.org",
          "code": "8867-4",
          "display": "Heart Rate"
        } ]
      },
      "subject": {
        "reference": "Patient/2a3e5584-3714-44e7-b0da-01c742272972",
        "display": "Brent Bush"
      },
      "effectivePeriod": {
        "start": "2010-06-02T10:00:00+02:00"
      },
      "valueQuantity": {
        "value": 88,
        "unit": "/min",
        "system": "http://unitsofmeasure.org",
        "code": "/min"
      }
    }
  }, {
    "resource": {
      "resourceType": "Observation",
      "id": "1563fddd-caa1-4224-b79e-bbd1c588d0b4",
      "identifier": [ {
        "use": "official",
        "value": "c6f88321-67ad-11db-bd13-0800200c9a66"
      } ],
      "status": "final",
      "category": [ {
        "coding": [ {
          "system": "http://terminology.hl7.org/CodeSystem/observation-category",
          "code": "vital-signs",
          "display": "Vital Signs"
        } ]
      } ],
      "code": {
        "coding": [ {
          "system": "http://loinc.org",
          "code": "8480-6",
          "display": "BP Systolic"
        } ]
      },
      "subject": {
        "reference": "Patient/2a3e5584-3714-44e7-b0da-01c742272972",
        "display": "Brent Bush"
      },
      "effectivePeriod": {
        "start": "2010-06-02T10:00:00+02:00"
      },
      "valueQuantity": {
        "value": 138,
        "unit": "mm[Hg]",
        "system": "http://unitsofmeasure.org",
        "code": "mm[Hg]"
      }
    }
  }, {
    "resource": {
      "resourceType": "Observation",
      "id": "b191e7f6-4449-40b1-b1a3-5ffddd24ff43",
      "identifier": [ {
        "use": "official",
        "value": "c6f88321-67ad-11db-bd13-0800200c9a66"
      } ],
      "status": "final",
      "category": [ {
        "coding": [ {
          "system": "http://terminology.hl7.org/CodeSystem/observation-category",
          "code": "vital-signs",
          "display": "Vital Signs"
        } ]
      } ],
      "code": {
        "coding": [ {
          "system": "http://loinc.org",
          "code": "8867-4",
          "display": "Heart Rate"
        } ]
      },
      "subject": {
        "reference": "Patient/2a3e5584-3714-44e7-b0da-01c742272972",
        "display": "Brent Bush"
      },
      "effectivePeriod": {
        "start": "2010-07-08T10:00:00+02:00"
      },
      "valueQuantity": {
        "value": 90,
        "unit": "/min",
        "system": "http://unitsofmeasure.org",
        "code": "/min"
      }
    }
  }, {
    "resource": {
      "resourceType": "Observation",
      "id": "5173c1c2-ac88-4394-ad0b-7cc8ebafa377",
      "identifier": [ {
        "use": "official",
        "value": "c6f88321-67ad-11db-bd13-0800200c9a66"
      } ],
      "status": "final",
      "category": [ {
        "coding": [ {
          "system": "http://terminology.hl7.org/CodeSystem/observation-category",
          "code": "vital-signs",
          "display": "Vital Signs"
        } ]
      } ],
      "code": {
        "coding": [ {
          "system": "http://loinc.org",
          "code": "8462-4",
          "display": "BP Diastolic"
        } ]
      },
      "subject": {
        "reference": "Patient/2a3e5584-3714-44e7-b0da-01c742272972",
        "display": "Brent Bush"
      },
      "effectivePeriod": {
        "start": "2010-07-08T10:00:00+02:00"
      },
      "valueQuantity": {
        "value": 88,
        "unit": "mm[Hg]",
        "system": "http://unitsofmeasure.org",
        "code": "mm[Hg]"
      }
    }
  }, {
    "resource": {
      "resourceType": "Observation",
      "id": "de237ad0-5bea-40ab-9702-a08072afb956",
      "identifier": [ {
        "use": "official",
        "value": "c6f88321-67ad-11db-bd13-0800200c9a66"
      } ],
      "status": "final",
      "category": [ {
        "coding": [ {
          "system": "http://terminology.hl7.org/CodeSystem/observation-category",
          "code": "vital-signs",
          "display": "Vital Signs"
        } ]
      } ],
      "code": {
        "coding": [ {
          "system": "http://loinc.org",
          "code": "8480-6",
          "display": "BP Systolic"
        } ]
      },
      "subject": {
        "reference": "Patient/2a3e5584-3714-44e7-b0da-01c742272972",
        "display": "Brent Bush"
      },
      "effectivePeriod": {
        "start": "2010-07-08T10:00:00+02:00"
      },
      "valueQuantity": {
        "value": 136,
        "unit": "mm[Hg]",
        "system": "http://unitsofmeasure.org",
        "code": "mm[Hg]"
      }
    }
  }, {
    "resource": {
      "resourceType": "Observation",
      "id": "bae8a527-01ca-46ea-9cab-c9a447755366",
      "identifier": [ {
        "use": "official",
        "system": "urn:oid:2.16.840.1.113883.19",
        "value": "123456789"
      } ],
      "status": "final",
      "code": {
        "coding": [ {
          "system": "urn:oid:2.16.840.1.113883.5.4",
          "code": "ASSERTION"
        } ]
      },
      "subject": {
        "reference": "Patient/2a3e5584-3714-44e7-b0da-01c742272972",
        "display": "Brent Bush"
      },
      "effectivePeriod": {
        "start": "2010-06-02T10:00:00+02:00"
      },
      "valueCodeableConcept": {
        "coding": [ {
          "system": "http://snomed.info/sct",
          "code": "266919005",
          "display": "Never smoker (Never Smoked)"
        }, {
          "system": "http://snomed.info/sct",
          "code": "449868002",
          "display": "Current every day smoker"
        } ]
      }
    }
  }, {
    "resource": {
      "resourceType": "Procedure",
      "id": "40441638-2d81-4db9-8f22-69ca364121c4",
      "identifier": [ {
        "use": "official",
        "value": "e401f340-7be2-11db-9fe1-0800200c9a66"
      } ],
      "status": "completed",
      "code": {
        "coding": [ {
          "system": "http://www.ama-assn.org/go/cpt",
          "code": "55810",
          "display": "Extensive prostate surgery"
        }, {
          "system": "http://snomed.info/sct",
          "code": "176259004",
          "display": "Radical prostatectomy - unspecified excision of pelvic nodes"
        } ]
      },
      "subject": {
        "reference": "Patient/2a3e5584-3714-44e7-b0da-01c742272972",
        "display": "Brent Bush"
      },
      "performedPeriod": {
        "start": "2010-08-04T10:00:00+02:00"
      }
    }
  }, {
    "resource": {
      "resourceType": "MedicationStatement",
      "id": "b8d47fe4-1296-4ca5-92d0-1fb1b2d7fba8",
      "extension": [ {
        "url": "http://hl7.org/fhir/3.0/StructureDefinition/extension-MedicationStatement.status",
        "valueCode": "UNKNOWN"
      } ],
      "identifier": [ {
        "use": "official",
        "value": "cdbd33f0-6cde-11db-9fe1-0800200c9a66"
      } ],
      "status": "completed",
      "medicationReference": {
        "reference": "Medication/a4448fb2-084b-438e-8f55-3b272feba4aa",
        "display": "Enalapril Maleate 10 MG / Hydrochlorothiazide 25 MG Oral Tablet"
      },
      "subject": {
        "reference": "Patient/2a3e5584-3714-44e7-b0da-01c742272972",
        "display": "Brent Bush"
      },
      "effectivePeriod": {
        "start": "2010-06-04T10:00:00+02:00"
      }
    }
  }, {
    "resource": {
      "resourceType": "Medication",
      "id": "a4448fb2-084b-438e-8f55-3b272feba4aa",
      "code": {
        "coding": [ {
          "system": "http://www.nlm.nih.gov/research/umls/rxnorm",
          "code": "858828",
          "display": "Enalapril Maleate 10 MG / Hydrochlorothiazide 25 MG Oral Tablet"
        } ]
      }
    }
  }, {
    "resource": {
      "resourceType": "Encounter",
      "id": "968f7154-7471-4cf5-874d-60f99917ef53",
      "identifier": [ {
        "use": "official",
        "value": "2a620155-9d11-439e-92b3-5d9815ff4de8"
      } ],
      "status": "finished",
      "type": [ {
        "coding": [ {
          "system": "http://www.ama-assn.org/go/cpt",
          "code": "99213",
          "display": "Office/outpatient visit, est"
        }, {
          "system": "urn:oid:2.16.840.1.113883.6.103",
          "code": "V70.0",
          "display": "Routine general medical examination at a health care facility"
        } ]
      } ],
      "subject": {
        "reference": "Patient/2a3e5584-3714-44e7-b0da-01c742272972",
        "display": "Brent Bush"
      },
      "period": {
        "start": "2010-06-02T10:00:00+02:00"
      },
      "reasonCode": [ {
        "coding": [ {
          "system": "http://snomed.info/sct",
          "code": "59621000",
          "display": "Hypertension"
        } ]
      } ],
      "reasonReference": [ {
        "reference": "Condition/2ab25269-551a-4dfe-91ab-8a9edec63d86",
        "display": "Hypertension"
      } ]
    }
  }, {
    "resource": {
      "resourceType": "Condition",
      "id": "2ab25269-551a-4dfe-91ab-8a9edec63d86",
      "identifier": [ {
        "use": "official",
        "system": "urn:uuid:db734647-fc99-424c-a864-7e3cda82e703",
        "value": "45665"
      } ],
      "clinicalStatus": {
        "coding": [ {
          "system": "http://terminology.hl7.org/CodeSystem/condition-clinical",
          "code": "active",
          "display": "Active"
        } ]
      },
      "category": [ {
        "coding": [ {
          "system": "http://hl7.org/fhir/condition-category",
          "code": "encounter-diagnosis",
          "display": "Encounter Diagnosis"
        } ]
      } ],
      "code": {
        "coding": [ {
          "system": "http://snomed.info/sct",
          "code": "59621000",
          "display": "Hypertension"
        }, {
          "system": "urn:oid:2.16.840.1.113883.6.90",
          "code": "I10",
          "display": "Essential (primary) hypertension"
        }, {
          "system": "urn:oid:2.16.840.1.113883.6.103",
          "code": "401.9",
          "display": "Unspecified essential hypertension"
        } ]
      },
      "subject": {
        "reference": "Patient/2a3e5584-3714-44e7-b0da-01c742272972",
        "display": "Brent Bush"
      },
      "onsetDateTime": "2010-06-02T10:00:00+02:00"
    }
  }, {
    "resource": {
      "resourceType": "Encounter",
      "id": "24ab6c61-72ce-49b9-8037-7368e8661409",
      "identifier": [ {
        "use": "official",
        "value": "2a620155-9d11-439e-92b3-5d9815ff4de8"
      } ],
      "status": "finished",
      "type": [ {
        "coding": [ {
          "system": "http://www.ama-assn.org/go/cpt",
          "code": "99238",
          "display": "Hospital discharge day"
        } ]
      } ],
      "subject": {
        "reference": "Patient/2a3e5584-3714-44e7-b0da-01c742272972",
        "display": "Brent Bush"
      },
      "period": {
        "start": "2010-08-08T10:00:00+02:00"
      }
    }
  }, {
    "resource": {
      "resourceType": "Encounter",
      "id": "3bd150d1-c2db-4ae6-b78e-107082436b50",
      "identifier": [ {
        "use": "official",
        "value": "2a620155-9d11-439e-92b3-5d9815ff4de8"
      } ],
      "status": "finished",
      "type": [ {
        "coding": [ {
          "system": "http://www.ama-assn.org/go/cpt",
          "code": "99213",
          "display": "Office/outpatient visit, est"
        }, {
          "system": "urn:oid:2.16.840.1.113883.6.103",
          "code": "V70.0",
          "display": "Routine general medical examination at a health care facility"
        } ]
      } ],
      "subject": {
        "reference": "Patient/2a3e5584-3714-44e7-b0da-01c742272972",
        "display": "Brent Bush"
      },
      "period": {
        "start": "2010-09-09T10:00:00+02:00"
      }
    }
  }, {
    "resource": {
      "resourceType": "Encounter",
      "id": "b5216e02-f90b-41d2-9e71-c0d10c5ae034",
      "identifier": [ {
        "use": "official",
        "value": "2a620155-9d11-439e-92b3-5d9815ff4de8"
      } ],
      "status": "finished",
      "type": [ {
        "coding": [ {
          "system": "http://www.ama-assn.org/go/cpt",
          "code": "99324",
          "display": "Domicil/r-home visit new pat"
        } ]
      } ],
      "subject": {
        "reference": "Patient/2a3e5584-3714-44e7-b0da-01c742272972",
        "display": "Brent Bush"
      },
      "period": {
        "start": "2010-08-04T10:00:00+02:00"
      },
      "reasonCode": [ {
        "coding": [ {
          "system": "http://snomed.info/sct",
          "code": "261650005",
          "display": "AJCC Cancer Stage Low Risk Recurrence Prostat"
        } ]
      }, {
        "coding": [ {
          "system": "http://snomed.info/sct",
          "code": "399068003",
          "display": "Prostate Cancer"
        } ]
      } ],
      "reasonReference": [ {
        "reference": "Condition/2ab25269-551a-4dfe-91ab-8a9edec63d86",
        "display": "Hypertension"
      }, {
        "reference": "Condition/2ab25269-551a-4dfe-91ab-8a9edec63d86",
        "display": "Hypertension"
      } ]
    }
  }, {
    "resource": {
      "resourceType": "Encounter",
      "id": "7ce26519-d410-4d50-a59c-027b05009c3f",
      "identifier": [ {
        "use": "official",
        "value": "2a620155-9d11-439e-92b3-5d9815ff4de8"
      } ],
      "status": "finished",
      "type": [ {
        "coding": [ {
          "system": "http://www.ama-assn.org/go/cpt",
          "code": "99213",
          "display": "Office/outpatient visit, est"
        }, {
          "system": "urn:oid:2.16.840.1.113883.6.103",
          "code": "V70.0",
          "display": "Routine general medical examination at a health care facility"
        } ]
      } ],
      "subject": {
        "reference": "Patient/2a3e5584-3714-44e7-b0da-01c742272972",
        "display": "Brent Bush"
      },
      "period": {
        "start": "2010-07-08T10:00:00+02:00"
      }
    }
  }, {
    "resource": {
      "resourceType": "AllergyIntolerance",
      "id": "144f8659-238e-4478-995c-61a240ae80a1",
      "identifier": [ {
        "use": "official",
        "value": "36e3e930-7b14-11db-9fe1-0800200c9a66"
      } ],
      "clinicalStatus": {
        "coding": [ {
          "system": "http://terminology.hl7.org/CodeSystem/allergyintolerance-clinical",
          "code": "active",
          "display": "Active"
        } ]
      },
      "verificationStatus": {
        "coding": [ {
          "system": "http://terminology.hl7.org/CodeSystem/allergyintolerance-verification",
          "code": "confirmed",
          "display": "Confirmed"
        } ]
      },
      "type": "allergy",
      "category": [ "food" ],
      "code": {
        "coding": [ {
          "system": "http://fdasis.nlm.nih.gov",
          "code": "291P45F896",
          "display": "Eggs"
        }, {
          "system": "urn:oid:2.16.840.1.113883.6.103",
          "code": "V15.03",
          "display": "Allergy to eggs"
        } ],
        "text": "Allergy to Eggs + Eggs"
      },
      "patient": {
        "reference": "Patient/2a3e5584-3714-44e7-b0da-01c742272972",
        "display": "Brent Bush"
      },
      "recordedDate": "2010-06-02T10:00:00+02:00"
    }
  }, {
    "resource": {
      "resourceType": "AllergyIntolerance",
      "id": "c59558a3-ce80-4a20-8985-7d6316446518",
      "identifier": [ {
        "use": "official",
        "value": "36e3e930-7b14-11db-9fe1-0800200c9a66"
      } ],
      "clinicalStatus": {
        "coding": [ {
          "system": "http://terminology.hl7.org/CodeSystem/allergyintolerance-clinical",
          "code": "active",
          "display": "Active"
        } ]
      },
      "verificationStatus": {
        "coding": [ {
          "system": "http://terminology.hl7.org/CodeSystem/allergyintolerance-verification",
          "code": "confirmed",
          "display": "Confirmed"
        } ]
      },
      "type": "allergy",
      "category": [ "medication" ],
      "code": {
        "coding": [ {
          "system": "urn:oid:2.16.840.1.113883.3.26.1.5",
          "code": "N0000006691",
          "display": "Codeine"
        } ],
        "text": "Codeine + Codeine"
      },
      "patient": {
        "reference": "Patient/2a3e5584-3714-44e7-b0da-01c742272972",
        "display": "Brent Bush"
      },
      "recordedDate": "2010-06-02T10:00:00+02:00"
    }
  }, {
    "resource": {
      "resourceType": "AllergyIntolerance",
      "id": "61a81272-782e-45ce-bca3-05203cc0e987",
      "identifier": [ {
        "use": "official",
        "value": "36e3e930-7b14-11db-9fe1-0800200c9a66"
      } ],
      "clinicalStatus": {
        "coding": [ {
          "system": "http://terminology.hl7.org/CodeSystem/allergyintolerance-clinical",
          "code": "active",
          "display": "Active"
        } ]
      },
      "verificationStatus": {
        "coding": [ {
          "system": "http://terminology.hl7.org/CodeSystem/allergyintolerance-verification",
          "code": "confirmed",
          "display": "Confirmed"
        } ]
      },
      "type": "allergy",
      "category": [ "medication" ],
      "code": {
        "coding": [ {
          "system": "http://www.nlm.nih.gov/research/umls/rxnorm",
          "code": "866041",
          "display": "Neomycin Sulfate 500 MG"
        } ],
        "text": "Neomycin + Neomycin Sulfate 500 MG"
      },
      "patient": {
        "reference": "Patient/2a3e5584-3714-44e7-b0da-01c742272972",
        "display": "Brent Bush"
      },
      "recordedDate": "2010-06-02T10:00:00+02:00"
    }
  }, {
    "resource": {
      "resourceType": "Condition",
      "id": "e6037c4c-fdf4-4631-9597-41e3c12a57ee",
      "identifier": [ {
        "use": "official",
        "value": "9d3d416d-45ab-4da1-912f-4583e0632000"
      } ],
      "clinicalStatus": {
        "coding": [ {
          "system": "http://terminology.hl7.org/CodeSystem/condition-clinical",
          "code": "active",
          "display": "Active"
        } ]
      },
      "verificationStatus": {
        "coding": [ {
          "system": "http://terminology.hl7.org/CodeSystem/condition-ver-status",
          "code": "confirmed",
          "display": "Confirmed"
        } ]
      },
      "category": [ {
        "coding": [ {
          "system": "http://terminology.hl7.org/CodeSystem/condition-category",
          "code": "problem-list-item",
          "display": "Problem List Item"
        } ]
      } ],
      "code": {
        "coding": [ {
          "system": "http://snomed.info/sct",
          "code": "399068003",
          "display": "Malignant tumor of prostate"
        }, {
          "system": "urn:oid:2.16.840.1.113883.6.90",
          "code": "C61",
          "display": "Malignant neoplasm of prostate"
        }, {
          "system": "urn:oid:2.16.840.1.113883.6.103",
          "code": "185",
          "display": "Malignant neoplasm of prostate"
        } ]
      },
      "subject": {
        "reference": "Patient/2a3e5584-3714-44e7-b0da-01c742272972",
        "display": "Brent Bush"
      },
      "onsetDateTime": "2010-08-04T10:00:00+02:00"
    }
  } ]
}