{
  "resourceType": "Bundle",
  "entry": [ {
    "resource": {
      "resourceType": "Composition",
      "id": "39e54bd0-42b7-4b74-bd0a-c95f9961583b",
      "identifier": {
        "use": "official",
        "value": "db734647-fc99-424c-a864-7e3cda82e703"
      },
      "status": "preliminary",
      "type": {
        "coding": [ {
          "system": "http://loinc.org",
          "code": "34133-9",
          "display": "Summarization of Episode Note"
        } ]
      },
      "category": [ {
        "coding": [ {
          "system": "http://hl7.org/fhir/ValueSet/doc-classcodes",
          "code": "LP173421-7",
          "display": "Note"
        } ]
      } ],
      "subject": {
        "reference": "Patient/aacff95a-b83e-4cbf-a3ba-fe8f4796f7bb",
        "display": "Erin Ortega"
      },
      "date": "2014-04-16T11:54:45+02:00",
      "author": [ {
        "reference": "Practitioner/1b36953c-8348-4dbd-b3ac-bc1c0e8566eb",
        "display": "Henry Seven MD"
      } ],
      "title": "Community Health and Hospitals: Health Summary",
      "confidentiality": "N",
      "attester": [ {
        "mode": "legal",
        "time": "2013-04-18T09:00:00+05:00",
        "party": {
          "reference": "Practitioner/bef9abcd-aec4-461e-95eb-0571b6b4a4cd",
          "display": "Henry Seven"
        }
      }, {
        "mode": "professional",
        "time": "2014-04-16T11:54:45+02:00",
        "party": {
          "reference": "Practitioner/bef9abcd-aec4-461e-95eb-0571b6b4a4cd",
          "display": "Henry Seven"
        }
      } ],
      "custodian": {
        "reference": "Organization/f9c6d781-d91b-4899-8f86-39f65d76f1ad",
        "display": "Community Health and Hospitals"
      },
      "event": [ {
        "period": {
          "start": "2009-12-18T10:00:00+01:00",
          "end": "2011-02-16T10:00:00+01:00"
        },
        "detail": [ {
          "reference": "Practitioner/658f873a-31e5-4425-b4c4-f60e2eae242d",
          "display": "Henry Seven MD"
        } ]
      } ],
      "section": [ {
        "title": "Medications",
        "code": {
          "coding": [ {
            "system": "http://loinc.org",
            "code": "10160-0",
            "display": "History of Medication Use"
          } ]
        },
        "text": {
          "status": "additional",
          "div": "<div xmlns=\"http://www.w3.org/1999/xhtml\"><table><thead><tr><th>Group Description</th><th>Code System</th><th>Code</th><th>Code Description</th><th>Date and Time</th><th>Status</th></tr></thead><tbody><tr><td>Antihypertensive combinations</td><td>RxNorm</td><td>858828</td><td><span/>Enalapril Maleate 10 MG / Hydrochlorothiazide 25 MG Oral Tablet</td><td>12-18-2009 10:00:00</td><td>Active</td></tr><tr><td>Beta Blocker Therapy</td><td>RxNorm</td><td>866924</td><td><span/>Metoprolol Tartrate 25 MG Oral Tablet</td><td>12-18-2009 10:00:00</td><td>Active</td></tr><tr><td>Insulin</td><td>RxNorm</td><td>847207</td><td><span/>3 ML Insulin Lispro 100 UNT/ML Prefilled Syringe</td><td>12-18-2009 10:00:00</td><td>Active</td></tr><tr><td>Oral anti-platelet therapy</td><td>RxNorm</td><td>243670</td><td><span/>Aspirin 81 MG Oral Tablet</td><td>12-18-2009 10:00:00</td><td>Active</td></tr><tr><td>Statins</td><td>RxNorm</td><td>617314</td><td><span/>atorvastatin 10 MG Oral Tablet [Lipitor]</td><td>12-18-2009 10:00:00</td><td>Active</td></tr><tr><td>Antihypertensive combinations</td><td>RxNorm</td><td>858828</td><td><span/>Enalapril Maleate 10 MG / Hydrochlorothiazide 25 MG Oral Tablet</td><td>04-18-2010 10:00:00</td><td>Active</td></tr><tr><td>Beta Blocker Therapy</td><td>RxNorm</td><td>866924</td><td><span/>Metoprolol Tartrate 25 MG Oral Tablet</td><td>04-18-2010 10:00:00</td><td>Active</td></tr><tr><td>Oral anti-platelet therapy</td><td>RxNorm</td><td>243670</td><td><span/>Aspirin 81 MG Oral Tablet</td><td>04-18-2010 10:00:00</td><td>Active</td></tr><tr><td>Statins</td><td>RxNorm</td><td>617314</td><td><span/>atorvastatin 10 MG Oral Tablet [Lipitor]</td><td>04-18-2010 10:00:00</td><td>Active</td></tr></tbody></table></div>"
        },
        "mode": "snapshot",
        "entry": [ {
          "reference": "MedicationStatement/bdbad8f8-555a-44d1-83b2-0e9873487b65",
          "display": "Enalapril Maleate 10 MG / Hydrochlorothiazide 25 MG Oral Tablet"
        }, {
          "reference": "MedicationStatement/c153c4fe-c272-4c2e-9dce-d6428538fee9",
          "display": "Metoprolol Tartrate 25 MG Oral Tablet"
        }, {
          "reference": "MedicationStatement/90cd3e98-36fb-46a5-a069-6ea66c24cda3",
          "display": "3 ML Insulin Lispro 100 UNT/ML Prefilled Syringe"
        }, {
          "reference": "MedicationStatement/3dba312e-a87c-4131-8ce0-9f4f274b6eb5",
          "display": "Aspirin 81 MG Oral Tablet"
        }, {
          "reference": "MedicationStatement/153e847f-d1ba-447d-b76e-c337fed558de",
          "display": "Enalapril Maleate 10 MG / Hydrochlorothiazide 25 MG Oral Tablet"
        }, {
          "reference": "MedicationStatement/f871bbba-6da6-46bc-bf9a-4f5af453ceff",
          "display": "atorvastatin 10 MG Oral Tablet [Lipitor]"
        }, {
          "reference": "MedicationStatement/1fa22c3e-ec4e-4428-9a8a-af00ff85d79d",
          "display": "Metoprolol Tartrate 25 MG Oral Tablet"
        }, {
          "reference": "MedicationStatement/213b444c-f5af-4763-9f79-1ed27abc8b57",
          "display": "atorvastatin 10 MG Oral Tablet [Lipitor]"
        }, {
          "reference": "MedicationStatement/efe33c3b-86a8-4207-a6e9-e38a2a0a1edf",
          "display": "Aspirin 81 MG Oral Tablet"
        } ]
      }, {
        "title": "Social History",
        "code": {
          "coding": [ {
            "system": "http://loinc.org",
            "code": "29762-2",
            "display": "Social History"
          } ]
        },
        "text": {
          "status": "additional",
          "div": "<div xmlns=\"http://www.w3.org/1999/xhtml\"><table><thead><tr><th>Group Description</th><th>Code System</th><th>Code</th><th>Code Description</th><th>Date and Time</th><th>Status</th></tr></thead><tbody><tr><td>Tobacco Use</td><td>SNOMED-CT</td><td>266919005</td><td><span/>Never smoker (Never Smoked)</td><td>12-18-2009 10:00:00</td><td>Active</td></tr><tr><td/><td>SNOMED-CT</td><td>449868002</td><td>Current every day smoker</td><td/><td/></tr></tbody></table></div>"
        },
        "mode": "snapshot",
        "entry": [ {
          "reference": "Observation/6b5c63d2-3345-449e-a307-5044ac14e034"
        } ]
      }, {
        "title": "Allergies,  Adverse Reactions & Alerts",
        "code": {
          "coding": [ {
            "system": "http://loinc.org",
            "code": "48765-2",
            "display": "Allergies, adverse reactions, alerts"
          } ]
        },
        "text": {
          "status": "additional",
          "div": "<div xmlns=\"http://www.w3.org/1999/xhtml\"><table><thead><tr><th>Group Description</th><th>Code System</th><th>Code</th><th>Code Description</th><th>Severity</th><th>Susceptibility</th><th>Date and Time</th><th>Status</th></tr></thead><tbody><tr><td>Allergy to Eggs</td><td>UNII</td><td>291P45F896</td><td><span/>Eggs</td><td><span/>Severe</td><td>Susceptible</td><td>12-18-2009 10:00:00</td><td>Active</td></tr><tr><td/><td>ICD-9-CM</td><td>V15.03</td><td>Allergy to eggs</td><td/><td/><td/><td/></tr><tr><td>Fosfomycin</td><td>RxNorm</td><td>808917</td><td><span/>Fosfomycin 33.3 MG/ML Oral Suspension</td><td><span/>Moderate to severe</td><td>Moderately Susceptible</td><td>12-18-2009 10:00:00</td><td>Active</td></tr><tr><td>Penicillin V</td><td>NDF-RT</td><td>N0000011298</td><td><span/>Penicillin V</td><td><span/>Moderate to severe</td><td>Moderately Susceptible</td><td>12-18-2009 10:00:00</td><td>Active</td></tr></tbody></table></div>"
        },
        "mode": "snapshot",
        "entry": [ {
          "reference": "AllergyIntolerance/ce3bac2f-e250-4280-bee4-1c98924f9230",
          "display": "Fosfomycin + Fosfomycin 33.3 MG/ML Oral Suspension"
        }, {
          "reference": "AllergyIntolerance/e80fd6cc-8dde-4ebb-895e-7020d243d103",
          "display": "Allergy to Eggs + Eggs"
        }, {
          "reference": "AllergyIntolerance/39d9b68f-f609-4ee4-9b9d-61efdfd3b1f7",
          "display": "Penicillin V + Penicillin V"
        } ]
      }, {
        "title": "Procedures",
        "code": {
          "coding": [ {
            "system": "http://loinc.org",
            "code": "47519-4",
            "display": "HISTORY OF PROCEDURES"
          } ]
        },
        "text": {
          "status": "additional",
          "div": "<div xmlns=\"http://www.w3.org/1999/xhtml\"><table><thead><tr><th>Group Description</th><th>Code System</th><th>Code</th><th>Code Description</th><th>Date and Time</th><th>Status</th></tr></thead><tbody><tr><td>Foot Exam</td><td>SNOMED-CT</td><td>401191002</td><td><span/>Diabetic foot examination</td><td>04-18-2010 10:00:00</td><td>Performed</td></tr><tr><td>Macular or Fundus Exam</td><td>SNOMED-CT</td><td>312905005</td><td><span/>Severe nonproliferative diabetic retinopathy</td><td>09-29-2010 10:00:00</td><td>Performed</td></tr><tr><td/><td>SNOMED-CT</td><td>37231002</td><td>Macular retinal edema</td><td/><td/></tr><tr><td/><td>SNOMED-CT</td><td>410455004</td><td>Slit lamp fundus examination</td><td/><td/></tr><tr><td>Macular or Fundus Exam</td><td>SNOMED-CT</td><td>312905005</td><td><span/>Severe nonproliferative diabetic retinopathy</td><td>10-05-2010 10:00:00</td><td>Performed</td></tr><tr><td/><td>SNOMED-CT</td><td>37231002</td><td>Macular retinal edema</td><td/><td/></tr><tr><td/><td>SNOMED-CT</td><td>410455004</td><td>Slit lamp fundus examination</td><td/><td/></tr><tr><td>Foot Exam</td><td>SNOMED-CT</td><td>401191002</td><td><span/>Diabetic foot examination</td><td>10-26-2010 10:00:00</td><td>Performed</td></tr></tbody></table></div>"
        },
        "mode": "snapshot"
      }, {
        "title": "Problems",
        "code": {
          "coding": [ {
            "system": "http://loinc.org",
            "code": "11450-4",
            "display": "PROBLEM LIST"
          } ]
        },
        "text": {
          "status": "additional",
          "div": "<div xmlns=\"http://www.w3.org/1999/xhtml\"><table><thead><tr><th>Group Description</th><th>Code System</th><th>Code</th><th>Code Description</th><th>Date and Time</th><th>Status</th></tr></thead><tbody><tr><td>Acute myocardial infarction</td><td>SNOMED-CT</td><td>57054005</td><td><span/>Acute myocardial infarction</td><td>12-18-2009 10:00:00</td><td>Active</td></tr><tr><td/><td>ICD-10-CM</td><td>I21.3</td><td>ST elevation (STEMI) myocardial infarction of unspecified site</td><td/><td/></tr><tr><td/><td>ICD-9-CM</td><td>410.91</td><td>Acute myocardial infarction of unspecified site, initial episode of care</td><td/><td/></tr><tr><td>Coronary Artery Disease includes MI</td><td>SNOMED-CT</td><td>57054005</td><td><span/>Acute myocardial infarction</td><td>12-18-2009 10:00:00</td><td>Active</td></tr><tr><td/><td>ICD-10-CM</td><td>I21.3</td><td>ST elevation (STEMI) myocardial infarction of unspecified site</td><td/><td/></tr><tr><td/><td>ICD-9-CM</td><td>410.90</td><td>Acute myocardial infarction of unspecified site, episode of care unspecified</td><td/><td/></tr><tr><td>Diabetes</td><td>SNOMED-CT</td><td>44054006</td><td><span/>Diabetes mellitus type 2</td><td>04-18-2010 10:00:00</td><td>Active</td></tr><tr><td/><td>ICD-10-CM</td><td>E11.9</td><td>Type 2 diabetes mellitus without complications</td><td/><td/></tr><tr><td/><td>ICD-9-CM</td><td>250.00</td><td>Diabetes mellitus without mention of complication, type II or unspecified type, not stated as uncontrolled</td><td/><td/></tr><tr><td>Hypertension</td><td>SNOMED-CT</td><td>59621000</td><td><span/>Essential hypertension</td><td>04-18-2010 10:00:00</td><td>Active</td></tr><tr><td/><td>ICD-10-CM</td><td>I10</td><td>Essential (primary) hypertension</td><td/><td/></tr><tr><td/><td>ICD-9-CM</td><td>401.9</td><td>Unspecified essential hypertension</td><td/><td/></tr><tr><td>Diabetic Retinopathy</td><td>SNOMED-CT</td><td>312904009</td><td><span/>Moderate nonproliferative diabetic retinopathy</td><td>09-29-2010 10:00:00</td><td>Active</td></tr><tr><td/><td>ICD-10-CM</td><td>E13.33</td><td>Other specified diabetes mellitus with moderate nonproliferative diabetic retinopathy</td><td/><td/></tr><tr><td/><td>ICD-9-CM</td><td>362.05</td><td>Moderate nonproliferative diabetic retinopathy</td><td/><td/></tr></tbody></table></div>"
        },
        "mode": "snapshot",
        "entry": [ {
          "reference": "Condition/243aed00-92a4-4a8a-86f2-94d6ad9c523b",
          "display": "Acute myocardial infarction"
        } ]
      }, {
        "title": "Results",
        "code": {
          "coding": [ {
            "system": "http://loinc.org",
            "code": "30954-2",
            "display": "Results"
          } ]
        },
        "text": {
          "status": "additional",
          "div": "<div xmlns=\"http://www.w3.org/1999/xhtml\"><table><thead><tr><th>Group Description</th><th>Code System</th><th>Code</th><th>Code Description</th><th>Value</th><th>Unit</th><th>Reference Range</th><th>Date and Time</th><th>Status</th></tr></thead><tbody><tr><td>HbA1c test</td><td>LOINC</td><td>4548-4</td><td><span/>Hgb A1c MFr Bld</td><td>6.5</td><td>%</td><td>4-5.6%</td><td>04-18-2010 10:00:00</td><td>Completed</td></tr><tr><td/><td>CPT</td><td>83036</td><td>Glycated hemoglobin test</td><td/><td/><td/><td/><td/></tr><tr><td/><td>SNOMED-CT</td><td>43396009</td><td>Hemoglobin A1c measurement</td><td/><td/><td/><td/><td/></tr><tr><td>High Density Lipoprotein (HDL)</td><td>LOINC</td><td>14646-4</td><td><span/>HDLc SerPl-sCnc</td><td>48</td><td>mg/dL</td><td>&amp;gt;=40 mg/dL</td><td>04-18-2010 10:00:00</td><td>Completed</td></tr><tr><td/><td>CPT</td><td>83701</td><td>Lipoprotein bld, hr fraction</td><td/><td/><td/><td/><td/></tr><tr><td/><td>SNOMED-CT</td><td>28036006</td><td>High density lipoprotein cholesterol measurement</td><td/><td/><td/><td/><td/></tr><tr><td>Low Density Lipoprotein (LDL)</td><td>LOINC</td><td>2089-1</td><td><span/>LDLc SerPl-mCnc</td><td>60.6</td><td>mg/dL</td><td>&amp;lt;130 mg/dL (calc)</td><td>04-18-2010 10:00:00</td><td>Completed</td></tr><tr><td/><td>CPT</td><td>83721</td><td>Assay of blood lipoprotein</td><td/><td/><td/><td/><td/></tr><tr><td/><td>SNOMED-CT</td><td>113079009</td><td>Low density lipoprotein cholesterol measurement</td><td/><td/><td/><td/><td/></tr><tr><td>Total Cholesterol</td><td>LOINC</td><td>2093-3</td><td><span/>Cholest SerPl-mCnc</td><td>134</td><td>mg/dL</td><td>125-200 mg/dL</td><td>04-18-2010 10:00:00</td><td>Completed</td></tr><tr><td/><td>CPT</td><td>82465</td><td>Assay, bld/serum cholesterol</td><td/><td/><td/><td/><td/></tr><tr><td/><td>SNOMED-CT</td><td>121868005</td><td>Total cholesterol measurement</td><td/><td/><td/><td/><td/></tr><tr><td>Triglycerides</td><td>LOINC</td><td>12951-0</td><td><span/>Trigl SerPl Calc-mCnc</td><td>127</td><td>mg/dL</td><td>10-39 years: 55-110 mg/dL | 40-59 years: 70-150 mg/dL | &amp;gt;60 years: 80-150 mg/dL | Therapeutic Target: &amp;lt;100 mg/dL </td><td>04-18-2010 10:00:00</td><td>Completed</td></tr><tr><td/><td>CPT</td><td>84478</td><td>Assay of triglycerides</td><td/><td/><td/><td/><td/></tr><tr><td/><td>SNOMED-CT</td><td>14740000</td><td>Triglycerides measurement</td><td/><td/><td/><td/><td/></tr><tr><td>HbA1c test</td><td>LOINC</td><td>4548-4</td><td><span/>Hgb A1c MFr Bld</td><td>6.3</td><td>%</td><td>4-5.6%</td><td>10-26-2010 10:00:00</td><td>Completed</td></tr><tr><td/><td>CPT</td><td>83036</td><td>Glycated hemoglobin test</td><td/><td/><td/><td/><td/></tr><tr><td/><td>SNOMED-CT</td><td>43396009</td><td>Hemoglobin A1c measurement</td><td/><td/><td/><td/><td/></tr></tbody></table></div>"
        },
        "mode": "snapshot",
        "entry": [ {
          "reference": "DiagnosticReport/6a35a6a3-6a24-404d-92a4-90a9961e28d8",
          "display": "Blood Chemistry"
        }, {
          "reference": "DiagnosticReport/7001eaf2-9866-4310-a0d3-b489abf9ca34",
          "display": "Lipid Panel"
        }, {
          "reference": "DiagnosticReport/4908b723-3d0e-43bd-8871-80ce4c3dfde0",
          "display": "Blood Chemistry"
        } ]
      }, {
        "title": "Encounters",
        "code": {
          "coding": [ {
            "system": "http://loinc.org",
            "code": "46240-8",
            "display": "History of encounters"
          } ]
        },
        "text": {
          "status": "additional",
          "div": "<div xmlns=\"http://www.w3.org/1999/xhtml\"><table><thead><tr><th>Group Description</th><th>Code System</th><th>Code</th><th>Code Description</th><th>Date and Time</th><th>Status</th></tr></thead><tbody><tr><td>Encounter Acute Inpt</td><td>CPT</td><td>99251</td><td><span/>Initial inpatient consult</td><td>12-18-2009 10:00:00</td><td>Performed</td></tr><tr><td>Encounter Inpatient Discharge</td><td>CPT</td><td>99238</td><td><span/>Hospital discharge day</td><td>12-18-2009 10:00:00</td><td>Performed</td></tr><tr><td>Encounter Outpatient</td><td>CPT</td><td>99213</td><td><span/>Office/outpatient visit, est</td><td>04-18-2010 10:00:00</td><td>Performed</td></tr><tr><td/><td>ICD-9-CM</td><td>V70.0</td><td>Routine general medical examination at a health care facility</td><td/><td/></tr><tr><td>Encounter Ophthalmological Services</td><td>CPT</td><td>92012</td><td><span/>Eye exam established pat</td><td>09-29-2010 10:00:00</td><td>Performed</td></tr><tr><td>Encounter Outpatient</td><td>CPT</td><td>99213</td><td><span/>Office/outpatient visit, est</td><td>10-26-2010 10:00:00</td><td>Performed</td></tr><tr><td/><td>ICD-9-CM</td><td>V70.0</td><td>Routine general medical examination at a health care facility</td><td/><td/></tr><tr><td>Encounter Ophthalmological Services</td><td>CPT</td><td>92012</td><td><span/>Eye exam established pat</td><td>02-16-2011 10:00:00</td><td>Performed</td></tr></tbody></table></div>"
        },
        "mode": "snapshot",
        "entry": [ {
          "reference": "Encounter/cf150f80-e622-4cda-8a20-e3a38f262ff6",
          "display": "Office/outpatient visit, est"
        }, {
          "reference": "Encounter/d644e48a-4919-4a8d-b67f-749a365c253a",
          "display": "Initial inpatient consult"
        }, {
          "reference": "Encounter/b72f7d05-84eb-42f2-a5fd-f71cad1add69",
          "display": "Hospital discharge day"
        }, {
          "reference": "Encounter/a379cea1-651a-4453-9955-93f2e0911e6a",
          "display": "Office/outpatient visit, est"
        }, {
          "reference": "Encounter/0d86185c-5c55-48e4-9c79-90f25db6c9ee",
          "display": "Eye exam established pat"
        }, {
          "reference": "Encounter/5c8ff373-e986-426f-bef7-59f672068421",
          "display": "Eye exam established pat"
        } ]
      }, {
        "title": "Vital Signs",
        "code": {
          "coding": [ {
            "system": "http://loinc.org",
            "code": "8716-3",
            "display": "Vital Signs"
          } ]
        },
        "text": {
          "status": "additional",
          "div": "<div xmlns=\"http://www.w3.org/1999/xhtml\"><table><thead><tr><th>Group Description</th><th>Code System</th><th>Code</th><th>Code Description</th><th>Value</th><th>Unit</th><th>Date and Time</th><th>Status</th></tr></thead><tbody><tr><td>BMI</td><td>LOINC</td><td>39156-5</td><td><span/>BMI</td><td>23.4</td><td>kg/m2</td><td>04-18-2010 10:00:00</td><td>Finding</td></tr><tr><td>Diastolic Blood Pressure</td><td>LOINC</td><td>8462-4</td><td><span/>BP Diastolic</td><td>96</td><td>mm[Hg]</td><td>04-18-2010 10:00:00</td><td>Finding</td></tr><tr><td>Systolic Blood Pressure</td><td>LOINC</td><td>8480-6</td><td><span/>BP Systolic</td><td>155</td><td>mm[Hg]</td><td>04-18-2010 10:00:00</td><td>Finding</td></tr><tr><td>BMI</td><td>LOINC</td><td>39156-5</td><td><span/>BMI</td><td>24.2</td><td>kg/m2</td><td>10-26-2010 10:00:00</td><td>Finding</td></tr><tr><td>Diastolic Blood Pressure</td><td>LOINC</td><td>8462-4</td><td><span/>BP Diastolic</td><td>92</td><td>mm[Hg]</td><td>10-26-2010 10:00:00</td><td>Finding</td></tr><tr><td>Systolic Blood Pressure</td><td>LOINC</td><td>8480-6</td><td><span/>BP Systolic</td><td>148</td><td>mm[Hg]</td><td>10-26-2010 10:00:00</td><td>Finding</td></tr></tbody></table></div>"
        },
        "mode": "snapshot",
        "entry": [ {
          "reference": "Observation/290905d7-94b9-400e-93ff-6c58eb403d22",
          "display": "BP Systolic"
        }, {
          "reference": "Observation/4dee3ee1-fde5-4a79-8e23-aef5fa82b987",
          "display": "BMI"
        }, {
          "reference": "Observation/78a72e8e-336d-4dc7-bb76-6abdf59d079c",
          "display": "BP Diastolic"
        }, {
          "reference": "Observation/e3fbe80b-eaaf-41d7-9fc9-4e5fcbf175c7",
          "display": "BP Diastolic"
        }, {
          "reference": "Observation/e9a4141c-2cbc-4fce-aeed-333eb313b334",
          "display": "BP Systolic"
        }, {
          "reference": "Observation/48502bf0-3a20-45c8-8521-35b00e1eb4e9",
          "display": "BMI"
        } ]
      } ]
    }
  }, {
    "resource": {
      "resourceType": "Patient",
      "id": "aacff95a-b83e-4cbf-a3ba-fe8f4796f7bb",
      "extension": [ {
        "url": "http://hl7.org/fhir/StructureDefinition/patient-religion",
        "valueCodeableConcept": {
          "coding": [ {
            "system": "urn:oid:2.16.840.1.113883.5.1076",
            "code": "1059",
            "display": "Zen Buddhism"
          } ]
        }
      }, {
        "url": "http://hl7.org/fhir/us/core/StructureDefinition/us-core-race",
        "extension": [ {
          "url": "text",
          "valueString": "Black or African American"
        }, {
          "url": "ombCategory",
          "valueCoding": {
            "system": "urn:oid:2.16.840.1.113883.6.238",
            "code": "2054-5",
            "display": "Black or African American"
          }
        } ]
      }, {
        "url": "http://hl7.org/fhir/us/core/StructureDefinition/us-core-ethnicity",
        "extension": [ {
          "url": "text",
          "valueString": "Not Hispanic or Latino"
        }, {
          "url": "ombCategory",
          "valueCoding": {
            "system": "urn:oid:2.16.840.1.113883.6.238",
            "code": "2186-5",
            "display": "Not Hispanic or Latino"
          }
        } ]
      }, {
        "url": "http://hl7.org/fhir/StructureDefinition/patient-birthPlace",
        "valueAddress": {
          "city": "Concord",
          "state": "CA",
          "postalCode": "94520",
          "country": "US"
        }
      } ],
      "identifier": [ {
        "use": "official",
        "system": "urn:oid:2.16.840.1.113883.19.5.99999.2",
        "value": "998991"
      }, {
        "use": "official",
        "system": "urn:oid:2.16.840.1.113883.4.1",
        "value": "111-00-2330"
      } ],
      "name": [ {
        "use": "usual",
        "family": "Ortega",
        "given": [ "Erin" ]
      } ],
      "telecom": [ {
        "system": "phone",
        "value": "(708)713-7951",
        "use": "mobile"
      } ],
      "gender": "female",
      "birthDate": "1935-12-11",
      "address": [ {
        "use": "home",
        "line": [ "2486 Poplar Street" ],
        "city": "Wheeling",
        "state": "IL",
        "postalCode": "60090",
        "country": "US"
      } ],
      "maritalStatus": {
        "coding": [ {
          "system": "http://terminology.hl7.org/CodeSystem/v3-MaritalStatus",
          "code": "M",
          "display": "Married"
        } ]
      },
      "contact": [ {
        "relationship": [ {
          "coding": [ {
            "system": "http://terminology.hl7.org/CodeSystem/v2-0131",
            "code": "C",
            "display": "Emergency Contact"
          } ]
        } ],
        "name": {
          "family": "Cummings",
          "given": [ "Jo" ],
          "prefix": [ "Mrs." ]
        },
        "telecom": [ {
          "system": "phone",
          "value": "(312)969-1442",
          "use": "home"
        }, {
          "system": "email",
          "value": "JoCCummings@dayrep.com",
          "use": "work"
        } ],
        "address": {
          "use": "home",
          "line": [ "2455 Nash Street" ],
          "city": "Northbrook",
          "state": "IL",
          "postalCode": "60062",
          "country": "US"
        }
      } ],
      "communication": [ {
        "language": {
          "coding": [ {
            "system": "urn:ietf:bcp:47",
            "code": "spa"
          } ]
        },
        "preferred": true
      } ],
      "managingOrganization": {
        "reference": "Organization/490982de-388b-4f14-9fc8-0f3f876f666f",
        "display": "Community Health and Hospitals"
      }
    }
  }, {
    "resource": {
      "resourceType": "Organization",
      "id": "490982de-388b-4f14-9fc8-0f3f876f666f",
      "identifier": [ {
        "use": "official",
        "value": "2.16.840.1.113883.4.6"
      } ],
      "name": "Community Health and Hospitals",
      "telecom": [ {
        "system": "phone",
        "value": " 555-555-5000",
        "use": "work"
      } ],
      "address": [ {
        "line": [ "1001 Village Avenue" ],
        "city": "Portland",
        "state": "OR",
        "postalCode": "99123",
        "country": "US"
      } ]
    }
  }, {
    "resource": {
      "resourceType": "Practitioner",
      "id": "1b36953c-8348-4dbd-b3ac-bc1c0e8566eb",
      "identifier": [ {
        "use": "official",
        "system": "urn:oid:2.16.840.1.113883.4.6",
        "value": "99999999"
      } ],
      "name": [ {
        "family": "Seven",
        "given": [ "Henry" ],
        "suffix": [ "MD" ]
      } ],
      "telecom": [ {
        "system": "phone",
        "value": "555-555-1002",
        "use": "work"
      } ],
      "address": [ {
        "line": [ "1002 Healthcare Drive" ],
        "city": "Portland",
        "state": "OR",
        "postalCode": "99123",
        "country": "US"
      } ]
    }
  }, {
    "resource": {
      "resourceType": "Practitioner",
      "id": "bef9abcd-aec4-461e-95eb-0571b6b4a4cd",
      "identifier": [ {
        "use": "official",
        "system": "http://hl7.org/fhir/sid/us-npi",
        "value": "999999999"
      } ],
      "name": [ {
        "family": "Seven",
        "given": [ "Henry" ]
      } ],
      "telecom": [ {
        "system": "phone",
        "value": "555-555-1002",
        "use": "work"
      } ],
      "address": [ {
        "line": [ "1001 Village Avenue" ],
        "city": "Portland",
        "state": "OR",
        "postalCode": "99123",
        "country": "US"
      } ]
    }
  }, {
    "resource": {
      "resourceType": "Practitioner",
      "id": "658f873a-31e5-4425-b4c4-f60e2eae242d",
      "identifier": [ {
        "use": "official",
        "system": "http://hl7.org/fhir/sid/us-npi",
        "value": "PseudoMD-1"
      } ],
      "name": [ {
        "family": "Seven",
        "given": [ "Henry" ],
        "suffix": [ "MD" ]
      } ],
      "telecom": [ {
        "system": "phone",
        "value": "+1-555-555-5000",
        "use": "home"
      } ],
      "address": [ {
        "line": [ "1001 Village Avenue" ],
        "city": "Portland",
        "state": "OR",
        "postalCode": "99123",
        "country": "US"
      } ]
    }
  }, {
    "resource": {
      "resourceType": "Organization",
      "id": "f9c6d781-d91b-4899-8f86-39f65d76f1ad",
      "identifier": [ {
        "use": "official",
        "system": "urn:oid:2.16.840.1.113883.4.6",
        "value": "99999999"
      } ],
      "name": "Community Health and Hospitals",
      "telecom": [ {
        "system": "phone",
        "value": " 555-555-1002",
        "use": "work"
      } ],
      "address": [ {
        "use": "work",
        "line": [ "1002 Healthcare Drive" ],
        "city": "Portland",
        "state": "OR",
        "postalCode": "99123",
        "country": "US"
      } ]
    }
  }, {
    "resource": {
      "resourceType": "MedicationStatement",
      "id": "bdbad8f8-555a-44d1-83b2-0e9873487b65",
      "extension": [ {
        "url": "http://hl7.org/fhir/3.0/StructureDefinition/extension-MedicationStatement.status",
        "valueCode": "UNKNOWN"
      } ],
      "identifier": [ {
        "use": "official",
        "value": "cdbd33f0-6cde-11db-9fe1-0800200c9a66"
      } ],
      "status": "completed",
      "medicationReference": {
        "reference": "Medication/c75eed18-d578-4132-a02a-362fb5ffad1b",
        "display": "Enalapril Maleate 10 MG / Hydrochlorothiazide 25 MG Oral Tablet"
      },
      "subject": {
        "reference": "Patient/aacff95a-b83e-4cbf-a3ba-fe8f4796f7bb",
        "display": "Erin Ortega"
      },
      "effectivePeriod": {
        "start": "2010-04-18T10:00:00+02:00"
      }
    }
  }, {
    "resource": {
      "resourceType": "Medication",
      "id": "c75eed18-d578-4132-a02a-362fb5ffad1b",
      "code": {
        "coding": [ {
          "system": "http://www.nlm.nih.gov/research/umls/rxnorm",
          "code": "858828",
          "display": "Enalapril Maleate 10 MG / Hydrochlorothiazide 25 MG Oral Tablet"
        } ]
      }
    }
  }, {
    "resource": {
      "resourceType": "MedicationStatement",
      "id": "c153c4fe-c272-4c2e-9dce-d6428538fee9",
      "extension": [ {
        "url": "http://hl7.org/fhir/3.0/StructureDefinition/extension-MedicationStatement.status",
        "valueCode": "UNKNOWN"
      } ],
      "identifier": [ {
        "use": "official",
        "value": "cdbd33f0-6cde-11db-9fe1-0800200c9a66"
      } ],
      "status": "completed",
      "medicationReference": {
        "reference": "Medication/297a9dcd-9a05-41d5-ab9e-bba1f48326fc",
        "display": "Metoprolol Tartrate 25 MG Oral Tablet"
      },
      "subject": {
        "reference": "Patient/aacff95a-b83e-4cbf-a3ba-fe8f4796f7bb",
        "display": "Erin Ortega"
      },
      "effectivePeriod": {
        "start": "2010-04-18T10:00:00+02:00"
      }
    }
  }, {
    "resource": {
      "resourceType": "Medication",
      "id": "297a9dcd-9a05-41d5-ab9e-bba1f48326fc",
      "code": {
        "coding": [ {
          "system": "http://www.nlm.nih.gov/research/umls/rxnorm",
          "code": "866924",
          "display": "Metoprolol Tartrate 25 MG Oral Tablet"
        } ]
      }
    }
  }, {
    "resource": {
      "resourceType": "MedicationStatement",
      "id": "90cd3e98-36fb-46a5-a069-6ea66c24cda3",
      "extension": [ {
        "url": "http://hl7.org/fhir/3.0/StructureDefinition/extension-MedicationStatement.status",
        "valueCode": "UNKNOWN"
      } ],
      "identifier": [ {
        "use": "official",
        "value": "cdbd33f0-6cde-11db-9fe1-0800200c9a66"
      } ],
      "status": "completed",
      "medicationReference": {
        "reference": "Medication/03e7f589-a752-4300-86d3-45d73726152e",
        "display": "3 ML Insulin Lispro 100 UNT/ML Prefilled Syringe"
      },
      "subject": {
        "reference": "Patient/aacff95a-b83e-4cbf-a3ba-fe8f4796f7bb",
        "display": "Erin Ortega"
      },
      "effectivePeriod": {
        "start": "2009-12-18T10:00:00+01:00"
      }
    }
  }, {
    "resource": {
      "resourceType": "Medication",
      "id": "03e7f589-a752-4300-86d3-45d73726152e",
      "code": {
        "coding": [ {
          "system": "http://www.nlm.nih.gov/research/umls/rxnorm",
          "code": "847207",
          "display": "3 ML Insulin Lispro 100 UNT/ML Prefilled Syringe"
        } ]
      }
    }
  }, {
    "resource": {
      "resourceType": "MedicationStatement",
      "id": "3dba312e-a87c-4131-8ce0-9f4f274b6eb5",
      "extension": [ {
        "url": "http://hl7.org/fhir/3.0/StructureDefinition/extension-MedicationStatement.status",
        "valueCode": "UNKNOWN"
      } ],
      "identifier": [ {
        "use": "official",
        "value": "cdbd33f0-6cde-11db-9fe1-0800200c9a66"
      } ],
      "status": "completed",
      "medicationReference": {
        "reference": "Medication/e475dd2e-441f-427e-b197-ca2200702b32",
        "display": "Aspirin 81 MG Oral Tablet"
      },
      "subject": {
        "reference": "Patient/aacff95a-b83e-4cbf-a3ba-fe8f4796f7bb",
        "display": "Erin Ortega"
      },
      "effectivePeriod": {
        "start": "2009-12-18T10:00:00+01:00"
      }
    }
  }, {
    "resource": {
      "resourceType": "Medication",
      "id": "e475dd2e-441f-427e-b197-ca2200702b32",
      "code": {
        "coding": [ {
          "system": "http://www.nlm.nih.gov/research/umls/rxnorm",
          "code": "243670",
          "display": "Aspirin 81 MG Oral Tablet"
        } ]
      }
    }
  }, {
    "resource": {
      "resourceType": "MedicationStatement",
      "id": "153e847f-d1ba-447d-b76e-c337fed558de",
      "extension": [ {
        "url": "http://hl7.org/fhir/3.0/StructureDefinition/extension-MedicationStatement.status",
        "valueCode": "UNKNOWN"
      } ],
      "identifier": [ {
        "use": "official",
        "value": "cdbd33f0-6cde-11db-9fe1-0800200c9a66"
      } ],
      "status": "completed",
      "medicationReference": {
        "reference": "Medication/c75eed18-d578-4132-a02a-362fb5ffad1b",
        "display": "Enalapril Maleate 10 MG / Hydrochlorothiazide 25 MG Oral Tablet"
      },
      "subject": {
        "reference": "Patient/aacff95a-b83e-4cbf-a3ba-fe8f4796f7bb",
        "display": "Erin Ortega"
      },
      "effectivePeriod": {
        "start": "2009-12-18T10:00:00+01:00"
      }
    }
  }, {
    "resource": {
      "resourceType": "MedicationStatement",
      "id": "f871bbba-6da6-46bc-bf9a-4f5af453ceff",
      "extension": [ {
        "url": "http://hl7.org/fhir/3.0/StructureDefinition/extension-MedicationStatement.status",
        "valueCode": "UNKNOWN"
      } ],
      "identifier": [ {
        "use": "official",
        "value": "cdbd33f0-6cde-11db-9fe1-0800200c9a66"
      } ],
      "status": "completed",
      "medicationReference": {
        "reference": "Medication/1088d1d2-8cb5-4761-9f4f-771d21af5f9c",
        "display": "atorvastatin 10 MG Oral Tablet [Lipitor]"
      },
      "subject": {
        "reference": "Patient/aacff95a-b83e-4cbf-a3ba-fe8f4796f7bb",
        "display": "Erin Ortega"
      },
      "effectivePeriod": {
        "start": "2009-12-18T10:00:00+01:00"
      }
    }
  }, {
    "resource": {
      "resourceType": "Medication",
      "id": "1088d1d2-8cb5-4761-9f4f-771d21af5f9c",
      "code": {
        "coding": [ {
          "system": "http://www.nlm.nih.gov/research/umls/rxnorm",
          "code": "617314",
          "display": "atorvastatin 10 MG Oral Tablet [Lipitor]"
        } ]
      }
    }
  }, {
    "resource": {
      "resourceType": "MedicationStatement",
      "id": "1fa22c3e-ec4e-4428-9a8a-af00ff85d79d",
      "extension": [ {
        "url": "http://hl7.org/fhir/3.0/StructureDefinition/extension-MedicationStatement.status",
        "valueCode": "UNKNOWN"
      } ],
      "identifier": [ {
        "use": "official",
        "value": "cdbd33f0-6cde-11db-9fe1-0800200c9a66"
      } ],
      "status": "completed",
      "medicationReference": {
        "reference": "Medication/297a9dcd-9a05-41d5-ab9e-bba1f48326fc",
        "display": "Metoprolol Tartrate 25 MG Oral Tablet"
      },
      "subject": {
        "reference": "Patient/aacff95a-b83e-4cbf-a3ba-fe8f4796f7bb",
        "display": "Erin Ortega"
      },
      "effectivePeriod": {
        "start": "2009-12-18T10:00:00+01:00"
      }
    }
  }, {
    "resource": {
      "resourceType": "MedicationStatement",
      "id": "213b444c-f5af-4763-9f79-1ed27abc8b57",
      "extension": [ {
        "url": "http://hl7.org/fhir/3.0/StructureDefinition/extension-MedicationStatement.status",
        "valueCode": "UNKNOWN"
      } ],
      "identifier": [ {
        "use": "official",
        "value": "cdbd33f0-6cde-11db-9fe1-0800200c9a66"
      } ],
      "status": "completed",
      "medicationReference": {
        "reference": "Medication/1088d1d2-8cb5-4761-9f4f-771d21af5f9c",
        "display": "atorvastatin 10 MG Oral Tablet [Lipitor]"
      },
      "subject": {
        "reference": "Patient/aacff95a-b83e-4cbf-a3ba-fe8f4796f7bb",
        "display": "Erin Ortega"
      },
      "effectivePeriod": {
        "start": "2010-04-18T10:00:00+02:00"
      }
    }
  }, {
    "resource": {
      "resourceType": "MedicationStatement",
      "id": "efe33c3b-86a8-4207-a6e9-e38a2a0a1edf",
      "extension": [ {
        "url": "http://hl7.org/fhir/3.0/StructureDefinition/extension-MedicationStatement.status",
        "valueCode": "UNKNOWN"
      } ],
      "identifier": [ {
        "use": "official",
        "value": "cdbd33f0-6cde-11db-9fe1-0800200c9a66"
      } ],
      "status": "completed",
      "medicationReference": {
        "reference": "Medication/e475dd2e-441f-427e-b197-ca2200702b32",
        "display": "Aspirin 81 MG Oral Tablet"
      },
      "subject": {
        "reference": "Patient/aacff95a-b83e-4cbf-a3ba-fe8f4796f7bb",
        "display": "Erin Ortega"
      },
      "effectivePeriod": {
        "start": "2010-04-18T10:00:00+02:00"
      }
    }
  }, {
    "resource": {
      "resourceType": "Observation",
      "id": "6b5c63d2-3345-449e-a307-5044ac14e034",
      "identifier": [ {
        "use": "official",
        "system": "urn:oid:2.16.840.1.113883.19",
        "value": "123456789"
      } ],
      "status": "final",
      "code": {
        "coding": [ {
          "system": "urn:oid:2.16.840.1.113883.5.4",
          "code": "ASSERTION"
        } ]
      },
      "subject": {
        "reference": "Patient/aacff95a-b83e-4cbf-a3ba-fe8f4796f7bb",
        "display": "Erin Ortega"
      },
      "effectivePeriod": {
        "start": "2009-12-18T10:00:00+01:00"
      },
      "valueCodeableConcept": {
        "coding": [ {
          "system": "http://snomed.info/sct",
          "code": "266919005",
          "display": "Never smoker (Never Smoked)"
        }, {
          "system": "http://snomed.info/sct",
          "code": "449868002",
          "display": "Current every day smoker"
        } ]
      }
    }
  }, {
    "resource": {
      "resourceType": "AllergyIntolerance",
      "id": "ce3bac2f-e250-4280-bee4-1c98924f9230",
      "identifier": [ {
        "use": "official",
        "value": "36e3e930-7b14-11db-9fe1-0800200c9a66"
      } ],
      "clinicalStatus": {
        "coding": [ {
          "system": "http://terminology.hl7.org/CodeSystem/allergyintolerance-clinical",
          "code": "active",
          "display": "Active"
        } ]
      },
      "verificationStatus": {
        "coding": [ {
          "system": "http://terminology.hl7.org/CodeSystem/allergyintolerance-verification",
          "code": "confirmed",
          "display": "Confirmed"
        } ]
      },
      "type": "allergy",
      "category": [ "medication" ],
      "code": {
        "coding": [ {
          "system": "http://www.nlm.nih.gov/research/umls/rxnorm",
          "code": "808917",
          "display": "Fosfomycin 33.3 MG/ML Oral Suspension"
        } ],
        "text": "Fosfomycin + Fosfomycin 33.3 MG/ML Oral Suspension"
      },
      "patient": {
        "reference": "Patient/aacff95a-b83e-4cbf-a3ba-fe8f4796f7bb",
        "display": "Erin Ortega"
      },
      "recordedDate": "2009-12-18T10:00:00+01:00"
    }
  }, {
    "resource": {
      "resourceType": "AllergyIntolerance",
      "id": "e80fd6cc-8dde-4ebb-895e-7020d243d103",
      "identifier": [ {
        "use": "official",
        "value": "36e3e930-7b14-11db-9fe1-0800200c9a66"
      } ],
      "clinicalStatus": {
        "coding": [ {
          "system": "http://terminology.hl7.org/CodeSystem/allergyintolerance-clinical",
          "code": "active",
          "display": "Active"
        } ]
      },
      "verificationStatus": {
        "coding": [ {
          "system": "http://terminology.hl7.org/CodeSystem/allergyintolerance-verification",
          "code": "confirmed",
          "display": "Confirmed"
        } ]
      },
      "type": "allergy",
      "category": [ "food" ],
      "code": {
        "coding": [ {
          "system": "http://fdasis.nlm.nih.gov",
          "code": "291P45F896",
          "display": "Eggs"
        }, {
          "system": "urn:oid:2.16.840.1.113883.6.103",
          "code": "V15.03",
          "display": "Allergy to eggs"
        } ],
        "text": "Allergy to Eggs + Eggs"
      },
      "patient": {
        "reference": "Patient/aacff95a-b83e-4cbf-a3ba-fe8f4796f7bb",
        "display": "Erin Ortega"
      },
      "recordedDate": "2009-12-18T10:00:00+01:00"
    }
  }, {
    "resource": {
      "resourceType": "AllergyIntolerance",
      "id": "39d9b68f-f609-4ee4-9b9d-61efdfd3b1f7",
      "identifier": [ {
        "use": "official",
        "value": "36e3e930-7b14-11db-9fe1-0800200c9a66"
      } ],
      "clinicalStatus": {
        "coding": [ {
          "system": "http://terminology.hl7.org/CodeSystem/allergyintolerance-clinical",
          "code": "active",
          "display": "Active"
        } ]
      },
      "verificationStatus": {
        "coding": [ {
          "system": "http://terminology.hl7.org/CodeSystem/allergyintolerance-verification",
          "code": "confirmed",
          "display": "Confirmed"
        } ]
      },
      "type": "allergy",
      "category": [ "medication" ],
      "code": {
        "coding": [ {
          "system": "urn:oid:2.16.840.1.113883.3.26.1.5",
          "code": "N0000011298",
          "display": "Penicillin V"
        } ],
        "text": "Penicillin V + Penicillin V"
      },
      "patient": {
        "reference": "Patient/aacff95a-b83e-4cbf-a3ba-fe8f4796f7bb",
        "display": "Erin Ortega"
      },
      "recordedDate": "2009-12-18T10:00:00+01:00"
    }
  }, {
    "resource": {
      "resourceType": "Condition",
      "id": "243aed00-92a4-4a8a-86f2-94d6ad9c523b",
      "identifier": [ {
        "use": "official",
        "value": "9d3d416d-45ab-4da1-912f-4583e0632000"
      } ],
      "clinicalStatus": {
        "coding": [ {
          "system": "http://terminology.hl7.org/CodeSystem/condition-clinical",
          "code": "active",
          "display": "Active"
        } ]
      },
      "verificationStatus": {
        "coding": [ {
          "system": "http://terminology.hl7.org/CodeSystem/condition-ver-status",
          "code": "confirmed",
          "display": "Confirmed"
        } ]
      },
      "category": [ {
        "coding": [ {
          "system": "http://terminology.hl7.org/CodeSystem/condition-category",
          "code": "problem-list-item",
          "display": "Problem List Item"
        } ]
      } ],
      "code": {
        "coding": [ {
          "system": "http://snomed.info/sct",
          "code": "57054005",
          "display": "Acute myocardial infarction"
        }, {
          "system": "urn:oid:2.16.840.1.113883.6.90",
          "code": "I21.3",
          "display": "ST elevation (STEMI) myocardial infarction of unspecified site"
        }, {
          "system": "urn:oid:2.16.840.1.113883.6.103",
          "code": "410.91",
          "display": "Acute myocardial infarction of unspecified site, initial episode of care"
        } ]
      },
      "subject": {
        "reference": "Patient/aacff95a-b83e-4cbf-a3ba-fe8f4796f7bb",
        "display": "Erin Ortega"
      },
      "onsetDateTime": "2009-12-18T10:00:00+01:00"
    }
  }, {
    "resource": {
      "resourceType": "DiagnosticReport",
      "id": "6a35a6a3-6a24-404d-92a4-90a9961e28d8",
      "identifier": [ {
        "use": "official",
        "value": "7d5a02b0-67a4-11db-bd13-0800200c9a66"
      } ],
      "status": "final",
      "category": [ {
        "coding": [ {
          "system": "http://terminology.hl7.org/CodeSystem/v2-0074",
          "code": "LAB",
          "display": "Laboratory"
        } ]
      } ],
      "code": {
        "coding": [ {
          "system": "http://snomed.info/sct",
          "code": "166312007",
          "display": "Blood Chemistry"
        } ]
      },
      "subject": {
        "reference": "Patient/aacff95a-b83e-4cbf-a3ba-fe8f4796f7bb",
        "display": "Erin Ortega"
      },
      "result": [ {
        "reference": "Observation/a6a208f0-9872-4cad-83c6-90ee61ba60a0",
        "display": "Hgb A1c MFr Bld"
      } ]
    }
  }, {
    "resource": {
      "resourceType": "Observation",
      "id": "a6a208f0-9872-4cad-83c6-90ee61ba60a0",
      "identifier": [ {
        "use": "official",
        "value": "107c2dc0-67a5-11db-bd13-0800200c9a66"
      } ],
      "status": "final",
      "category": [ {
        "coding": [ {
          "system": "http://terminology.hl7.org/CodeSystem/observation-category",
          "code": "laboratory"
        } ]
      } ],
      "code": {
        "coding": [ {
          "system": "http://loinc.org",
          "code": "4548-4",
          "display": "Hgb A1c MFr Bld"
        }, {
          "system": "http://www.ama-assn.org/go/cpt",
          "code": "83036",
          "display": "Glycated hemoglobin test"
        }, {
          "system": "http://snomed.info/sct",
          "code": "43396009",
          "display": "Hemoglobin A1c measurement"
        } ]
      },
      "subject": {
        "reference": "Patient/aacff95a-b83e-4cbf-a3ba-fe8f4796f7bb",
        "display": "Erin Ortega"
      },
      "effectivePeriod": {
        "start": "2010-04-18T10:00:00+02:00"
      },
      "valueQuantity": {
        "value": 6.5,
        "unit": "%",
        "system": "http://unitsofmeasure.org",
        "code": "%"
      },
      "interpretation": [ {
        "coding": [ {
          "system": "http://terminology.hl7.org/CodeSystem/v3-ObservationInterpretation",
          "code": "N"
        } ]
      } ],
      "referenceRange": [ {
        "text": "4-5.6%"
      } ]
    }
  }, {
    "resource": {
      "resourceType": "DiagnosticReport",
      "id": "7001eaf2-9866-4310-a0d3-b489abf9ca34",
      "identifier": [ {
        "use": "official",
        "value": "7d5a02b0-67a4-11db-bd13-0800200c9a66"
      } ],
      "status": "final",
      "category": [ {
        "coding": [ {
          "system": "http://terminology.hl7.org/CodeSystem/v2-0074",
          "code": "LAB",
          "display": "Laboratory"
        } ]
      } ],
      "code": {
        "coding": [ {
          "system": "http://snomed.info/sct",
          "code": "16254007",
          "display": "Lipid Panel"
        } ]
      },
      "subject": {
        "reference": "Patient/aacff95a-b83e-4cbf-a3ba-fe8f4796f7bb",
        "display": "Erin Ortega"
      },
      "result": [ {
        "reference": "Observation/25ebcb03-4037-49f8-9769-d7071d7247e9",
        "display": "HDLc SerPl-sCnc"
      }, {
        "reference": "Observation/c5e684ef-6cfc-4d18-93fd-6ac557a88726",
        "display": "LDLc SerPl-mCnc"
      }, {
        "reference": "Observation/2bbf3239-bddc-41dc-92c5-bfaa8fdd2cc4",
        "display": "Cholest SerPl-mCnc"
      }, {
        "reference": "Observation/d6b850a9-06ea-4c6a-9017-3cd6c8934006",
        "display": "Trigl SerPl Calc-mCnc"
      } ]
    }
  }, {
    "resource": {
      "resourceType": "Observation",
      "id": "25ebcb03-4037-49f8-9769-d7071d7247e9",
      "identifier": [ {
        "use": "official",
        "value": "107c2dc0-67a5-11db-bd13-0800200c9a66"
      } ],
      "status": "final",
      "category": [ {
        "coding": [ {
          "system": "http://terminology.hl7.org/CodeSystem/observation-category",
          "code": "laboratory"
        } ]
      } ],
      "code": {
        "coding": [ {
          "system": "http://loinc.org",
          "code": "14646-4",
          "display": "HDLc SerPl-sCnc"
        }, {
          "system": "http://www.ama-assn.org/go/cpt",
          "code": "83701",
          "display": "Lipoprotein bld, hr fraction"
        }, {
          "system": "http://snomed.info/sct",
          "code": "28036006",
          "display": "High density lipoprotein cholesterol measurement"
        } ]
      },
      "subject": {
        "reference": "Patient/aacff95a-b83e-4cbf-a3ba-fe8f4796f7bb",
        "display": "Erin Ortega"
      },
      "effectivePeriod": {
        "start": "2010-04-18T10:00:00+02:00"
      },
      "valueQuantity": {
        "value": 48,
        "unit": "mg/dL",
        "system": "http://unitsofmeasure.org",
        "code": "mg/dL"
      },
      "interpretation": [ {
        "coding": [ {
          "system": "http://terminology.hl7.org/CodeSystem/v3-ObservationInterpretation",
          "code": "N"
        } ]
      } ],
      "referenceRange": [ {
        "text": ">=40 mg/dL"
      } ]
    }
  }, {
    "resource": {
      "resourceType": "Observation",
      "id": "c5e684ef-6cfc-4d18-93fd-6ac557a88726",
      "identifier": [ {
        "use": "official",
        "value": "107c2dc0-67a5-11db-bd13-0800200c9a66"
      } ],
      "status": "final",
      "category": [ {
        "coding": [ {
          "system": "http://terminology.hl7.org/CodeSystem/observation-category",
          "code": "laboratory"
        } ]
      } ],
      "code": {
        "coding": [ {
          "system": "http://loinc.org",
          "code": "2089-1",
          "display": "LDLc SerPl-mCnc"
        }, {
          "system": "http://www.ama-assn.org/go/cpt",
          "code": "83721",
          "display": "Assay of blood lipoprotein"
        }, {
          "system": "http://snomed.info/sct",
          "code": "113079009",
          "display": "Low density lipoprotein cholesterol measurement"
        } ]
      },
      "subject": {
        "reference": "Patient/aacff95a-b83e-4cbf-a3ba-fe8f4796f7bb",
        "display": "Erin Ortega"
      },
      "effectivePeriod": {
        "start": "2010-04-18T10:00:00+02:00"
      },
      "valueQuantity": {
        "value": 60.6,
        "unit": "mg/dL",
        "system": "http://unitsofmeasure.org",
        "code": "mg/dL"
      },
      "interpretation": [ {
        "coding": [ {
          "system": "http://terminology.hl7.org/CodeSystem/v3-ObservationInterpretation",
          "code": "N"
        } ]
      } ],
      "referenceRange": [ {
        "text": "<130 mg/dL (calc)"
      } ]
    }
  }, {
    "resource": {
      "resourceType": "Observation",
      "id": "2bbf3239-bddc-41dc-92c5-bfaa8fdd2cc4",
      "identifier": [ {
        "use": "official",
        "value": "107c2dc0-67a5-11db-bd13-0800200c9a66"
      } ],
      "status": "final",
      "category": [ {
        "coding": [ {
          "system": "http://terminology.hl7.org/CodeSystem/observation-category",
          "code": "laboratory"
        } ]
      } ],
      "code": {
        "coding": [ {
          "system": "http://loinc.org",
          "code": "2093-3",
          "display": "Cholest SerPl-mCnc"
        }, {
          "system": "http://www.ama-assn.org/go/cpt",
          "code": "82465",
          "display": "Assay, bld/serum cholesterol"
        }, {
          "system": "http://snomed.info/sct",
          "code": "121868005",
          "display": "Total cholesterol measurement"
        } ]
      },
      "subject": {
        "reference": "Patient/aacff95a-b83e-4cbf-a3ba-fe8f4796f7bb",
        "display": "Erin Ortega"
      },
      "effectivePeriod": {
        "start": "2010-04-18T10:00:00+02:00"
      },
      "valueQuantity": {
        "value": 134,
        "unit": "mg/dL",
        "system": "http://unitsofmeasure.org",
        "code": "mg/dL"
      },
      "interpretation": [ {
        "coding": [ {
          "system": "http://terminology.hl7.org/CodeSystem/v3-ObservationInterpretation",
          "code": "N"
        } ]
      } ],
      "referenceRange": [ {
        "text": "125-200 mg/dL"
      } ]
    }
  }, {
    "resource": {
      "resourceType": "Observation",
      "id": "d6b850a9-06ea-4c6a-9017-3cd6c8934006",
      "identifier": [ {
        "use": "official",
        "value": "107c2dc0-67a5-11db-bd13-0800200c9a66"
      } ],
      "status": "final",
      "category": [ {
        "coding": [ {
          "system": "http://terminology.hl7.org/CodeSystem/observation-category",
          "code": "laboratory"
        } ]
      } ],
      "code": {
        "coding": [ {
          "system": "http://loinc.org",
          "code": "12951-0",
          "display": "Trigl SerPl Calc-mCnc"
        }, {
          "system": "http://www.ama-assn.org/go/cpt",
          "code": "84478",
          "display": "Assay of triglycerides"
        }, {
          "system": "http://snomed.info/sct",
          "code": "14740000",
          "display": "Triglycerides measurement"
        } ]
      },
      "subject": {
        "reference": "Patient/aacff95a-b83e-4cbf-a3ba-fe8f4796f7bb",
        "display": "Erin Ortega"
      },
      "effectivePeriod": {
        "start": "2010-04-18T10:00:00+02:00"
      },
      "valueQuantity": {
        "value": 127,
        "unit": "mg/dL",
        "system": "http://unitsofmeasure.org",
        "code": "mg/dL"
      },
      "interpretation": [ {
        "coding": [ {
          "system": "http://terminology.hl7.org/CodeSystem/v3-ObservationInterpretation",
          "code": "N"
        } ]
      } ],
      "referenceRange": [ {
        "text": "10-39 years: 55-110 mg/dL | 40-59 years: 70-150 mg/dL | >60 years: 80-150 mg/dL | Therapeutic Target: <100 mg/dL "
      } ]
    }
  }, {
    "resource": {
      "resourceType": "DiagnosticReport",
      "id": "4908b723-3d0e-43bd-8871-80ce4c3dfde0",
      "identifier": [ {
        "use": "official",
        "value": "7d5a02b0-67a4-11db-bd13-0800200c9a66"
      } ],
      "status": "final",
      "category": [ {
        "coding": [ {
          "system": "http://terminology.hl7.org/CodeSystem/v2-0074",
          "code": "LAB",
          "display": "Laboratory"
        } ]
      } ],
      "code": {
        "coding": [ {
          "system": "http://snomed.info/sct",
          "code": "166312007",
          "display": "Blood Chemistry"
        } ]
      },
      "subject": {
        "reference": "Patient/aacff95a-b83e-4cbf-a3ba-fe8f4796f7bb",
        "display": "Erin Ortega"
      },
      "result": [ {
        "reference": "Observation/bc0ce0f1-5164-4bd9-bb23-c6b9da164d25",
        "display": "Hgb A1c MFr Bld"
      } ]
    }
  }, {
    "resource": {
      "resourceType": "Observation",
      "id": "bc0ce0f1-5164-4bd9-bb23-c6b9da164d25",
      "identifier": [ {
        "use": "official",
        "value": "107c2dc0-67a5-11db-bd13-0800200c9a66"
      } ],
      "status": "final",
      "category": [ {
        "coding": [ {
          "system": "http://terminology.hl7.org/CodeSystem/observation-category",
          "code": "laboratory"
        } ]
      } ],
      "code": {
        "coding": [ {
          "system": "http://loinc.org",
          "code": "4548-4",
          "display": "Hgb A1c MFr Bld"
        }, {
          "system": "http://www.ama-assn.org/go/cpt",
          "code": "83036",
          "display": "Glycated hemoglobin test"
        }, {
          "system": "http://snomed.info/sct",
          "code": "43396009",
          "display": "Hemoglobin A1c measurement"
        } ]
      },
      "subject": {
        "reference": "Patient/aacff95a-b83e-4cbf-a3ba-fe8f4796f7bb",
        "display": "Erin Ortega"
      },
      "effectivePeriod": {
        "start": "2010-10-26T10:00:00+02:00"
      },
      "valueQuantity": {
        "value": 6.3,
        "unit": "%",
        "system": "http://unitsofmeasure.org",
        "code": "%"
      },
      "interpretation": [ {
        "coding": [ {
          "system": "http://terminology.hl7.org/CodeSystem/v3-ObservationInterpretation",
          "code": "N"
        } ]
      } ],
      "referenceRange": [ {
        "text": "4-5.6%"
      } ]
    }
  }, {
    "resource": {
      "resourceType": "Encounter",
      "id": "cf150f80-e622-4cda-8a20-e3a38f262ff6",
      "identifier": [ {
        "use": "official",
        "value": "2a620155-9d11-439e-92b3-5d9815ff4de8"
      } ],
      "status": "finished",
      "type": [ {
        "coding": [ {
          "system": "http://www.ama-assn.org/go/cpt",
          "code": "99213",
          "display": "Office/outpatient visit, est"
        }, {
          "system": "urn:oid:2.16.840.1.113883.6.103",
          "code": "V70.0",
          "display": "Routine general medical examination at a health care facility"
        } ]
      } ],
      "subject": {
        "reference": "Patient/aacff95a-b83e-4cbf-a3ba-fe8f4796f7bb",
        "display": "Erin Ortega"
      },
      "period": {
        "start": "2010-04-18T10:00:00+02:00"
      },
      "reasonCode": [ {
        "coding": [ {
          "system": "http://snomed.info/sct",
          "code": "44054006",
          "display": "Diabetes"
        } ]
      }, {
        "coding": [ {
          "system": "http://snomed.info/sct",
          "code": "59621000",
          "display": "Hypertension"
        } ]
      } ],
      "reasonReference": [ {
        "reference": "Condition/98503fb3-2244-4145-a8bc-00023320f552",
        "display": "Hypertension"
      }, {
        "reference": "Condition/3377ee20-a15c-4feb-9d7f-fff578f7e055",
        "display": "Diabetes"
      } ]
    }
  }, {
    "resource": {
      "resourceType": "Condition",
      "id": "98503fb3-2244-4145-a8bc-00023320f552",
      "identifier": [ {
        "use": "official",
        "system": "urn:uuid:db734647-fc99-424c-a864-7e3cda82e703",
        "value": "45665"
      } ],
      "clinicalStatus": {
        "coding": [ {
          "system": "http://terminology.hl7.org/CodeSystem/condition-clinical",
          "code": "active",
          "display": "Active"
        } ]
      },
      "category": [ {
        "coding": [ {
          "system": "http://hl7.org/fhir/condition-category",
          "code": "encounter-diagnosis",
          "display": "Encounter Diagnosis"
        } ]
      } ],
      "code": {
        "coding": [ {
          "system": "http://snomed.info/sct",
          "code": "59621000",
          "display": "Hypertension"
        }, {
          "system": "urn:oid:2.16.840.1.113883.6.90",
          "code": "I10",
          "display": "Essential (primary) hypertension"
        }, {
          "system": "urn:oid:2.16.840.1.113883.6.103",
          "code": "401.9",
          "display": "Unspecified essential hypertension"
        } ]
      },
      "subject": {
        "reference": "Patient/aacff95a-b83e-4cbf-a3ba-fe8f4796f7bb",
        "display": "Erin Ortega"
      },
      "onsetDateTime": "2010-04-18T10:00:00+02:00"
    }
  }, {
    "resource": {
      "resourceType": "Condition",
      "id": "3377ee20-a15c-4feb-9d7f-fff578f7e055",
      "identifier": [ {
        "use": "official",
        "system": "urn:uuid:db734647-fc99-424c-a864-7e3cda82e703",
        "value": "45665"
      } ],
      "clinicalStatus": {
        "coding": [ {
          "system": "http://terminology.hl7.org/CodeSystem/condition-clinical",
          "code": "active",
          "display": "Active"
        } ]
      },
      "category": [ {
        "coding": [ {
          "system": "http://hl7.org/fhir/condition-category",
          "code": "encounter-diagnosis",
          "display": "Encounter Diagnosis"
        } ]
      } ],
      "code": {
        "coding": [ {
          "system": "http://snomed.info/sct",
          "code": "44054006",
          "display": "Diabetes"
        }, {
          "system": "urn:oid:2.16.840.1.113883.6.90",
          "code": "E11.9",
          "display": "Type 2 diabetes mellitus without complications"
        }, {
          "system": "urn:oid:2.16.840.1.113883.6.103",
          "code": "250.00",
          "display": "Diabetes mellitus without mention of complication, type II or unspecified type, not stated as uncontrolled"
        } ]
      },
      "subject": {
        "reference": "Patient/aacff95a-b83e-4cbf-a3ba-fe8f4796f7bb",
        "display": "Erin Ortega"
      },
      "onsetDateTime": "2010-04-18T10:00:00+02:00"
    }
  }, {
    "resource": {
      "resourceType": "Encounter",
      "id": "d644e48a-4919-4a8d-b67f-749a365c253a",
      "identifier": [ {
        "use": "official",
        "value": "2a620155-9d11-439e-92b3-5d9815ff4de8"
      } ],
      "status": "finished",
      "type": [ {
        "coding": [ {
          "system": "http://www.ama-assn.org/go/cpt",
          "code": "99251",
          "display": "Initial inpatient consult"
        } ]
      } ],
      "subject": {
        "reference": "Patient/aacff95a-b83e-4cbf-a3ba-fe8f4796f7bb",
        "display": "Erin Ortega"
      },
      "period": {
        "start": "2009-12-18T10:00:00+01:00"
      },
      "reasonCode": [ {
        "coding": [ {
          "system": "http://snomed.info/sct",
          "code": "57054005",
          "display": "Acute myocardial infarction"
        } ]
      }, {
        "coding": [ {
          "system": "http://snomed.info/sct",
          "code": "57054005",
          "display": "Coronary Artery Disease includes MI"
        } ]
      } ],
      "reasonReference": [ {
        "reference": "Condition/3377ee20-a15c-4feb-9d7f-fff578f7e055",
        "display": "Diabetes"
      }, {
        "reference": "Condition/3377ee20-a15c-4feb-9d7f-fff578f7e055",
        "display": "Diabetes"
      } ]
    }
  }, {
    "resource": {
      "resourceType": "Encounter",
      "id": "b72f7d05-84eb-42f2-a5fd-f71cad1add69",
      "identifier": [ {
        "use": "official",
        "value": "2a620155-9d11-439e-92b3-5d9815ff4de8"
      } ],
      "status": "finished",
      "type": [ {
        "coding": [ {
          "system": "http://www.ama-assn.org/go/cpt",
          "code": "99238",
          "display": "Hospital discharge day"
        } ]
      } ],
      "subject": {
        "reference": "Patient/aacff95a-b83e-4cbf-a3ba-fe8f4796f7bb",
        "display": "Erin Ortega"
      },
      "period": {
        "start": "2009-12-18T10:00:00+01:00"
      },
      "reasonCode": [ {
        "coding": [ {
          "system": "http://snomed.info/sct",
          "code": "57054005",
          "display": "Acute myocardial infarction"
        } ]
      }, {
        "coding": [ {
          "system": "http://snomed.info/sct",
          "code": "57054005",
          "display": "Coronary Artery Disease includes MI"
        } ]
      } ],
      "reasonReference": [ {
        "reference": "Condition/3377ee20-a15c-4feb-9d7f-fff578f7e055",
        "display": "Diabetes"
      }, {
        "reference": "Condition/3377ee20-a15c-4feb-9d7f-fff578f7e055",
        "display": "Diabetes"
      } ]
    }
  }, {
    "resource": {
      "resourceType": "Encounter",
      "id": "a379cea1-651a-4453-9955-93f2e0911e6a",
      "identifier": [ {
        "use": "official",
        "value": "2a620155-9d11-439e-92b3-5d9815ff4de8"
      } ],
      "status": "finished",
      "type": [ {
        "coding": [ {
          "system": "http://www.ama-assn.org/go/cpt",
          "code": "99213",
          "display": "Office/outpatient visit, est"
        }, {
          "system": "urn:oid:2.16.840.1.113883.6.103",
          "code": "V70.0",
          "display": "Routine general medical examination at a health care facility"
        } ]
      } ],
      "subject": {
        "reference": "Patient/aacff95a-b83e-4cbf-a3ba-fe8f4796f7bb",
        "display": "Erin Ortega"
      },
      "period": {
        "start": "2010-10-26T10:00:00+02:00"
      }
    }
  }, {
    "resource": {
      "resourceType": "Encounter",
      "id": "0d86185c-5c55-48e4-9c79-90f25db6c9ee",
      "identifier": [ {
        "use": "official",
        "value": "2a620155-9d11-439e-92b3-5d9815ff4de8"
      } ],
      "status": "finished",
      "type": [ {
        "coding": [ {
          "system": "http://www.ama-assn.org/go/cpt",
          "code": "92012",
          "display": "Eye exam established pat"
        } ]
      } ],
      "subject": {
        "reference": "Patient/aacff95a-b83e-4cbf-a3ba-fe8f4796f7bb",
        "display": "Erin Ortega"
      },
      "period": {
        "start": "2011-02-16T10:00:00+01:00"
      }
    }
  }, {
    "resource": {
      "resourceType": "Encounter",
      "id": "5c8ff373-e986-426f-bef7-59f672068421",
      "identifier": [ {
        "use": "official",
        "value": "2a620155-9d11-439e-92b3-5d9815ff4de8"
      } ],
      "status": "finished",
      "type": [ {
        "coding": [ {
          "system": "http://www.ama-assn.org/go/cpt",
          "code": "92012",
          "display": "Eye exam established pat"
        } ]
      } ],
      "subject": {
        "reference": "Patient/aacff95a-b83e-4cbf-a3ba-fe8f4796f7bb",
        "display": "Erin Ortega"
      },
      "period": {
        "start": "2010-09-29T10:00:00+02:00"
      },
      "reasonCode": [ {
        "coding": [ {
          "system": "http://snomed.info/sct",
          "code": "312904009",
          "display": "Diabetic Retinopathy"
        } ]
      } ],
      "reasonReference": [ {
        "reference": "Condition/3377ee20-a15c-4feb-9d7f-fff578f7e055",
        "display": "Diabetes"
      } ]
    }
  }, {
    "resource": {
      "resourceType": "Observation",
      "id": "290905d7-94b9-400e-93ff-6c58eb403d22",
      "identifier": [ {
        "use": "official",
        "value": "c6f88321-67ad-11db-bd13-0800200c9a66"
      } ],
      "status": "final",
      "category": [ {
        "coding": [ {
          "system": "http://terminology.hl7.org/CodeSystem/observation-category",
          "code": "vital-signs",
          "display": "Vital Signs"
        } ]
      } ],
      "code": {
        "coding": [ {
          "system": "http://loinc.org",
          "code": "8480-6",
          "display": "BP Systolic"
        } ]
      },
      "subject": {
        "reference": "Patient/aacff95a-b83e-4cbf-a3ba-fe8f4796f7bb",
        "display": "Erin Ortega"
      },
      "effectivePeriod": {
        "start": "2010-04-18T10:00:00+02:00"
      },
      "valueQuantity": {
        "value": 155,
        "unit": "mm[Hg]",
        "system": "http://unitsofmeasure.org",
        "code": "mm[Hg]"
      }
    }
  }, {
    "resource": {
      "resourceType": "Observation",
      "id": "4dee3ee1-fde5-4a79-8e23-aef5fa82b987",
      "identifier": [ {
        "use": "official",
        "value": "c6f88321-67ad-11db-bd13-0800200c9a66"
      } ],
      "status": "final",
      "category": [ {
        "coding": [ {
          "system": "http://terminology.hl7.org/CodeSystem/observation-category",
          "code": "vital-signs",
          "display": "Vital Signs"
        } ]
      } ],
      "code": {
        "coding": [ {
          "system": "http://loinc.org",
          "code": "39156-5",
          "display": "BMI"
        } ]
      },
      "subject": {
        "reference": "Patient/aacff95a-b83e-4cbf-a3ba-fe8f4796f7bb",
        "display": "Erin Ortega"
      },
      "effectivePeriod": {
        "start": "2010-04-18T10:00:00+02:00"
      },
      "valueQuantity": {
        "value": 23.4,
        "unit": "kg/m2",
        "system": "http://unitsofmeasure.org",
        "code": "kg/m2"
      }
    }
  }, {
    "resource": {
      "resourceType": "Observation",
      "id": "78a72e8e-336d-4dc7-bb76-6abdf59d079c",
      "identifier": [ {
        "use": "official",
        "value": "c6f88321-67ad-11db-bd13-0800200c9a66"
      } ],
      "status": "final",
      "category": [ {
        "coding": [ {
          "system": "http://terminology.hl7.org/CodeSystem/observation-category",
          "code": "vital-signs",
          "display": "Vital Signs"
        } ]
      } ],
      "code": {
        "coding": [ {
          "system": "http://loinc.org",
          "code": "8462-4",
          "display": "BP Diastolic"
        } ]
      },
      "subject": {
        "reference": "Patient/aacff95a-b83e-4cbf-a3ba-fe8f4796f7bb",
        "display": "Erin Ortega"
      },
      "effectivePeriod": {
        "start": "2010-04-18T10:00:00+02:00"
      },
      "valueQuantity": {
        "value": 96,
        "unit": "mm[Hg]",
        "system": "http://unitsofmeasure.org",
        "code": "mm[Hg]"
      }
    }
  }, {
    "resource": {
      "resourceType": "Observation",
      "id": "e3fbe80b-eaaf-41d7-9fc9-4e5fcbf175c7",
      "identifier": [ {
        "use": "official",
        "value": "c6f88321-67ad-11db-bd13-0800200c9a66"
      } ],
      "status": "final",
      "category": [ {
        "coding": [ {
          "system": "http://terminology.hl7.org/CodeSystem/observation-category",
          "code": "vital-signs",
          "display": "Vital Signs"
        } ]
      } ],
      "code": {
        "coding": [ {
          "system": "http://loinc.org",
          "code": "8462-4",
          "display": "BP Diastolic"
        } ]
      },
      "subject": {
        "reference": "Patient/aacff95a-b83e-4cbf-a3ba-fe8f4796f7bb",
        "display": "Erin Ortega"
      },
      "effectivePeriod": {
        "start": "2010-10-26T10:00:00+02:00"
      },
      "valueQuantity": {
        "value": 92,
        "unit": "mm[Hg]",
        "system": "http://unitsofmeasure.org",
        "code": "mm[Hg]"
      }
    }
  }, {
    "resource": {
      "resourceType": "Observation",
      "id": "e9a4141c-2cbc-4fce-aeed-333eb313b334",
      "identifier": [ {
        "use": "official",
        "value": "c6f88321-67ad-11db-bd13-0800200c9a66"
      } ],
      "status": "final",
      "category": [ {
        "coding": [ {
          "system": "http://terminology.hl7.org/CodeSystem/observation-category",
          "code": "vital-signs",
          "display": "Vital Signs"
        } ]
      } ],
      "code": {
        "coding": [ {
          "system": "http://loinc.org",
          "code": "8480-6",
          "display": "BP Systolic"
        } ]
      },
      "subject": {
        "reference": "Patient/aacff95a-b83e-4cbf-a3ba-fe8f4796f7bb",
        "display": "Erin Ortega"
      },
      "effectivePeriod": {
        "start": "2010-10-26T10:00:00+02:00"
      },
      "valueQuantity": {
        "value": 148,
        "unit": "mm[Hg]",
        "system": "http://unitsofmeasure.org",
        "code": "mm[Hg]"
      }
    }
  }, {
    "resource": {
      "resourceType": "Observation",
      "id": "48502bf0-3a20-45c8-8521-35b00e1eb4e9",
      "identifier": [ {
        "use": "official",
        "value": "c6f88321-67ad-11db-bd13-0800200c9a66"
      } ],
      "status": "final",
      "category": [ {
        "coding": [ {
          "system": "http://terminology.hl7.org/CodeSystem/observation-category",
          "code": "vital-signs",
          "display": "Vital Signs"
        } ]
      } ],
      "code": {
        "coding": [ {
          "system": "http://loinc.org",
          "code": "39156-5",
          "display": "BMI"
        } ]
      },
      "subject": {
        "reference": "Patient/aacff95a-b83e-4cbf-a3ba-fe8f4796f7bb",
        "display": "Erin Ortega"
      },
      "effectivePeriod": {
        "start": "2010-10-26T10:00:00+02:00"
      },
      "valueQuantity": {
        "value": 24.2,
        "unit": "kg/m2",
        "system": "http://unitsofmeasure.org",
        "code": "kg/m2"
      }
    }
  } ]
}