{
  "resourceType": "Bundle",
  "entry": [ {
    "resource": {
      "resourceType": "Composition",
      "id": "eb3d9856-8b28-4f66-982e-3bc625cd41c4",
      "identifier": {
        "use": "official",
        "value": "db734647-fc99-424c-a864-7e3cda82e703"
      },
      "status": "preliminary",
      "type": {
        "coding": [ {
          "system": "http://loinc.org",
          "code": "34133-9",
          "display": "Summarization of Episode Note"
        } ]
      },
      "category": [ {
        "coding": [ {
          "system": "http://hl7.org/fhir/ValueSet/doc-classcodes",
          "code": "LP173421-7",
          "display": "Note"
        } ]
      } ],
      "subject": {
        "reference": "Patient/555ad57b-92b1-44d3-a256-abe7d77d8c2c",
        "display": "Patricia Lee"
      },
      "date": "2014-04-16T11:55:26+02:00",
      "author": [ {
        "reference": "Practitioner/2f7bac49-8975-43e2-846c-68c891c76c49",
        "display": "Henry Seven MD"
      } ],
      "title": "Community Health and Hospitals: Health Summary",
      "confidentiality": "N",
      "attester": [ {
        "mode": "legal",
        "time": "2013-04-18T09:00:00+05:00",
        "party": {
          "reference": "Practitioner/f965d334-c9d7-47a1-b3fa-c5e74b038451",
          "display": "Henry Seven"
        }
      }, {
        "mode": "professional",
        "time": "2014-04-16T11:55:26+02:00",
        "party": {
          "reference": "Practitioner/f965d334-c9d7-47a1-b3fa-c5e74b038451",
          "display": "Henry Seven"
        }
      } ],
      "custodian": {
        "reference": "Organization/ef8be3be-1a78-4183-9b0e-1dc1f110f60f",
        "display": "Community Health and Hospitals"
      },
      "event": [ {
        "period": {
          "start": "2010-05-13T10:00:00+02:00",
          "end": "2010-11-30T10:00:00+01:00"
        },
        "detail": [ {
          "reference": "Practitioner/ec8980b0-49a3-446f-b3e1-64c47a40eaeb",
          "display": "Henry Seven MD"
        } ]
      } ],
      "section": [ {
        "title": "Results",
        "code": {
          "coding": [ {
            "system": "http://loinc.org",
            "code": "30954-2",
            "display": "Results"
          } ]
        },
        "text": {
          "status": "additional",
          "div": "<div xmlns=\"http://www.w3.org/1999/xhtml\"><table><thead><tr><th>Group Description</th><th>Code System</th><th>Code</th><th>Code Description</th><th>Value</th><th>Unit</th><th>Reference Range</th><th>Date and Time</th><th>Status</th></tr></thead><tbody><tr><td>Pap Test</td><td>LOINC</td><td>10524-7</td><td><span/>Cyto Cervix</td><td>normal</td><td/><td>NA</td><td>09-07-2010 10:00:00</td><td>Completed</td></tr><tr><td/><td>CPT</td><td>88174</td><td>Cytopath, c/v auto, in fluid</td><td/><td/><td/><td/><td/></tr><tr><td/><td>HCPCS</td><td>G0147</td><td>Scr c/v cyto, automated sys</td><td/><td/><td/><td/><td/></tr><tr><td/><td>ICD-10-CM</td><td>Z12.4</td><td>Encounter for screening for malignant neoplasm of cervix</td><td/><td/><td/><td/><td/></tr><tr><td/><td>ICD-9-CM</td><td>V72.32</td><td>Encounter for Papanicolaou cervical smear to confirm findings of recent normal smear following initial abnormal smear</td><td/><td/><td/><td/><td/></tr><tr><td/><td>SNOMED-CT</td><td>440623000</td><td>Microscopic examination of cervical Papanicolaou smear</td><td/><td/><td/><td/><td/></tr></tbody></table></div>"
        },
        "mode": "snapshot",
        "entry": [ {
          "reference": "DiagnosticReport/36ec83ea-cdab-4f32-a7af-5cc31f0bccc0",
          "display": "Cytology"
        } ]
      }, {
        "title": "Procedures",
        "code": {
          "coding": [ {
            "system": "http://loinc.org",
            "code": "47519-4",
            "display": "HISTORY OF PROCEDURES"
          } ]
        },
        "text": {
          "status": "additional",
          "div": "<div xmlns=\"http://www.w3.org/1999/xhtml\"><table><thead><tr><th>Group Description</th><th>Code System</th><th>Code</th><th>Code Description</th><th>Date and Time</th><th>Status</th></tr></thead><tbody><tr><td>Asthma Symptom Assessment Tool</td><td>SNOMED-CT</td><td>401011001</td><td><span/>Peak expiratory flow rate monitoring using diary</td><td>05-13-2010 10:00:00</td><td>Performed</td></tr><tr><td>Counseling For Nutrition</td><td>CPT</td><td>97802</td><td><span/>Medical nutrition, indiv, in</td><td>05-13-2010 10:00:00</td><td>Performed</td></tr><tr><td/><td>HCPCS</td><td>S9470</td><td>Nutritional counseling, diet</td><td/><td/></tr><tr><td/><td>ICD-10-CM</td><td>Z00.8</td><td>Encounter for other general examination</td><td/><td/></tr><tr><td/><td>ICD-9-CM</td><td>V65.3</td><td>Dietary surveillance and counseling</td><td/><td/></tr><tr><td>Counseling For Physical Activity</td><td>HCPCS</td><td>S9451</td><td><span/>Exercise class</td><td>05-13-2010 10:00:00</td><td>Performed</td></tr><tr><td/><td>ICD-10-CM</td><td>Z71.3</td><td>Dietary counseling and surveillance</td><td/><td/></tr><tr><td/><td>ICD-9-CM</td><td>V65.41</td><td>Exercise counseling</td><td/><td/></tr></tbody></table></div>"
        },
        "mode": "snapshot"
      }, {
        "title": "Social History",
        "code": {
          "coding": [ {
            "system": "http://loinc.org",
            "code": "29762-2",
            "display": "Social History"
          } ]
        },
        "text": {
          "status": "additional",
          "div": "<div xmlns=\"http://www.w3.org/1999/xhtml\"><table><thead><tr><th>Group Description</th><th>Code System</th><th>Code</th><th>Code Description</th><th>Date and Time</th><th>Status</th></tr></thead><tbody><tr><td>Tobacco Use</td><td>SNOMED-CT</td><td>266919005</td><td><span/>Never smoker (Never Smoked)</td><td>05-13-2010 10:00:00</td><td>Active</td></tr><tr><td/><td>SNOMED-CT</td><td>449868002</td><td>Current every day smoker</td><td/><td/></tr></tbody></table></div>"
        },
        "mode": "snapshot",
        "entry": [ {
          "reference": "Observation/c6802a8c-abc9-4688-b2df-58bec8035b65"
        } ]
      }, {
        "title": "Medications",
        "code": {
          "coding": [ {
            "system": "http://loinc.org",
            "code": "10160-0",
            "display": "History of Medication Use"
          } ]
        },
        "text": {
          "status": "additional",
          "div": "<div xmlns=\"http://www.w3.org/1999/xhtml\"><table><thead><tr><th>Group Description</th><th>Code System</th><th>Code</th><th>Code Description</th><th>Date and Time</th><th>Status</th></tr></thead><tbody><tr><td>Long acting inhaled beta 2 agonist</td><td>RxNorm</td><td>318142</td><td><span/>salmeterol 0.05 MG/ACTUAT Inhalant Powder</td><td>05-13-2010 10:00:00</td><td>Active</td></tr><tr><td>Short acting beta 2 agonist</td><td>RxNorm</td><td>630208</td><td><span/>Albuterol 0.83 MG/ML Inhalant Solution</td><td>05-13-2010 10:00:00</td><td>Active</td></tr></tbody></table></div>"
        },
        "mode": "snapshot",
        "entry": [ {
          "reference": "MedicationStatement/837d1e8d-75e1-4b5f-b8b9-23da0073f980",
          "display": "Albuterol 0.83 MG/ML Inhalant Solution"
        }, {
          "reference": "MedicationStatement/1109fb5e-3680-49b2-8d32-88ca578fc418",
          "display": "salmeterol 0.05 MG/ACTUAT Inhalant Powder"
        } ]
      }, {
        "title": "Allergies,  Adverse Reactions & Alerts",
        "code": {
          "coding": [ {
            "system": "http://loinc.org",
            "code": "48765-2",
            "display": "Allergies, adverse reactions, alerts"
          } ]
        },
        "text": {
          "status": "additional",
          "div": "<div xmlns=\"http://www.w3.org/1999/xhtml\"><table><thead><tr><th>Group Description</th><th>Code System</th><th>Code</th><th>Code Description</th><th>Severity</th><th>Susceptibility</th><th>Date and Time</th><th>Status</th></tr></thead><tbody><tr><td>Allergy to Eggs</td><td>UNII</td><td>291P45F896</td><td><span/>Eggs</td><td><span/>Moderate to severe</td><td>Susceptible</td><td>05-13-2010 10:00:00</td><td>Active</td></tr><tr><td/><td>ICD-9-CM</td><td>V15.03</td><td>Allergy to eggs</td><td/><td/><td/><td/></tr><tr><td>Codeine</td><td>NDF-RT</td><td>N0000006691</td><td><span/>Codeine</td><td><span/>Severe</td><td>Moderately Susceptible</td><td>05-13-2010 10:00:00</td><td>Active</td></tr><tr><td>Neomycin</td><td>RxNorm</td><td>866041</td><td><span/>Neomycin Sulfate 500 MG</td><td><span/>Fatal</td><td>Very susceptible</td><td>05-13-2010 10:00:00</td><td>Active</td></tr></tbody></table></div>"
        },
        "mode": "snapshot",
        "entry": [ {
          "reference": "AllergyIntolerance/7090b7d7-caed-4fe7-803f-bbed63f9c266",
          "display": "Codeine + Codeine"
        }, {
          "reference": "AllergyIntolerance/0a50d90b-7087-4636-a4f1-5b45f2e6e261",
          "display": "Neomycin + Neomycin Sulfate 500 MG"
        }, {
          "reference": "AllergyIntolerance/3ca7a4c8-d91e-46dc-b8cf-827023b3ce00",
          "display": "Allergy to Eggs + Eggs"
        } ]
      }, {
        "title": "Problems",
        "code": {
          "coding": [ {
            "system": "http://loinc.org",
            "code": "11450-4",
            "display": "PROBLEM LIST"
          } ]
        },
        "text": {
          "status": "additional",
          "div": "<div xmlns=\"http://www.w3.org/1999/xhtml\"><table><thead><tr><th>Group Description</th><th>Code System</th><th>Code</th><th>Code Description</th><th>Date and Time</th><th>Status</th></tr></thead><tbody><tr><td>Asthma</td><td>SNOMED-CT</td><td>195979001</td><td><span/>Asthma unspecified</td><td>05-13-2010 10:00:00</td><td>Active</td></tr><tr><td/><td>ICD-10-CM</td><td>J45</td><td>Asthma</td><td/><td/></tr><tr><td/><td>ICD-9-CM</td><td>493.92</td><td>Asthma, unspecified type, with (acute) exacerbation</td><td/><td/></tr><tr><td>Asthma Daytime Symptoms Quantified</td><td>SNOMED-CT</td><td>370202007</td><td><span/>Asthma causes daytime symptoms 1 to 2 times per month</td><td>05-13-2010 10:00:00</td><td>Active</td></tr><tr><td>Asthma Nighttime Symptoms Quantified</td><td>SNOMED-CT</td><td>370205009</td><td><span/>Asthma causes night symptoms 1 to 2 times per month</td><td>05-13-2010 10:00:00</td><td>Active</td></tr><tr><td>Asthma Persistent</td><td>SNOMED-CT</td><td>427295004</td><td><span/>Moderate persistent asthma</td><td>05-13-2010 10:00:00</td><td>Active</td></tr><tr><td/><td>ICD-10-CM</td><td>J45.42</td><td>Moderate persistent asthma with status asthmaticus</td><td/><td/></tr><tr><td>Asthma Daytime Symptoms Quantified</td><td>SNOMED-CT</td><td>370202007</td><td><span/>Asthma causes daytime symptoms 1 to 2 times per month</td><td>11-30-2010 10:00:00</td><td>Active</td></tr><tr><td>Asthma Nighttime Symptoms Quantified</td><td>SNOMED-CT</td><td>370205009</td><td><span/>Asthma causes night symptoms 1 to 2 times per month</td><td>11-30-2010 10:00:00</td><td>Active</td></tr></tbody></table></div>"
        },
        "mode": "snapshot",
        "entry": [ {
          "reference": "Condition/c48bfa18-0c31-4b0b-b516-86b39964a6ca",
          "display": "Asthma causes daytime symptoms 1 to 2 times per month"
        } ]
      }, {
        "title": "Encounters",
        "code": {
          "coding": [ {
            "system": "http://loinc.org",
            "code": "46240-8",
            "display": "History of encounters"
          } ]
        },
        "text": {
          "status": "additional",
          "div": "<div xmlns=\"http://www.w3.org/1999/xhtml\"><table><thead><tr><th>Group Description</th><th>Code System</th><th>Code</th><th>Code Description</th><th>Date and Time</th><th>Status</th></tr></thead><tbody><tr><td>Encounter Office &amp; Outpatient Consult</td><td>CPT</td><td>99241</td><td><span/>Office consultation</td><td>05-13-2010 10:00:00</td><td>Performed</td></tr><tr><td>Encounter Ob/Gyn</td><td>ICD-9-CM</td><td>V72.31</td><td><span/>Routine gynecological examination</td><td>09-07-2010 10:00:00</td><td>Performed</td></tr><tr><td>Encounter Prev Med Services 18 and Older</td><td>CPT</td><td>99396</td><td><span/>Prev visit, est, age 40-64</td><td>10-12-2010 10:00:00</td><td>Performed</td></tr><tr><td>Encounter Office &amp; Outpatient Consult</td><td>CPT</td><td>99241</td><td><span/>Office consultation</td><td>11-30-2010 10:00:00</td><td>Performed</td></tr></tbody></table></div>"
        },
        "mode": "snapshot",
        "entry": [ {
          "reference": "Encounter/f219488c-26f3-4c07-95a9-8476b8c5b201",
          "display": "Office consultation"
        }, {
          "reference": "Encounter/4889c43f-e62f-4f3c-951f-8df55dc53543",
          "display": "Office consultation"
        }, {
          "reference": "Encounter/39f71db3-a42f-47e0-a5b6-6d2b8a1e464f",
          "display": "Prev visit, est, age 40-64"
        }, {
          "reference": "Encounter/83e6b197-1972-4fe5-bc82-49e302174a37",
          "display": "Routine gynecological examination"
        } ]
      }, {
        "title": "Vital Signs",
        "code": {
          "coding": [ {
            "system": "http://loinc.org",
            "code": "8716-3",
            "display": "Vital Signs"
          } ]
        },
        "text": {
          "status": "additional",
          "div": "<div xmlns=\"http://www.w3.org/1999/xhtml\"><table><thead><tr><th>Group Description</th><th>Code System</th><th>Code</th><th>Code Description</th><th>Value</th><th>Unit</th><th>Date and Time</th><th>Status</th></tr></thead><tbody><tr><td>BMI</td><td>LOINC</td><td>39156-5</td><td><span/>BMI</td><td>28.3</td><td>kg/m2</td><td>05-13-2010 10:00:00</td><td>Finding</td></tr><tr><td>Diastolic Blood Pressure</td><td>LOINC</td><td>8462-4</td><td><span/>BP Diastolic</td><td>72</td><td>mm[Hg]</td><td>05-13-2010 10:00:00</td><td>Finding</td></tr><tr><td>Heart Rate</td><td>LOINC</td><td>8867-4</td><td><span/>Heart Rate</td><td>84</td><td>/min</td><td>05-13-2010 10:00:00</td><td>Finding</td></tr><tr><td>Systolic Blood Pressure</td><td>LOINC</td><td>8480-6</td><td><span/>BP Systolic</td><td>112</td><td>mm[Hg]</td><td>05-13-2010 10:00:00</td><td>Finding</td></tr><tr><td>Diastolic Blood Pressure</td><td>LOINC</td><td>8462-4</td><td><span/>BP Diastolic</td><td>74</td><td>mm[Hg]</td><td>11-30-2010 10:00:00</td><td>Finding</td></tr><tr><td>Heart Rate</td><td>LOINC</td><td>8867-4</td><td><span/>Heart Rate</td><td>86</td><td>/min</td><td>11-30-2010 10:00:00</td><td>Finding</td></tr><tr><td>Systolic Blood Pressure</td><td>LOINC</td><td>8480-6</td><td><span/>BP Systolic</td><td>116</td><td>mm[Hg]</td><td>11-30-2010 10:00:00</td><td>Finding</td></tr></tbody></table></div>"
        },
        "mode": "snapshot",
        "entry": [ {
          "reference": "Observation/0e7adbb9-1c2b-4de5-bb15-966bd812c9a6",
          "display": "BP Diastolic"
        }, {
          "reference": "Observation/f063369b-cd5f-4e96-a3f6-1d65eee4263e",
          "display": "Heart Rate"
        }, {
          "reference": "Observation/6e05707e-b482-4b1a-8f2b-1e90a9c880bd",
          "display": "BP Systolic"
        }, {
          "reference": "Observation/91d1b1a0-4ea6-41e8-97f8-7d846229297b",
          "display": "BMI"
        }, {
          "reference": "Observation/b3966453-2d3a-4e69-935f-52d97429019a",
          "display": "Heart Rate"
        }, {
          "reference": "Observation/d6740122-a4fb-44f8-9801-a36ddaef295e",
          "display": "BP Systolic"
        }, {
          "reference": "Observation/7fa1b25a-986b-4879-8c15-25a2eb2cf710",
          "display": "BP Diastolic"
        } ]
      } ]
    }
  }, {
    "resource": {
      "resourceType": "Patient",
      "id": "555ad57b-92b1-44d3-a256-abe7d77d8c2c",
      "extension": [ {
        "url": "http://hl7.org/fhir/StructureDefinition/patient-religion",
        "valueCodeableConcept": {
          "coding": [ {
            "system": "urn:oid:2.16.840.1.113883.5.1076",
            "code": "1020",
            "display": "Hinduism"
          } ]
        }
      }, {
        "url": "http://hl7.org/fhir/us/core/StructureDefinition/us-core-race",
        "extension": [ {
          "url": "text",
          "valueString": "Black or African American"
        }, {
          "url": "ombCategory",
          "valueCoding": {
            "system": "urn:oid:2.16.840.1.113883.6.238",
            "code": "2054-5",
            "display": "Black or African American"
          }
        } ]
      }, {
        "url": "http://hl7.org/fhir/us/core/StructureDefinition/us-core-ethnicity",
        "extension": [ {
          "url": "text",
          "valueString": "Not Hispanic or Latino"
        }, {
          "url": "ombCategory",
          "valueCoding": {
            "system": "urn:oid:2.16.840.1.113883.6.238",
            "code": "2186-5",
            "display": "Not Hispanic or Latino"
          }
        } ]
      }, {
        "url": "http://hl7.org/fhir/StructureDefinition/patient-birthPlace",
        "valueAddress": {
          "city": "Hickory Hills",
          "state": "IL",
          "postalCode": "60457",
          "country": "US"
        }
      } ],
      "identifier": [ {
        "use": "official",
        "system": "urn:oid:2.16.840.1.113883.19.5.99999.2",
        "value": "998991"
      }, {
        "use": "official",
        "system": "urn:oid:2.16.840.1.113883.4.1",
        "value": "111-00-2330"
      } ],
      "name": [ {
        "use": "usual",
        "family": "Lee",
        "given": [ "Patricia" ]
      } ],
      "telecom": [ {
        "system": "phone",
        "value": "(512)936-0790",
        "use": "mobile"
      } ],
      "gender": "female",
      "birthDate": "1978-02-03",
      "address": [ {
        "use": "home",
        "line": [ "2002 Short Street" ],
        "city": "Austin",
        "state": "TX",
        "postalCode": "78759",
        "country": "US"
      } ],
      "maritalStatus": {
        "coding": [ {
          "system": "http://terminology.hl7.org/CodeSystem/v3-MaritalStatus",
          "code": "M",
          "display": "Married"
        } ]
      },
      "contact": [ {
        "relationship": [ {
          "coding": [ {
            "system": "http://terminology.hl7.org/CodeSystem/v2-0131",
            "code": "C",
            "display": "Emergency Contact"
          } ]
        } ],
        "name": {
          "family": "Seavey",
          "given": [ "Jeff" ],
          "prefix": [ "Mr." ]
        },
        "telecom": [ {
          "system": "phone",
          "value": "(207)288-3777",
          "use": "home"
        }, {
          "system": "email",
          "value": "JeffKSeavey@dayrep.com",
          "use": "work"
        } ],
        "address": {
          "use": "home",
          "line": [ "4854 Retreat Avenue" ],
          "city": "Bar Harbor",
          "state": "ME",
          "postalCode": "4609",
          "country": "US"
        }
      } ],
      "communication": [ {
        "language": {
          "coding": [ {
            "system": "urn:ietf:bcp:47",
            "code": "spa"
          } ]
        },
        "preferred": true
      } ],
      "managingOrganization": {
        "reference": "Organization/05f1fd9f-8fa3-465e-8d6d-ad4b178e3b23",
        "display": "Community Health and Hospitals"
      }
    }
  }, {
    "resource": {
      "resourceType": "Organization",
      "id": "05f1fd9f-8fa3-465e-8d6d-ad4b178e3b23",
      "identifier": [ {
        "use": "official",
        "value": "2.16.840.1.113883.4.6"
      } ],
      "name": "Community Health and Hospitals",
      "telecom": [ {
        "system": "phone",
        "value": " 555-555-5000",
        "use": "work"
      } ],
      "address": [ {
        "line": [ "1001 Village Avenue" ],
        "city": "Portland",
        "state": "OR",
        "postalCode": "99123",
        "country": "US"
      } ]
    }
  }, {
    "resource": {
      "resourceType": "Practitioner",
      "id": "2f7bac49-8975-43e2-846c-68c891c76c49",
      "identifier": [ {
        "use": "official",
        "system": "urn:oid:2.16.840.1.113883.4.6",
        "value": "99999999"
      } ],
      "name": [ {
        "family": "Seven",
        "given": [ "Henry" ],
        "suffix": [ "MD" ]
      } ],
      "telecom": [ {
        "system": "phone",
        "value": "555-555-1002",
        "use": "work"
      } ],
      "address": [ {
        "line": [ "1002 Healthcare Drive" ],
        "city": "Portland",
        "state": "OR",
        "postalCode": "99123",
        "country": "US"
      } ]
    }
  }, {
    "resource": {
      "resourceType": "Practitioner",
      "id": "f965d334-c9d7-47a1-b3fa-c5e74b038451",
      "identifier": [ {
        "use": "official",
        "system": "http://hl7.org/fhir/sid/us-npi",
        "value": "999999999"
      } ],
      "name": [ {
        "family": "Seven",
        "given": [ "Henry" ]
      } ],
      "telecom": [ {
        "system": "phone",
        "value": "555-555-1002",
        "use": "work"
      } ],
      "address": [ {
        "line": [ "1001 Village Avenue" ],
        "city": "Portland",
        "state": "OR",
        "postalCode": "99123",
        "country": "US"
      } ]
    }
  }, {
    "resource": {
      "resourceType": "Practitioner",
      "id": "ec8980b0-49a3-446f-b3e1-64c47a40eaeb",
      "identifier": [ {
        "use": "official",
        "system": "http://hl7.org/fhir/sid/us-npi",
        "value": "PseudoMD-1"
      } ],
      "name": [ {
        "family": "Seven",
        "given": [ "Henry" ],
        "suffix": [ "MD" ]
      } ],
      "telecom": [ {
        "system": "phone",
        "value": "+1-555-555-5000",
        "use": "home"
      } ],
      "address": [ {
        "line": [ "1001 Village Avenue" ],
        "city": "Portland",
        "state": "OR",
        "postalCode": "99123",
        "country": "US"
      } ]
    }
  }, {
    "resource": {
      "resourceType": "Organization",
      "id": "ef8be3be-1a78-4183-9b0e-1dc1f110f60f",
      "identifier": [ {
        "use": "official",
        "system": "urn:oid:2.16.840.1.113883.4.6",
        "value": "99999999"
      } ],
      "name": "Community Health and Hospitals",
      "telecom": [ {
        "system": "phone",
        "value": " 555-555-1002",
        "use": "work"
      } ],
      "address": [ {
        "use": "work",
        "line": [ "1002 Healthcare Drive" ],
        "city": "Portland",
        "state": "OR",
        "postalCode": "99123",
        "country": "US"
      } ]
    }
  }, {
    "resource": {
      "resourceType": "DiagnosticReport",
      "id": "36ec83ea-cdab-4f32-a7af-5cc31f0bccc0",
      "identifier": [ {
        "use": "official",
        "value": "7d5a02b0-67a4-11db-bd13-0800200c9a66"
      } ],
      "status": "final",
      "category": [ {
        "coding": [ {
          "system": "http://terminology.hl7.org/CodeSystem/v2-0074",
          "code": "LAB",
          "display": "Laboratory"
        } ]
      } ],
      "code": {
        "coding": [ {
          "system": "http://snomed.info/sct",
          "code": "116147009",
          "display": "Cytology"
        } ]
      },
      "subject": {
        "reference": "Patient/555ad57b-92b1-44d3-a256-abe7d77d8c2c",
        "display": "Patricia Lee"
      },
      "result": [ {
        "reference": "Observation/d3a25912-a663-40ca-aca3-1eb673daa799",
        "display": "Cyto Cervix"
      } ]
    }
  }, {
    "resource": {
      "resourceType": "Observation",
      "id": "d3a25912-a663-40ca-aca3-1eb673daa799",
      "identifier": [ {
        "use": "official",
        "value": "107c2dc0-67a5-11db-bd13-0800200c9a66"
      } ],
      "status": "final",
      "category": [ {
        "coding": [ {
          "system": "http://terminology.hl7.org/CodeSystem/observation-category",
          "code": "laboratory"
        } ]
      } ],
      "code": {
        "coding": [ {
          "system": "http://loinc.org",
          "code": "10524-7",
          "display": "Cyto Cervix"
        }, {
          "system": "http://www.ama-assn.org/go/cpt",
          "code": "88174",
          "display": "Cytopath, c/v auto, in fluid"
        }, {
          "system": "urn:oid:2.16.840.1.113883.6.13",
          "code": "G0147",
          "display": "Scr c/v cyto, automated sys"
        }, {
          "system": "urn:oid:2.16.840.1.113883.6.90",
          "code": "Z12.4",
          "display": "Encounter for screening for malignant neoplasm of cervix"
        }, {
          "system": "urn:oid:2.16.840.1.113883.6.103",
          "code": "V72.32",
          "display": "Encounter for Papanicolaou cervical smear to confirm findings of recent normal smear following initial abnormal smear"
        }, {
          "system": "http://snomed.info/sct",
          "code": "440623000",
          "display": "Microscopic examination of cervical Papanicolaou smear"
        } ]
      },
      "subject": {
        "reference": "Patient/555ad57b-92b1-44d3-a256-abe7d77d8c2c",
        "display": "Patricia Lee"
      },
      "effectivePeriod": {
        "start": "2010-09-07T10:00:00+02:00"
      },
      "valueCodeableConcept": {
        "coding": [ {
          "system": "http://snomed.info/sct",
          "code": "17621005",
          "display": "normal"
        } ]
      },
      "interpretation": [ {
        "coding": [ {
          "system": "http://terminology.hl7.org/CodeSystem/v3-ObservationInterpretation",
          "code": "N"
        } ]
      } ],
      "referenceRange": [ {
        "text": "NA"
      } ]
    }
  }, {
    "resource": {
      "resourceType": "Observation",
      "id": "c6802a8c-abc9-4688-b2df-58bec8035b65",
      "identifier": [ {
        "use": "official",
        "system": "urn:oid:2.16.840.1.113883.19",
        "value": "123456789"
      } ],
      "status": "final",
      "code": {
        "coding": [ {
          "system": "urn:oid:2.16.840.1.113883.5.4",
          "code": "ASSERTION"
        } ]
      },
      "subject": {
        "reference": "Patient/555ad57b-92b1-44d3-a256-abe7d77d8c2c",
        "display": "Patricia Lee"
      },
      "effectivePeriod": {
        "start": "2010-05-13T10:00:00+02:00"
      },
      "valueCodeableConcept": {
        "coding": [ {
          "system": "http://snomed.info/sct",
          "code": "266919005",
          "display": "Never smoker (Never Smoked)"
        }, {
          "system": "http://snomed.info/sct",
          "code": "449868002",
          "display": "Current every day smoker"
        } ]
      }
    }
  }, {
    "resource": {
      "resourceType": "MedicationStatement",
      "id": "837d1e8d-75e1-4b5f-b8b9-23da0073f980",
      "extension": [ {
        "url": "http://hl7.org/fhir/3.0/StructureDefinition/extension-MedicationStatement.status",
        "valueCode": "UNKNOWN"
      } ],
      "identifier": [ {
        "use": "official",
        "value": "cdbd33f0-6cde-11db-9fe1-0800200c9a66"
      } ],
      "status": "completed",
      "medicationReference": {
        "reference": "Medication/ea87c30e-bfb5-421f-9601-cc7061cf75b8",
        "display": "Albuterol 0.83 MG/ML Inhalant Solution"
      },
      "subject": {
        "reference": "Patient/555ad57b-92b1-44d3-a256-abe7d77d8c2c",
        "display": "Patricia Lee"
      },
      "effectivePeriod": {
        "start": "2010-05-13T10:00:00+02:00"
      }
    }
  }, {
    "resource": {
      "resourceType": "Medication",
      "id": "ea87c30e-bfb5-421f-9601-cc7061cf75b8",
      "code": {
        "coding": [ {
          "system": "http://www.nlm.nih.gov/research/umls/rxnorm",
          "code": "630208",
          "display": "Albuterol 0.83 MG/ML Inhalant Solution"
        } ]
      }
    }
  }, {
    "resource": {
      "resourceType": "MedicationStatement",
      "id": "1109fb5e-3680-49b2-8d32-88ca578fc418",
      "extension": [ {
        "url": "http://hl7.org/fhir/3.0/StructureDefinition/extension-MedicationStatement.status",
        "valueCode": "UNKNOWN"
      } ],
      "identifier": [ {
        "use": "official",
        "value": "cdbd33f0-6cde-11db-9fe1-0800200c9a66"
      } ],
      "status": "completed",
      "medicationReference": {
        "reference": "Medication/72943780-9b1c-40e8-9405-b724de6460d8",
        "display": "salmeterol 0.05 MG/ACTUAT Inhalant Powder"
      },
      "subject": {
        "reference": "Patient/555ad57b-92b1-44d3-a256-abe7d77d8c2c",
        "display": "Patricia Lee"
      },
      "effectivePeriod": {
        "start": "2010-05-13T10:00:00+02:00"
      }
    }
  }, {
    "resource": {
      "resourceType": "Medication",
      "id": "72943780-9b1c-40e8-9405-b724de6460d8",
      "code": {
        "coding": [ {
          "system": "http://www.nlm.nih.gov/research/umls/rxnorm",
          "code": "318142",
          "display": "salmeterol 0.05 MG/ACTUAT Inhalant Powder"
        } ]
      }
    }
  }, {
    "resource": {
      "resourceType": "AllergyIntolerance",
      "id": "7090b7d7-caed-4fe7-803f-bbed63f9c266",
      "identifier": [ {
        "use": "official",
        "value": "36e3e930-7b14-11db-9fe1-0800200c9a66"
      } ],
      "clinicalStatus": {
        "coding": [ {
          "system": "http://terminology.hl7.org/CodeSystem/allergyintolerance-clinical",
          "code": "active",
          "display": "Active"
        } ]
      },
      "verificationStatus": {
        "coding": [ {
          "system": "http://terminology.hl7.org/CodeSystem/allergyintolerance-verification",
          "code": "confirmed",
          "display": "Confirmed"
        } ]
      },
      "type": "allergy",
      "category": [ "medication" ],
      "code": {
        "coding": [ {
          "system": "urn:oid:2.16.840.1.113883.3.26.1.5",
          "code": "N0000006691",
          "display": "Codeine"
        } ],
        "text": "Codeine + Codeine"
      },
      "patient": {
        "reference": "Patient/555ad57b-92b1-44d3-a256-abe7d77d8c2c",
        "display": "Patricia Lee"
      },
      "recordedDate": "2010-05-13T10:00:00+02:00"
    }
  }, {
    "resource": {
      "resourceType": "AllergyIntolerance",
      "id": "0a50d90b-7087-4636-a4f1-5b45f2e6e261",
      "identifier": [ {
        "use": "official",
        "value": "36e3e930-7b14-11db-9fe1-0800200c9a66"
      } ],
      "clinicalStatus": {
        "coding": [ {
          "system": "http://terminology.hl7.org/CodeSystem/allergyintolerance-clinical",
          "code": "active",
          "display": "Active"
        } ]
      },
      "verificationStatus": {
        "coding": [ {
          "system": "http://terminology.hl7.org/CodeSystem/allergyintolerance-verification",
          "code": "confirmed",
          "display": "Confirmed"
        } ]
      },
      "type": "allergy",
      "category": [ "medication" ],
      "code": {
        "coding": [ {
          "system": "http://www.nlm.nih.gov/research/umls/rxnorm",
          "code": "866041",
          "display": "Neomycin Sulfate 500 MG"
        } ],
        "text": "Neomycin + Neomycin Sulfate 500 MG"
      },
      "patient": {
        "reference": "Patient/555ad57b-92b1-44d3-a256-abe7d77d8c2c",
        "display": "Patricia Lee"
      },
      "recordedDate": "2010-05-13T10:00:00+02:00"
    }
  }, {
    "resource": {
      "resourceType": "AllergyIntolerance",
      "id": "3ca7a4c8-d91e-46dc-b8cf-827023b3ce00",
      "identifier": [ {
        "use": "official",
        "value": "36e3e930-7b14-11db-9fe1-0800200c9a66"
      } ],
      "clinicalStatus": {
        "coding": [ {
          "system": "http://terminology.hl7.org/CodeSystem/allergyintolerance-clinical",
          "code": "active",
          "display": "Active"
        } ]
      },
      "verificationStatus": {
        "coding": [ {
          "system": "http://terminology.hl7.org/CodeSystem/allergyintolerance-verification",
          "code": "confirmed",
          "display": "Confirmed"
        } ]
      },
      "type": "allergy",
      "category": [ "food" ],
      "code": {
        "coding": [ {
          "system": "http://fdasis.nlm.nih.gov",
          "code": "291P45F896",
          "display": "Eggs"
        }, {
          "system": "urn:oid:2.16.840.1.113883.6.103",
          "code": "V15.03",
          "display": "Allergy to eggs"
        } ],
        "text": "Allergy to Eggs + Eggs"
      },
      "patient": {
        "reference": "Patient/555ad57b-92b1-44d3-a256-abe7d77d8c2c",
        "display": "Patricia Lee"
      },
      "recordedDate": "2010-05-13T10:00:00+02:00"
    }
  }, {
    "resource": {
      "resourceType": "Condition",
      "id": "c48bfa18-0c31-4b0b-b516-86b39964a6ca",
      "identifier": [ {
        "use": "official",
        "value": "9d3d416d-45ab-4da1-912f-4583e0632000"
      } ],
      "clinicalStatus": {
        "coding": [ {
          "system": "http://terminology.hl7.org/CodeSystem/condition-clinical",
          "code": "active",
          "display": "Active"
        } ]
      },
      "verificationStatus": {
        "coding": [ {
          "system": "http://terminology.hl7.org/CodeSystem/condition-ver-status",
          "code": "confirmed",
          "display": "Confirmed"
        } ]
      },
      "category": [ {
        "coding": [ {
          "system": "http://terminology.hl7.org/CodeSystem/condition-category",
          "code": "problem-list-item",
          "display": "Problem List Item"
        } ]
      } ],
      "code": {
        "coding": [ {
          "system": "http://snomed.info/sct",
          "code": "370202007",
          "display": "Asthma causes daytime symptoms 1 to 2 times per month"
        } ]
      },
      "subject": {
        "reference": "Patient/555ad57b-92b1-44d3-a256-abe7d77d8c2c",
        "display": "Patricia Lee"
      },
      "onsetDateTime": "2010-05-13T10:00:00+02:00"
    }
  }, {
    "resource": {
      "resourceType": "Encounter",
      "id": "f219488c-26f3-4c07-95a9-8476b8c5b201",
      "identifier": [ {
        "use": "official",
        "value": "2a620155-9d11-439e-92b3-5d9815ff4de8"
      } ],
      "status": "finished",
      "type": [ {
        "coding": [ {
          "system": "http://www.ama-assn.org/go/cpt",
          "code": "99241",
          "display": "Office consultation"
        } ]
      } ],
      "subject": {
        "reference": "Patient/555ad57b-92b1-44d3-a256-abe7d77d8c2c",
        "display": "Patricia Lee"
      },
      "period": {
        "start": "2010-11-30T10:00:00+01:00"
      },
      "reasonCode": [ {
        "coding": [ {
          "system": "http://snomed.info/sct",
          "code": "370202007",
          "display": "Asthma Daytime Symptoms Quantified"
        } ]
      }, {
        "coding": [ {
          "system": "http://snomed.info/sct",
          "code": "370205009",
          "display": "Asthma Nighttime Symptoms Quantified"
        } ]
      } ],
      "reasonReference": [ {
        "reference": "Condition/1b441424-7898-471a-981e-c47520636142",
        "display": "Asthma Nighttime Symptoms Quantified"
      }, {
        "reference": "Condition/40060587-846e-4fee-8fdc-58bab30c4315",
        "display": "Asthma Daytime Symptoms Quantified"
      } ]
    }
  }, {
    "resource": {
      "resourceType": "Condition",
      "id": "1b441424-7898-471a-981e-c47520636142",
      "identifier": [ {
        "use": "official",
        "system": "urn:uuid:db734647-fc99-424c-a864-7e3cda82e703",
        "value": "45665"
      } ],
      "clinicalStatus": {
        "coding": [ {
          "system": "http://terminology.hl7.org/CodeSystem/condition-clinical",
          "code": "active",
          "display": "Active"
        } ]
      },
      "category": [ {
        "coding": [ {
          "system": "http://hl7.org/fhir/condition-category",
          "code": "encounter-diagnosis",
          "display": "Encounter Diagnosis"
        } ]
      } ],
      "code": {
        "coding": [ {
          "system": "http://snomed.info/sct",
          "code": "370205009",
          "display": "Asthma Nighttime Symptoms Quantified"
        } ]
      },
      "subject": {
        "reference": "Patient/555ad57b-92b1-44d3-a256-abe7d77d8c2c",
        "display": "Patricia Lee"
      },
      "onsetDateTime": "2010-11-30T10:00:00+01:00"
    }
  }, {
    "resource": {
      "resourceType": "Condition",
      "id": "40060587-846e-4fee-8fdc-58bab30c4315",
      "identifier": [ {
        "use": "official",
        "system": "urn:uuid:db734647-fc99-424c-a864-7e3cda82e703",
        "value": "45665"
      } ],
      "clinicalStatus": {
        "coding": [ {
          "system": "http://terminology.hl7.org/CodeSystem/condition-clinical",
          "code": "active",
          "display": "Active"
        } ]
      },
      "category": [ {
        "coding": [ {
          "system": "http://hl7.org/fhir/condition-category",
          "code": "encounter-diagnosis",
          "display": "Encounter Diagnosis"
        } ]
      } ],
      "code": {
        "coding": [ {
          "system": "http://snomed.info/sct",
          "code": "370202007",
          "display": "Asthma Daytime Symptoms Quantified"
        } ]
      },
      "subject": {
        "reference": "Patient/555ad57b-92b1-44d3-a256-abe7d77d8c2c",
        "display": "Patricia Lee"
      },
      "onsetDateTime": "2010-11-30T10:00:00+01:00"
    }
  }, {
    "resource": {
      "resourceType": "Encounter",
      "id": "4889c43f-e62f-4f3c-951f-8df55dc53543",
      "identifier": [ {
        "use": "official",
        "value": "2a620155-9d11-439e-92b3-5d9815ff4de8"
      } ],
      "status": "finished",
      "type": [ {
        "coding": [ {
          "system": "http://www.ama-assn.org/go/cpt",
          "code": "99241",
          "display": "Office consultation"
        } ]
      } ],
      "subject": {
        "reference": "Patient/555ad57b-92b1-44d3-a256-abe7d77d8c2c",
        "display": "Patricia Lee"
      },
      "period": {
        "start": "2010-05-13T10:00:00+02:00"
      },
      "reasonCode": [ {
        "coding": [ {
          "system": "http://snomed.info/sct",
          "code": "195979001",
          "display": "Asthma"
        } ]
      }, {
        "coding": [ {
          "system": "http://snomed.info/sct",
          "code": "370202007",
          "display": "Asthma Daytime Symptoms Quantified"
        } ]
      }, {
        "coding": [ {
          "system": "http://snomed.info/sct",
          "code": "370205009",
          "display": "Asthma Nighttime Symptoms Quantified"
        } ]
      }, {
        "coding": [ {
          "system": "http://snomed.info/sct",
          "code": "427295004",
          "display": "Asthma Persistent"
        } ]
      } ],
      "reasonReference": [ {
        "reference": "Condition/40060587-846e-4fee-8fdc-58bab30c4315",
        "display": "Asthma Daytime Symptoms Quantified"
      }, {
        "reference": "Condition/40060587-846e-4fee-8fdc-58bab30c4315",
        "display": "Asthma Daytime Symptoms Quantified"
      }, {
        "reference": "Condition/40060587-846e-4fee-8fdc-58bab30c4315",
        "display": "Asthma Daytime Symptoms Quantified"
      }, {
        "reference": "Condition/40060587-846e-4fee-8fdc-58bab30c4315",
        "display": "Asthma Daytime Symptoms Quantified"
      } ]
    }
  }, {
    "resource": {
      "resourceType": "Encounter",
      "id": "39f71db3-a42f-47e0-a5b6-6d2b8a1e464f",
      "identifier": [ {
        "use": "official",
        "value": "2a620155-9d11-439e-92b3-5d9815ff4de8"
      } ],
      "status": "finished",
      "type": [ {
        "coding": [ {
          "system": "http://www.ama-assn.org/go/cpt",
          "code": "99396",
          "display": "Prev visit, est, age 40-64"
        } ]
      } ],
      "subject": {
        "reference": "Patient/555ad57b-92b1-44d3-a256-abe7d77d8c2c",
        "display": "Patricia Lee"
      },
      "period": {
        "start": "2010-10-12T10:00:00+02:00"
      }
    }
  }, {
    "resource": {
      "resourceType": "Encounter",
      "id": "83e6b197-1972-4fe5-bc82-49e302174a37",
      "identifier": [ {
        "use": "official",
        "value": "2a620155-9d11-439e-92b3-5d9815ff4de8"
      } ],
      "status": "finished",
      "type": [ {
        "coding": [ {
          "system": "urn:oid:2.16.840.1.113883.6.103",
          "code": "V72.31",
          "display": "Routine gynecological examination"
        } ]
      } ],
      "subject": {
        "reference": "Patient/555ad57b-92b1-44d3-a256-abe7d77d8c2c",
        "display": "Patricia Lee"
      },
      "period": {
        "start": "2010-09-07T10:00:00+02:00"
      }
    }
  }, {
    "resource": {
      "resourceType": "Observation",
      "id": "0e7adbb9-1c2b-4de5-bb15-966bd812c9a6",
      "identifier": [ {
        "use": "official",
        "value": "c6f88321-67ad-11db-bd13-0800200c9a66"
      } ],
      "status": "final",
      "category": [ {
        "coding": [ {
          "system": "http://terminology.hl7.org/CodeSystem/observation-category",
          "code": "vital-signs",
          "display": "Vital Signs"
        } ]
      } ],
      "code": {
        "coding": [ {
          "system": "http://loinc.org",
          "code": "8462-4",
          "display": "BP Diastolic"
        } ]
      },
      "subject": {
        "reference": "Patient/555ad57b-92b1-44d3-a256-abe7d77d8c2c",
        "display": "Patricia Lee"
      },
      "effectivePeriod": {
        "start": "2010-11-30T10:00:00+01:00"
      },
      "valueQuantity": {
        "value": 74,
        "unit": "mm[Hg]",
        "system": "http://unitsofmeasure.org",
        "code": "mm[Hg]"
      }
    }
  }, {
    "resource": {
      "resourceType": "Observation",
      "id": "f063369b-cd5f-4e96-a3f6-1d65eee4263e",
      "identifier": [ {
        "use": "official",
        "value": "c6f88321-67ad-11db-bd13-0800200c9a66"
      } ],
      "status": "final",
      "category": [ {
        "coding": [ {
          "system": "http://terminology.hl7.org/CodeSystem/observation-category",
          "code": "vital-signs",
          "display": "Vital Signs"
        } ]
      } ],
      "code": {
        "coding": [ {
          "system": "http://loinc.org",
          "code": "8867-4",
          "display": "Heart Rate"
        } ]
      },
      "subject": {
        "reference": "Patient/555ad57b-92b1-44d3-a256-abe7d77d8c2c",
        "display": "Patricia Lee"
      },
      "effectivePeriod": {
        "start": "2010-11-30T10:00:00+01:00"
      },
      "valueQuantity": {
        "value": 86,
        "unit": "/min",
        "system": "http://unitsofmeasure.org",
        "code": "/min"
      }
    }
  }, {
    "resource": {
      "resourceType": "Observation",
      "id": "6e05707e-b482-4b1a-8f2b-1e90a9c880bd",
      "identifier": [ {
        "use": "official",
        "value": "c6f88321-67ad-11db-bd13-0800200c9a66"
      } ],
      "status": "final",
      "category": [ {
        "coding": [ {
          "system": "http://terminology.hl7.org/CodeSystem/observation-category",
          "code": "vital-signs",
          "display": "Vital Signs"
        } ]
      } ],
      "code": {
        "coding": [ {
          "system": "http://loinc.org",
          "code": "8480-6",
          "display": "BP Systolic"
        } ]
      },
      "subject": {
        "reference": "Patient/555ad57b-92b1-44d3-a256-abe7d77d8c2c",
        "display": "Patricia Lee"
      },
      "effectivePeriod": {
        "start": "2010-11-30T10:00:00+01:00"
      },
      "valueQuantity": {
        "value": 116,
        "unit": "mm[Hg]",
        "system": "http://unitsofmeasure.org",
        "code": "mm[Hg]"
      }
    }
  }, {
    "resource": {
      "resourceType": "Observation",
      "id": "91d1b1a0-4ea6-41e8-97f8-7d846229297b",
      "identifier": [ {
        "use": "official",
        "value": "c6f88321-67ad-11db-bd13-0800200c9a66"
      } ],
      "status": "final",
      "category": [ {
        "coding": [ {
          "system": "http://terminology.hl7.org/CodeSystem/observation-category",
          "code": "vital-signs",
          "display": "Vital Signs"
        } ]
      } ],
      "code": {
        "coding": [ {
          "system": "http://loinc.org",
          "code": "39156-5",
          "display": "BMI"
        } ]
      },
      "subject": {
        "reference": "Patient/555ad57b-92b1-44d3-a256-abe7d77d8c2c",
        "display": "Patricia Lee"
      },
      "effectivePeriod": {
        "start": "2010-05-13T10:00:00+02:00"
      },
      "valueQuantity": {
        "value": 28.3,
        "unit": "kg/m2",
        "system": "http://unitsofmeasure.org",
        "code": "kg/m2"
      }
    }
  }, {
    "resource": {
      "resourceType": "Observation",
      "id": "b3966453-2d3a-4e69-935f-52d97429019a",
      "identifier": [ {
        "use": "official",
        "value": "c6f88321-67ad-11db-bd13-0800200c9a66"
      } ],
      "status": "final",
      "category": [ {
        "coding": [ {
          "system": "http://terminology.hl7.org/CodeSystem/observation-category",
          "code": "vital-signs",
          "display": "Vital Signs"
        } ]
      } ],
      "code": {
        "coding": [ {
          "system": "http://loinc.org",
          "code": "8867-4",
          "display": "Heart Rate"
        } ]
      },
      "subject": {
        "reference": "Patient/555ad57b-92b1-44d3-a256-abe7d77d8c2c",
        "display": "Patricia Lee"
      },
      "effectivePeriod": {
        "start": "2010-05-13T10:00:00+02:00"
      },
      "valueQuantity": {
        "value": 84,
        "unit": "/min",
        "system": "http://unitsofmeasure.org",
        "code": "/min"
      }
    }
  }, {
    "resource": {
      "resourceType": "Observation",
      "id": "d6740122-a4fb-44f8-9801-a36ddaef295e",
      "identifier": [ {
        "use": "official",
        "value": "c6f88321-67ad-11db-bd13-0800200c9a66"
      } ],
      "status": "final",
      "category": [ {
        "coding": [ {
          "system": "http://terminology.hl7.org/CodeSystem/observation-category",
          "code": "vital-signs",
          "display": "Vital Signs"
        } ]
      } ],
      "code": {
        "coding": [ {
          "system": "http://loinc.org",
          "code": "8480-6",
          "display": "BP Systolic"
        } ]
      },
      "subject": {
        "reference": "Patient/555ad57b-92b1-44d3-a256-abe7d77d8c2c",
        "display": "Patricia Lee"
      },
      "effectivePeriod": {
        "start": "2010-05-13T10:00:00+02:00"
      },
      "valueQuantity": {
        "value": 112,
        "unit": "mm[Hg]",
        "system": "http://unitsofmeasure.org",
        "code": "mm[Hg]"
      }
    }
  }, {
    "resource": {
      "resourceType": "Observation",
      "id": "7fa1b25a-986b-4879-8c15-25a2eb2cf710",
      "identifier": [ {
        "use": "official",
        "value": "c6f88321-67ad-11db-bd13-0800200c9a66"
      } ],
      "status": "final",
      "category": [ {
        "coding": [ {
          "system": "http://terminology.hl7.org/CodeSystem/observation-category",
          "code": "vital-signs",
          "display": "Vital Signs"
        } ]
      } ],
      "code": {
        "coding": [ {
          "system": "http://loinc.org",
          "code": "8462-4",
          "display": "BP Diastolic"
        } ]
      },
      "subject": {
        "reference": "Patient/555ad57b-92b1-44d3-a256-abe7d77d8c2c",
        "display": "Patricia Lee"
      },
      "effectivePeriod": {
        "start": "2010-05-13T10:00:00+02:00"
      },
      "valueQuantity": {
        "value": 72,
        "unit": "mm[Hg]",
        "system": "http://unitsofmeasure.org",
        "code": "mm[Hg]"
      }
    }
  } ]
}