{
  "resourceType": "Bundle",
  "entry": [ {
    "resource": {
      "resourceType": "Composition",
      "id": "b9a41a66-aac8-42e6-8e10-513e1dbda78a",
      "identifier": {
        "use": "official",
        "value": "db734647-fc99-424c-a864-7e3cda82e703"
      },
      "status": "preliminary",
      "type": {
        "coding": [ {
          "system": "http://loinc.org",
          "code": "34133-9",
          "display": "Summarization of Episode Note"
        } ]
      },
      "category": [ {
        "coding": [ {
          "system": "http://hl7.org/fhir/ValueSet/doc-classcodes",
          "code": "LP173421-7",
          "display": "Note"
        } ]
      } ],
      "subject": {
        "reference": "Patient/5b821ae3-7413-4c6b-b64e-26950b1ea6fe",
        "display": "Antonio Greene"
      },
      "date": "2014-04-16T11:54:45+02:00",
      "author": [ {
        "reference": "Practitioner/ea1567a6-6458-4587-8cd6-fc981349c0de",
        "display": "Henry Seven MD"
      } ],
      "title": "Community Health and Hospitals: Health Summary",
      "confidentiality": "N",
      "attester": [ {
        "mode": "legal",
        "time": "2013-04-18T09:00:00+05:00",
        "party": {
          "reference": "Practitioner/b8d0ea1e-a9c7-4629-9695-9f9bfa31d008",
          "display": "Henry Seven"
        }
      }, {
        "mode": "professional",
        "time": "2014-04-16T11:54:45+02:00",
        "party": {
          "reference": "Practitioner/b8d0ea1e-a9c7-4629-9695-9f9bfa31d008",
          "display": "Henry Seven"
        }
      } ],
      "custodian": {
        "reference": "Organization/96e09602-76a2-42eb-9123-18f675602c1a",
        "display": "Community Health and Hospitals"
      },
      "event": [ {
        "period": {
          "start": "2009-10-09T10:00:00+02:00",
          "end": "2010-11-01T10:00:00+01:00"
        },
        "detail": [ {
          "reference": "Practitioner/c9491de3-c75f-44b7-b721-6f232c95a5c3",
          "display": "Henry Seven MD"
        } ]
      } ],
      "section": [ {
        "title": "Social History",
        "code": {
          "coding": [ {
            "system": "http://loinc.org",
            "code": "29762-2",
            "display": "Social History"
          } ]
        },
        "text": {
          "status": "additional",
          "div": "<div xmlns=\"http://www.w3.org/1999/xhtml\"><table><thead><tr><th>Group Description</th><th>Code System</th><th>Code</th><th>Code Description</th><th>Date and Time</th><th>Status</th></tr></thead><tbody><tr><td>Tobacco Use</td><td>SNOMED-CT</td><td>266919005</td><td><span/>Never smoker (Never Smoked)</td><td>04-06-2010 10:00:00</td><td>Active</td></tr><tr><td/><td>SNOMED-CT</td><td>449868002</td><td>Current every day smoker</td><td/><td/></tr></tbody></table></div>"
        },
        "mode": "snapshot",
        "entry": [ {
          "reference": "Observation/fe669116-3eb0-4e42-8f7a-520f9c96144e"
        } ]
      }, {
        "title": "Results",
        "code": {
          "coding": [ {
            "system": "http://loinc.org",
            "code": "30954-2",
            "display": "Results"
          } ]
        },
        "text": {
          "status": "additional",
          "div": "<div xmlns=\"http://www.w3.org/1999/xhtml\"><table><thead><tr><th>Group Description</th><th>Code System</th><th>Code</th><th>Code Description</th><th>Value</th><th>Unit</th><th>Reference Range</th><th>Date and Time</th><th>Status</th></tr></thead><tbody><tr><td>FOBT</td><td>LOINC</td><td>2335-8</td><td><span/>Hemoccult Stl Ql</td><td>negative</td><td/><td>NA</td><td>11-01-2010 10:00:00</td><td>Completed</td></tr><tr><td/><td>CPT</td><td>82274</td><td>Assay test for blood, fecal</td><td/><td/><td/><td/><td/></tr><tr><td/><td>HCPCS</td><td>G0328</td><td>Fecal blood scrn immunoassay</td><td/><td/><td/><td/><td/></tr><tr><td/><td>ICD-9-CM</td><td>V76.51</td><td>Special screening for malignant neoplasms of colon</td><td/><td/><td/><td/><td/></tr><tr><td/><td>SNOMED-CT</td><td>252156002</td><td>Occult blood screening</td><td/><td/><td/><td/><td/></tr></tbody></table></div>"
        },
        "mode": "snapshot",
        "entry": [ {
          "reference": "DiagnosticReport/6b1a93c6-74e5-435b-9010-1b8b6f8a9b86",
          "display": "FOBT"
        } ]
      }, {
        "title": "Allergies,  Adverse Reactions & Alerts",
        "code": {
          "coding": [ {
            "system": "http://loinc.org",
            "code": "48765-2",
            "display": "Allergies, adverse reactions, alerts"
          } ]
        },
        "text": {
          "status": "additional",
          "div": "<div xmlns=\"http://www.w3.org/1999/xhtml\"><table><thead><tr><th>Group Description</th><th>Code System</th><th>Code</th><th>Code Description</th><th>Severity</th><th>Susceptibility</th><th>Date and Time</th><th>Status</th></tr></thead><tbody><tr><td>Fosfomycin</td><td>RxNorm</td><td>808917</td><td><span/>Fosfomycin 33.3 MG/ML Oral Suspension</td><td><span/>Moderate</td><td>Very susceptible</td><td>10-09-2009 10:00:00</td><td>Active</td></tr></tbody></table></div>"
        },
        "mode": "snapshot",
        "entry": [ {
          "reference": "AllergyIntolerance/6578c024-9037-4874-84bd-041b3b7191f8",
          "display": "Fosfomycin + Fosfomycin 33.3 MG/ML Oral Suspension"
        } ]
      }, {
        "title": "Medications",
        "code": {
          "coding": [ {
            "system": "http://loinc.org",
            "code": "10160-0",
            "display": "History of Medication Use"
          } ]
        },
        "text": {
          "status": "additional",
          "div": "<div xmlns=\"http://www.w3.org/1999/xhtml\"><table><thead><tr><th>Group Description</th><th>Code System</th><th>Code</th><th>Code Description</th><th>Date and Time</th><th>Status</th></tr></thead><tbody><tr><td>Antihypertensive combinations</td><td>RxNorm</td><td>858828</td><td><span/>Enalapril Maleate 10 MG / Hydrochlorothiazide 25 MG Oral Tablet</td><td>04-06-2010 10:00:00</td><td>Active</td></tr><tr><td>Long acting inhaled beta 2 agonist</td><td>RxNorm</td><td>318142</td><td><span/>salmeterol 0.05 MG/ACTUAT Inhalant Powder</td><td>04-06-2010 10:00:00</td><td>Active</td></tr><tr><td>Short acting beta 2 agonist</td><td>RxNorm</td><td>630208</td><td><span/>Albuterol 0.83 MG/ML Inhalant Solution</td><td>04-06-2010 10:00:00</td><td>Active</td></tr><tr><td>Smoking Cessation Agents</td><td>RxNorm</td><td>1046847</td><td><span/>24 HR Nicotine 0.313 MG/HR Transdermal Patch</td><td>04-06-2010 10:00:00</td><td>Active</td></tr><tr><td>ACE inhibitor or ARB</td><td>RxNorm</td><td>314076</td><td><span/>Lisinopril 10 MG Oral Tablet</td><td>05-28-2010 10:00:00</td><td>Active</td></tr><tr><td>Beta Blocker Therapy</td><td>RxNorm</td><td>866924</td><td><span/>Metoprolol Tartrate 25 MG Oral Tablet</td><td>05-28-2010 10:00:00</td><td>Active</td></tr></tbody></table></div>"
        },
        "mode": "snapshot",
        "entry": [ {
          "reference": "MedicationStatement/1257ba6a-581b-4343-80e9-c35dd5c99ff7",
          "display": "Enalapril Maleate 10 MG / Hydrochlorothiazide 25 MG Oral Tablet"
        }, {
          "reference": "MedicationStatement/18b429be-5cc0-490b-8a5d-e49e39896158",
          "display": "Metoprolol Tartrate 25 MG Oral Tablet"
        }, {
          "reference": "MedicationStatement/07173599-e5f6-462b-a676-4ea226e10242",
          "display": "24 HR Nicotine 0.313 MG/HR Transdermal Patch"
        }, {
          "reference": "MedicationStatement/c29b9b51-d862-46c2-ac90-811486aa685e",
          "display": "Albuterol 0.83 MG/ML Inhalant Solution"
        }, {
          "reference": "MedicationStatement/f376c380-a361-4cb2-aec6-e7b77125671a",
          "display": "Lisinopril 10 MG Oral Tablet"
        }, {
          "reference": "MedicationStatement/49fce272-6295-4547-945b-23baffae89b7",
          "display": "salmeterol 0.05 MG/ACTUAT Inhalant Powder"
        } ]
      }, {
        "title": "Encounters",
        "code": {
          "coding": [ {
            "system": "http://loinc.org",
            "code": "46240-8",
            "display": "History of encounters"
          } ]
        },
        "text": {
          "status": "additional",
          "div": "<div xmlns=\"http://www.w3.org/1999/xhtml\"><table><thead><tr><th>Group Description</th><th>Code System</th><th>Code</th><th>Code Description</th><th>Date and Time</th><th>Status</th></tr></thead><tbody><tr><td>Encounter Office Visit</td><td>CPT</td><td>99212</td><td><span/>Office/outpatient visit, est</td><td>04-06-2010 10:00:00</td><td>Performed</td></tr><tr><td>Encounter Outpatient</td><td>CPT</td><td>99213</td><td><span/>Office/outpatient visit, est</td><td>05-28-2010 10:00:00</td><td>Performed</td></tr><tr><td/><td>ICD-9-CM</td><td>V70.0</td><td>Routine general medical examination at a health care facility</td><td/><td/></tr><tr><td>Encounter Office Visit</td><td>CPT</td><td>99212</td><td><span/>Office/outpatient visit, est</td><td>06-09-2010 10:00:00</td><td>Performed</td></tr><tr><td>Encounter Outpatient</td><td>CPT</td><td>99213</td><td><span/>Office/outpatient visit, est</td><td>09-09-2010 10:00:00</td><td>Performed</td></tr><tr><td/><td>ICD-9-CM</td><td>V70.0</td><td>Routine general medical examination at a health care facility</td><td/><td/></tr><tr><td>Encounter Outpatient</td><td>CPT</td><td>99213</td><td><span/>Office/outpatient visit, est</td><td>11-01-2010 10:00:00</td><td>Performed</td></tr><tr><td/><td>ICD-9-CM</td><td>V70.0</td><td>Routine general medical examination at a health care facility</td><td/><td/></tr></tbody></table></div>"
        },
        "mode": "snapshot",
        "entry": [ {
          "reference": "Encounter/2b23fea8-db17-4e0d-83e2-996e646bfe64",
          "display": "Office/outpatient visit, est"
        }, {
          "reference": "Encounter/97267cc7-d11d-4d72-adc7-07c6684e8722",
          "display": "Office/outpatient visit, est"
        }, {
          "reference": "Encounter/9c7c9807-14a4-4856-9cef-5460d3bdb486",
          "display": "Office/outpatient visit, est"
        }, {
          "reference": "Encounter/6abde62d-6c76-40a3-a56b-51fbdca199d9",
          "display": "Office/outpatient visit, est"
        }, {
          "reference": "Encounter/94af80da-4942-4d6c-9593-9b51d9df6bba",
          "display": "Office/outpatient visit, est"
        } ]
      }, {
        "title": "Problems",
        "code": {
          "coding": [ {
            "system": "http://loinc.org",
            "code": "11450-4",
            "display": "PROBLEM LIST"
          } ]
        },
        "text": {
          "status": "additional",
          "div": "<div xmlns=\"http://www.w3.org/1999/xhtml\"><table><thead><tr><th>Group Description</th><th>Code System</th><th>Code</th><th>Code Description</th><th>Date and Time</th><th>Status</th></tr></thead><tbody><tr><td>Asthma</td><td>SNOMED-CT</td><td>195979001</td><td><span/>Asthma unspecified</td><td>04-06-2010 10:00:00</td><td>Active</td></tr><tr><td/><td>ICD-10-CM</td><td>J45</td><td>Asthma</td><td/><td/></tr><tr><td/><td>ICD-9-CM</td><td>493.92</td><td>Asthma, unspecified type, with (acute) exacerbation</td><td/><td/></tr><tr><td>Asthma Daytime Symptoms Quantified</td><td>SNOMED-CT</td><td>370202007</td><td><span/>Asthma causes daytime symptoms 1 to 2 times per month</td><td>04-06-2010 10:00:00</td><td>Active</td></tr><tr><td>Asthma Nighttime Symptoms Quantified</td><td>SNOMED-CT</td><td>370205009</td><td><span/>Asthma causes night symptoms 1 to 2 times per month</td><td>04-06-2010 10:00:00</td><td>Active</td></tr><tr><td>Hypertension</td><td>SNOMED-CT</td><td>59621000</td><td><span/>Essential hypertension</td><td>04-06-2010 10:00:00</td><td>Active</td></tr><tr><td/><td>ICD-10-CM</td><td>I10</td><td>Essential (primary) hypertension</td><td/><td/></tr><tr><td/><td>ICD-9-CM</td><td>401.9</td><td>Unspecified essential hypertension</td><td/><td/></tr><tr><td>Heart Failure</td><td>SNOMED-CT</td><td>84114007</td><td><span/>Heart failure</td><td>05-28-2010 10:00:00</td><td>Active</td></tr><tr><td/><td>ICD-10-CM</td><td>I50.9</td><td>Heart failure, unspecified</td><td/><td/></tr><tr><td/><td>ICD-9-CM</td><td>428.9</td><td>Heart failure, unspecified</td><td/><td/></tr></tbody></table></div>"
        },
        "mode": "snapshot",
        "entry": [ {
          "reference": "Condition/cdec9052-76a7-424e-952b-a7738293557e",
          "display": "Asthma unspecified"
        } ]
      }, {
        "title": "Procedures",
        "code": {
          "coding": [ {
            "system": "http://loinc.org",
            "code": "47519-4",
            "display": "HISTORY OF PROCEDURES"
          } ]
        },
        "text": {
          "status": "additional",
          "div": "<div xmlns=\"http://www.w3.org/1999/xhtml\"><table><thead><tr><th>Group Description</th><th>Code System</th><th>Code</th><th>Code Description</th><th>Date and Time</th><th>Status</th></tr></thead><tbody><tr><td>Asthma Symptom Assessment Tool</td><td>SNOMED-CT</td><td>401011001</td><td><span/>Peak expiratory flow rate monitoring using diary</td><td>04-06-2010 10:00:00</td><td>Performed</td></tr><tr><td>Tobacco Use Cessation Counseling</td><td>CPT</td><td>99406</td><td><span/>Behav chng smoking 3-10 min</td><td>04-06-2010 10:00:00</td><td>Performed</td></tr><tr><td/><td>SNOMED-CT</td><td>384742004</td><td>Smoking cessation assistance</td><td/><td/></tr><tr><td>Ejection Fraction</td><td>SNOMED-CT</td><td>70822001</td><td><span/>Cardiac ejection fraction, function</td><td>05-28-2010 10:00:00</td><td>Performed</td></tr><tr><td>Tobacco Use Cessation Counseling</td><td>CPT</td><td>99406</td><td><span/>Behav chng smoking 3-10 min</td><td>09-09-2010 10:00:00</td><td>Performed</td></tr><tr><td/><td>SNOMED-CT</td><td>384742004</td><td>Smoking cessation assistance</td><td/><td/></tr><tr><td>dietary consultation order</td><td>SNOMED-CT</td><td>103699006</td><td><span/>Patient referral to dietitian</td><td>11-01-2010 10:00:00</td><td>Performed</td></tr></tbody></table></div>"
        },
        "mode": "snapshot"
      }, {
        "title": "Vital Signs",
        "code": {
          "coding": [ {
            "system": "http://loinc.org",
            "code": "8716-3",
            "display": "Vital Signs"
          } ]
        },
        "text": {
          "status": "additional",
          "div": "<div xmlns=\"http://www.w3.org/1999/xhtml\"><table><thead><tr><th>Group Description</th><th>Code System</th><th>Code</th><th>Code Description</th><th>Value</th><th>Unit</th><th>Date and Time</th><th>Status</th></tr></thead><tbody><tr><td>BMI</td><td>LOINC</td><td>39156-5</td><td><span/>BMI</td><td>29.2</td><td>kg/m2</td><td>04-06-2010 10:00:00</td><td>Finding</td></tr><tr><td>Diastolic Blood Pressure</td><td>LOINC</td><td>8462-4</td><td><span/>BP Diastolic</td><td>86</td><td>mm[Hg]</td><td>04-06-2010 10:00:00</td><td>Finding</td></tr><tr><td>Systolic Blood Pressure</td><td>LOINC</td><td>8480-6</td><td><span/>BP Systolic</td><td>134</td><td>mm[Hg]</td><td>04-06-2010 10:00:00</td><td>Finding</td></tr><tr><td>Diastolic Blood Pressure</td><td>LOINC</td><td>8462-4</td><td><span/>BP Diastolic</td><td>84</td><td>mm[Hg]</td><td>05-28-2010 10:00:00</td><td>Finding</td></tr><tr><td>Systolic Blood Pressure</td><td>LOINC</td><td>8480-6</td><td><span/>BP Systolic</td><td>132</td><td>mm[Hg]</td><td>05-28-2010 10:00:00</td><td>Finding</td></tr><tr><td>Diastolic Blood Pressure</td><td>LOINC</td><td>8462-4</td><td><span/>BP Diastolic</td><td>86</td><td>mm[Hg]</td><td>06-09-2010 10:00:00</td><td>Finding</td></tr><tr><td>Systolic Blood Pressure</td><td>LOINC</td><td>8480-6</td><td><span/>BP Systolic</td><td>134</td><td>mm[Hg]</td><td>06-09-2010 10:00:00</td><td>Finding</td></tr><tr><td>BMI</td><td>LOINC</td><td>39156-5</td><td><span/>BMI</td><td>28.8</td><td>kg/m2</td><td>09-09-2010 10:00:00</td><td>Finding</td></tr><tr><td>Diastolic Blood Pressure</td><td>LOINC</td><td>8462-4</td><td><span/>BP Diastolic</td><td>88</td><td>mm[Hg]</td><td>09-09-2010 10:00:00</td><td>Finding</td></tr><tr><td>Systolic Blood Pressure</td><td>LOINC</td><td>8480-6</td><td><span/>BP Systolic</td><td>136</td><td>mm[Hg]</td><td>09-09-2010 10:00:00</td><td>Finding</td></tr><tr><td>BMI</td><td>LOINC</td><td>39156-5</td><td><span/>BMI</td><td>29.5</td><td>kg/m2</td><td>11-01-2010 10:00:00</td><td>Finding</td></tr><tr><td>Diastolic Blood Pressure</td><td>LOINC</td><td>8462-4</td><td><span/>BP Diastolic</td><td>88</td><td>mm[Hg]</td><td>11-01-2010 10:00:00</td><td>Finding</td></tr><tr><td>Systolic Blood Pressure</td><td>LOINC</td><td>8480-6</td><td><span/>BP Systolic</td><td>134</td><td>mm[Hg]</td><td>11-01-2010 10:00:00</td><td>Finding</td></tr></tbody></table></div>"
        },
        "mode": "snapshot",
        "entry": [ {
          "reference": "Observation/2e28967d-fe35-484e-b2d4-9c286dd27362",
          "display": "BMI"
        }, {
          "reference": "Observation/6005ebaf-9138-46f4-b250-9075688306d1",
          "display": "BP Systolic"
        }, {
          "reference": "Observation/29430f28-27f4-41db-bf54-57c0b9267260",
          "display": "BP Diastolic"
        }, {
          "reference": "Observation/b1aaf924-1274-4144-97fd-f5bdaf8eac56",
          "display": "BP Systolic"
        }, {
          "reference": "Observation/4f1990f0-cb5f-4d0c-9eef-21864a942216",
          "display": "BMI"
        }, {
          "reference": "Observation/324915a4-4f04-456b-9617-88eb66765440",
          "display": "BP Diastolic"
        }, {
          "reference": "Observation/6391f9d2-fa3a-40f0-81ad-65c0b6fc3ed5",
          "display": "BP Systolic"
        }, {
          "reference": "Observation/23d3213b-a5ea-4576-b8fd-90e28b772f0e",
          "display": "BP Diastolic"
        }, {
          "reference": "Observation/7dacabfe-fb69-4443-ae52-cb31945537fb",
          "display": "BP Diastolic"
        }, {
          "reference": "Observation/49d88915-792e-42ad-8dad-198c79ffb546",
          "display": "BP Systolic"
        }, {
          "reference": "Observation/4e68476f-214d-4896-92f7-0767dea8924a",
          "display": "BP Diastolic"
        }, {
          "reference": "Observation/8fc3520c-366e-4ca6-8bf4-379719b4eec8",
          "display": "BMI"
        }, {
          "reference": "Observation/571ec48d-44e0-40b9-8ea1-3ab2112d6081",
          "display": "BP Systolic"
        } ]
      } ]
    }
  }, {
    "resource": {
      "resourceType": "Patient",
      "id": "5b821ae3-7413-4c6b-b64e-26950b1ea6fe",
      "extension": [ {
        "url": "http://hl7.org/fhir/StructureDefinition/patient-religion",
        "valueCodeableConcept": {
          "coding": [ {
            "system": "urn:oid:2.16.840.1.113883.5.1076",
            "code": "1007",
            "display": "Atheism"
          } ]
        }
      }, {
        "url": "http://hl7.org/fhir/us/core/StructureDefinition/us-core-race",
        "extension": [ {
          "url": "text",
          "valueString": "Other Race"
        }, {
          "url": "ombCategory",
          "valueCoding": {
            "system": "urn:oid:2.16.840.1.113883.6.238",
            "code": "2131-1",
            "display": "Other Race"
          }
        } ]
      }, {
        "url": "http://hl7.org/fhir/us/core/StructureDefinition/us-core-ethnicity",
        "extension": [ {
          "url": "text",
          "valueString": "Not Hispanic or Latino"
        }, {
          "url": "ombCategory",
          "valueCoding": {
            "system": "urn:oid:2.16.840.1.113883.6.238",
            "code": "2186-5",
            "display": "Not Hispanic or Latino"
          }
        } ]
      }, {
        "url": "http://hl7.org/fhir/StructureDefinition/patient-birthPlace",
        "valueAddress": {
          "city": "Birmingham",
          "state": "AL",
          "postalCode": "35209",
          "country": "US"
        }
      } ],
      "identifier": [ {
        "use": "official",
        "system": "urn:oid:2.16.840.1.113883.19.5.99999.2",
        "value": "998991"
      }, {
        "use": "official",
        "system": "urn:oid:2.16.840.1.113883.4.1",
        "value": "111-00-2330"
      } ],
      "name": [ {
        "use": "usual",
        "family": "Greene",
        "given": [ "Antonio" ]
      } ],
      "telecom": [ {
        "system": "phone",
        "value": "(501)837-0918",
        "use": "mobile"
      } ],
      "gender": "male",
      "birthDate": "1952-05-21",
      "address": [ {
        "use": "home",
        "line": [ "4369 Dawson Drive" ],
        "city": "Little Rock",
        "state": "AR",
        "postalCode": "72210",
        "country": "US"
      } ],
      "maritalStatus": {
        "coding": [ {
          "system": "http://terminology.hl7.org/CodeSystem/v3-MaritalStatus",
          "code": "M",
          "display": "Married"
        } ]
      },
      "contact": [ {
        "relationship": [ {
          "coding": [ {
            "system": "http://terminology.hl7.org/CodeSystem/v2-0131",
            "code": "C",
            "display": "Emergency Contact"
          } ]
        } ],
        "name": {
          "family": "Stroble",
          "given": [ "Joseph" ],
          "prefix": [ "Mr." ]
        },
        "telecom": [ {
          "system": "phone",
          "value": "(781)851-5840",
          "use": "home"
        }, {
          "system": "email",
          "value": "JosephEStroble@armyspy.com",
          "use": "work"
        } ],
        "address": {
          "use": "home",
          "line": [ "3305 Hillcrest Avenue" ],
          "city": "Waltham",
          "state": "MA",
          "postalCode": "2154",
          "country": "US"
        }
      } ],
      "communication": [ {
        "language": {
          "coding": [ {
            "system": "urn:ietf:bcp:47",
            "code": "spa"
          } ]
        },
        "preferred": true
      } ],
      "managingOrganization": {
        "reference": "Organization/a8413491-1a43-4344-b855-fc25fff2c0f2",
        "display": "Community Health and Hospitals"
      }
    }
  }, {
    "resource": {
      "resourceType": "Organization",
      "id": "a8413491-1a43-4344-b855-fc25fff2c0f2",
      "identifier": [ {
        "use": "official",
        "value": "2.16.840.1.113883.4.6"
      } ],
      "name": "Community Health and Hospitals",
      "telecom": [ {
        "system": "phone",
        "value": " 555-555-5000",
        "use": "work"
      } ],
      "address": [ {
        "line": [ "1001 Village Avenue" ],
        "city": "Portland",
        "state": "OR",
        "postalCode": "99123",
        "country": "US"
      } ]
    }
  }, {
    "resource": {
      "resourceType": "Practitioner",
      "id": "ea1567a6-6458-4587-8cd6-fc981349c0de",
      "identifier": [ {
        "use": "official",
        "system": "urn:oid:2.16.840.1.113883.4.6",
        "value": "99999999"
      } ],
      "name": [ {
        "family": "Seven",
        "given": [ "Henry" ],
        "suffix": [ "MD" ]
      } ],
      "telecom": [ {
        "system": "phone",
        "value": "555-555-1002",
        "use": "work"
      } ],
      "address": [ {
        "line": [ "1002 Healthcare Drive" ],
        "city": "Portland",
        "state": "OR",
        "postalCode": "99123",
        "country": "US"
      } ]
    }
  }, {
    "resource": {
      "resourceType": "Practitioner",
      "id": "b8d0ea1e-a9c7-4629-9695-9f9bfa31d008",
      "identifier": [ {
        "use": "official",
        "system": "http://hl7.org/fhir/sid/us-npi",
        "value": "999999999"
      } ],
      "name": [ {
        "family": "Seven",
        "given": [ "Henry" ]
      } ],
      "telecom": [ {
        "system": "phone",
        "value": "555-555-1002",
        "use": "work"
      } ],
      "address": [ {
        "line": [ "1001 Village Avenue" ],
        "city": "Portland",
        "state": "OR",
        "postalCode": "99123",
        "country": "US"
      } ]
    }
  }, {
    "resource": {
      "resourceType": "Practitioner",
      "id": "c9491de3-c75f-44b7-b721-6f232c95a5c3",
      "identifier": [ {
        "use": "official",
        "system": "http://hl7.org/fhir/sid/us-npi",
        "value": "PseudoMD-1"
      } ],
      "name": [ {
        "family": "Seven",
        "given": [ "Henry" ],
        "suffix": [ "MD" ]
      } ],
      "telecom": [ {
        "system": "phone",
        "value": "+1-555-555-5000",
        "use": "home"
      } ],
      "address": [ {
        "line": [ "1001 Village Avenue" ],
        "city": "Portland",
        "state": "OR",
        "postalCode": "99123",
        "country": "US"
      } ]
    }
  }, {
    "resource": {
      "resourceType": "Organization",
      "id": "96e09602-76a2-42eb-9123-18f675602c1a",
      "identifier": [ {
        "use": "official",
        "system": "urn:oid:2.16.840.1.113883.4.6",
        "value": "99999999"
      } ],
      "name": "Community Health and Hospitals",
      "telecom": [ {
        "system": "phone",
        "value": " 555-555-1002",
        "use": "work"
      } ],
      "address": [ {
        "use": "work",
        "line": [ "1002 Healthcare Drive" ],
        "city": "Portland",
        "state": "OR",
        "postalCode": "99123",
        "country": "US"
      } ]
    }
  }, {
    "resource": {
      "resourceType": "Observation",
      "id": "fe669116-3eb0-4e42-8f7a-520f9c96144e",
      "identifier": [ {
        "use": "official",
        "system": "urn:oid:2.16.840.1.113883.19",
        "value": "123456789"
      } ],
      "status": "final",
      "code": {
        "coding": [ {
          "system": "urn:oid:2.16.840.1.113883.5.4",
          "code": "ASSERTION"
        } ]
      },
      "subject": {
        "reference": "Patient/5b821ae3-7413-4c6b-b64e-26950b1ea6fe",
        "display": "Antonio Greene"
      },
      "effectivePeriod": {
        "start": "2010-04-06T10:00:00+02:00"
      },
      "valueCodeableConcept": {
        "coding": [ {
          "system": "http://snomed.info/sct",
          "code": "266919005",
          "display": "Never smoker (Never Smoked)"
        }, {
          "system": "http://snomed.info/sct",
          "code": "449868002",
          "display": "Current every day smoker"
        } ]
      }
    }
  }, {
    "resource": {
      "resourceType": "DiagnosticReport",
      "id": "6b1a93c6-74e5-435b-9010-1b8b6f8a9b86",
      "identifier": [ {
        "use": "official",
        "value": "7d5a02b0-67a4-11db-bd13-0800200c9a66"
      } ],
      "status": "final",
      "category": [ {
        "coding": [ {
          "system": "http://terminology.hl7.org/CodeSystem/v2-0074",
          "code": "LAB",
          "display": "Laboratory"
        } ]
      } ],
      "code": {
        "coding": [ {
          "system": "http://snomed.info/sct",
          "code": "167670005",
          "display": "FOBT"
        } ]
      },
      "subject": {
        "reference": "Patient/5b821ae3-7413-4c6b-b64e-26950b1ea6fe",
        "display": "Antonio Greene"
      },
      "result": [ {
        "reference": "Observation/525a84fe-8c51-4172-b43c-6f3289463ff0",
        "display": "Hemoccult Stl Ql"
      } ]
    }
  }, {
    "resource": {
      "resourceType": "Observation",
      "id": "525a84fe-8c51-4172-b43c-6f3289463ff0",
      "identifier": [ {
        "use": "official",
        "value": "107c2dc0-67a5-11db-bd13-0800200c9a66"
      } ],
      "status": "final",
      "category": [ {
        "coding": [ {
          "system": "http://terminology.hl7.org/CodeSystem/observation-category",
          "code": "laboratory"
        } ]
      } ],
      "code": {
        "coding": [ {
          "system": "http://loinc.org",
          "code": "2335-8",
          "display": "Hemoccult Stl Ql"
        }, {
          "system": "http://www.ama-assn.org/go/cpt",
          "code": "82274",
          "display": "Assay test for blood, fecal"
        }, {
          "system": "urn:oid:2.16.840.1.113883.6.13",
          "code": "G0328",
          "display": "Fecal blood scrn immunoassay"
        }, {
          "system": "urn:oid:2.16.840.1.113883.6.103",
          "code": "V76.51",
          "display": "Special screening for malignant neoplasms of colon"
        }, {
          "system": "http://snomed.info/sct",
          "code": "252156002",
          "display": "Occult blood screening"
        } ]
      },
      "subject": {
        "reference": "Patient/5b821ae3-7413-4c6b-b64e-26950b1ea6fe",
        "display": "Antonio Greene"
      },
      "effectivePeriod": {
        "start": "2010-11-01T10:00:00+01:00"
      },
      "valueCodeableConcept": {
        "coding": [ {
          "system": "http://snomed.info/sct",
          "code": "260385009",
          "display": "negative"
        } ]
      },
      "interpretation": [ {
        "coding": [ {
          "system": "http://terminology.hl7.org/CodeSystem/v3-ObservationInterpretation",
          "code": "N"
        } ]
      } ],
      "referenceRange": [ {
        "text": "NA"
      } ]
    }
  }, {
    "resource": {
      "resourceType": "AllergyIntolerance",
      "id": "6578c024-9037-4874-84bd-041b3b7191f8",
      "identifier": [ {
        "use": "official",
        "value": "36e3e930-7b14-11db-9fe1-0800200c9a66"
      } ],
      "clinicalStatus": {
        "coding": [ {
          "system": "http://terminology.hl7.org/CodeSystem/allergyintolerance-clinical",
          "code": "active",
          "display": "Active"
        } ]
      },
      "verificationStatus": {
        "coding": [ {
          "system": "http://terminology.hl7.org/CodeSystem/allergyintolerance-verification",
          "code": "confirmed",
          "display": "Confirmed"
        } ]
      },
      "type": "allergy",
      "category": [ "medication" ],
      "code": {
        "coding": [ {
          "system": "http://www.nlm.nih.gov/research/umls/rxnorm",
          "code": "808917",
          "display": "Fosfomycin 33.3 MG/ML Oral Suspension"
        } ],
        "text": "Fosfomycin + Fosfomycin 33.3 MG/ML Oral Suspension"
      },
      "patient": {
        "reference": "Patient/5b821ae3-7413-4c6b-b64e-26950b1ea6fe",
        "display": "Antonio Greene"
      },
      "recordedDate": "2009-10-09T10:00:00+02:00"
    }
  }, {
    "resource": {
      "resourceType": "MedicationStatement",
      "id": "1257ba6a-581b-4343-80e9-c35dd5c99ff7",
      "extension": [ {
        "url": "http://hl7.org/fhir/3.0/StructureDefinition/extension-MedicationStatement.status",
        "valueCode": "UNKNOWN"
      } ],
      "identifier": [ {
        "use": "official",
        "value": "cdbd33f0-6cde-11db-9fe1-0800200c9a66"
      } ],
      "status": "completed",
      "medicationReference": {
        "reference": "Medication/2600ff91-50f4-431e-87e9-19d6475d44ba",
        "display": "Enalapril Maleate 10 MG / Hydrochlorothiazide 25 MG Oral Tablet"
      },
      "subject": {
        "reference": "Patient/5b821ae3-7413-4c6b-b64e-26950b1ea6fe",
        "display": "Antonio Greene"
      },
      "effectivePeriod": {
        "start": "2010-04-06T10:00:00+02:00"
      }
    }
  }, {
    "resource": {
      "resourceType": "Medication",
      "id": "2600ff91-50f4-431e-87e9-19d6475d44ba",
      "code": {
        "coding": [ {
          "system": "http://www.nlm.nih.gov/research/umls/rxnorm",
          "code": "858828",
          "display": "Enalapril Maleate 10 MG / Hydrochlorothiazide 25 MG Oral Tablet"
        } ]
      }
    }
  }, {
    "resource": {
      "resourceType": "MedicationStatement",
      "id": "18b429be-5cc0-490b-8a5d-e49e39896158",
      "extension": [ {
        "url": "http://hl7.org/fhir/3.0/StructureDefinition/extension-MedicationStatement.status",
        "valueCode": "UNKNOWN"
      } ],
      "identifier": [ {
        "use": "official",
        "value": "cdbd33f0-6cde-11db-9fe1-0800200c9a66"
      } ],
      "status": "completed",
      "medicationReference": {
        "reference": "Medication/7c149990-6804-4f64-b844-6af51bbbbe56",
        "display": "Metoprolol Tartrate 25 MG Oral Tablet"
      },
      "subject": {
        "reference": "Patient/5b821ae3-7413-4c6b-b64e-26950b1ea6fe",
        "display": "Antonio Greene"
      },
      "effectivePeriod": {
        "start": "2010-05-28T10:00:00+02:00"
      }
    }
  }, {
    "resource": {
      "resourceType": "Medication",
      "id": "7c149990-6804-4f64-b844-6af51bbbbe56",
      "code": {
        "coding": [ {
          "system": "http://www.nlm.nih.gov/research/umls/rxnorm",
          "code": "866924",
          "display": "Metoprolol Tartrate 25 MG Oral Tablet"
        } ]
      }
    }
  }, {
    "resource": {
      "resourceType": "MedicationStatement",
      "id": "07173599-e5f6-462b-a676-4ea226e10242",
      "extension": [ {
        "url": "http://hl7.org/fhir/3.0/StructureDefinition/extension-MedicationStatement.status",
        "valueCode": "UNKNOWN"
      } ],
      "identifier": [ {
        "use": "official",
        "value": "cdbd33f0-6cde-11db-9fe1-0800200c9a66"
      } ],
      "status": "completed",
      "medicationReference": {
        "reference": "Medication/900af7bb-ef9b-4daf-9cb7-00121b1ea60b",
        "display": "24 HR Nicotine 0.313 MG/HR Transdermal Patch"
      },
      "subject": {
        "reference": "Patient/5b821ae3-7413-4c6b-b64e-26950b1ea6fe",
        "display": "Antonio Greene"
      },
      "effectivePeriod": {
        "start": "2010-04-06T10:00:00+02:00"
      }
    }
  }, {
    "resource": {
      "resourceType": "Medication",
      "id": "900af7bb-ef9b-4daf-9cb7-00121b1ea60b",
      "code": {
        "coding": [ {
          "system": "http://www.nlm.nih.gov/research/umls/rxnorm",
          "code": "1046847",
          "display": "24 HR Nicotine 0.313 MG/HR Transdermal Patch"
        } ]
      }
    }
  }, {
    "resource": {
      "resourceType": "MedicationStatement",
      "id": "c29b9b51-d862-46c2-ac90-811486aa685e",
      "extension": [ {
        "url": "http://hl7.org/fhir/3.0/StructureDefinition/extension-MedicationStatement.status",
        "valueCode": "UNKNOWN"
      } ],
      "identifier": [ {
        "use": "official",
        "value": "cdbd33f0-6cde-11db-9fe1-0800200c9a66"
      } ],
      "status": "completed",
      "medicationReference": {
        "reference": "Medication/1df0c7e6-a158-498b-b6a8-056a6362221a",
        "display": "Albuterol 0.83 MG/ML Inhalant Solution"
      },
      "subject": {
        "reference": "Patient/5b821ae3-7413-4c6b-b64e-26950b1ea6fe",
        "display": "Antonio Greene"
      },
      "effectivePeriod": {
        "start": "2010-04-06T10:00:00+02:00"
      }
    }
  }, {
    "resource": {
      "resourceType": "Medication",
      "id": "1df0c7e6-a158-498b-b6a8-056a6362221a",
      "code": {
        "coding": [ {
          "system": "http://www.nlm.nih.gov/research/umls/rxnorm",
          "code": "630208",
          "display": "Albuterol 0.83 MG/ML Inhalant Solution"
        } ]
      }
    }
  }, {
    "resource": {
      "resourceType": "MedicationStatement",
      "id": "f376c380-a361-4cb2-aec6-e7b77125671a",
      "extension": [ {
        "url": "http://hl7.org/fhir/3.0/StructureDefinition/extension-MedicationStatement.status",
        "valueCode": "UNKNOWN"
      } ],
      "identifier": [ {
        "use": "official",
        "value": "cdbd33f0-6cde-11db-9fe1-0800200c9a66"
      } ],
      "status": "completed",
      "medicationReference": {
        "reference": "Medication/067bb90d-af86-4934-aa4e-ac1fde1aecb8",
        "display": "Lisinopril 10 MG Oral Tablet"
      },
      "subject": {
        "reference": "Patient/5b821ae3-7413-4c6b-b64e-26950b1ea6fe",
        "display": "Antonio Greene"
      },
      "effectivePeriod": {
        "start": "2010-05-28T10:00:00+02:00"
      }
    }
  }, {
    "resource": {
      "resourceType": "Medication",
      "id": "067bb90d-af86-4934-aa4e-ac1fde1aecb8",
      "code": {
        "coding": [ {
          "system": "http://www.nlm.nih.gov/research/umls/rxnorm",
          "code": "314076",
          "display": "Lisinopril 10 MG Oral Tablet"
        } ]
      }
    }
  }, {
    "resource": {
      "resourceType": "MedicationStatement",
      "id": "49fce272-6295-4547-945b-23baffae89b7",
      "extension": [ {
        "url": "http://hl7.org/fhir/3.0/StructureDefinition/extension-MedicationStatement.status",
        "valueCode": "UNKNOWN"
      } ],
      "identifier": [ {
        "use": "official",
        "value": "cdbd33f0-6cde-11db-9fe1-0800200c9a66"
      } ],
      "status": "completed",
      "medicationReference": {
        "reference": "Medication/2bf8ac31-fca6-4c47-ab98-893b99092e82",
        "display": "salmeterol 0.05 MG/ACTUAT Inhalant Powder"
      },
      "subject": {
        "reference": "Patient/5b821ae3-7413-4c6b-b64e-26950b1ea6fe",
        "display": "Antonio Greene"
      },
      "effectivePeriod": {
        "start": "2010-04-06T10:00:00+02:00"
      }
    }
  }, {
    "resource": {
      "resourceType": "Medication",
      "id": "2bf8ac31-fca6-4c47-ab98-893b99092e82",
      "code": {
        "coding": [ {
          "system": "http://www.nlm.nih.gov/research/umls/rxnorm",
          "code": "318142",
          "display": "salmeterol 0.05 MG/ACTUAT Inhalant Powder"
        } ]
      }
    }
  }, {
    "resource": {
      "resourceType": "Encounter",
      "id": "2b23fea8-db17-4e0d-83e2-996e646bfe64",
      "identifier": [ {
        "use": "official",
        "value": "2a620155-9d11-439e-92b3-5d9815ff4de8"
      } ],
      "status": "finished",
      "type": [ {
        "coding": [ {
          "system": "http://www.ama-assn.org/go/cpt",
          "code": "99212",
          "display": "Office/outpatient visit, est"
        } ]
      } ],
      "subject": {
        "reference": "Patient/5b821ae3-7413-4c6b-b64e-26950b1ea6fe",
        "display": "Antonio Greene"
      },
      "period": {
        "start": "2010-04-06T10:00:00+02:00"
      },
      "reasonCode": [ {
        "coding": [ {
          "system": "http://snomed.info/sct",
          "code": "195979001",
          "display": "Asthma"
        } ]
      }, {
        "coding": [ {
          "system": "http://snomed.info/sct",
          "code": "370202007",
          "display": "Asthma Daytime Symptoms Quantified"
        } ]
      }, {
        "coding": [ {
          "system": "http://snomed.info/sct",
          "code": "370205009",
          "display": "Asthma Nighttime Symptoms Quantified"
        } ]
      }, {
        "coding": [ {
          "system": "http://snomed.info/sct",
          "code": "59621000",
          "display": "Hypertension"
        } ]
      } ],
      "reasonReference": [ {
        "reference": "Condition/0a2a62fe-e575-412b-9a0f-2bf2e5ef7693",
        "display": "Hypertension"
      }, {
        "reference": "Condition/570b4554-05d8-4c47-904a-529fa680ab34",
        "display": "Asthma Nighttime Symptoms Quantified"
      }, {
        "reference": "Condition/6b3d4dd7-5b4c-4530-a9db-012e0ef16350",
        "display": "Asthma"
      }, {
        "reference": "Condition/227e8d96-54ab-4b6e-a9b6-553a24d9b024",
        "display": "Asthma Daytime Symptoms Quantified"
      } ]
    }
  }, {
    "resource": {
      "resourceType": "Condition",
      "id": "0a2a62fe-e575-412b-9a0f-2bf2e5ef7693",
      "identifier": [ {
        "use": "official",
        "system": "urn:uuid:db734647-fc99-424c-a864-7e3cda82e703",
        "value": "45665"
      } ],
      "clinicalStatus": {
        "coding": [ {
          "system": "http://terminology.hl7.org/CodeSystem/condition-clinical",
          "code": "active",
          "display": "Active"
        } ]
      },
      "category": [ {
        "coding": [ {
          "system": "http://hl7.org/fhir/condition-category",
          "code": "encounter-diagnosis",
          "display": "Encounter Diagnosis"
        } ]
      } ],
      "code": {
        "coding": [ {
          "system": "http://snomed.info/sct",
          "code": "59621000",
          "display": "Hypertension"
        }, {
          "system": "urn:oid:2.16.840.1.113883.6.90",
          "code": "I10",
          "display": "Essential (primary) hypertension"
        }, {
          "system": "urn:oid:2.16.840.1.113883.6.103",
          "code": "401.9",
          "display": "Unspecified essential hypertension"
        } ]
      },
      "subject": {
        "reference": "Patient/5b821ae3-7413-4c6b-b64e-26950b1ea6fe",
        "display": "Antonio Greene"
      },
      "onsetDateTime": "2010-04-06T10:00:00+02:00"
    }
  }, {
    "resource": {
      "resourceType": "Condition",
      "id": "570b4554-05d8-4c47-904a-529fa680ab34",
      "identifier": [ {
        "use": "official",
        "system": "urn:uuid:db734647-fc99-424c-a864-7e3cda82e703",
        "value": "45665"
      } ],
      "clinicalStatus": {
        "coding": [ {
          "system": "http://terminology.hl7.org/CodeSystem/condition-clinical",
          "code": "active",
          "display": "Active"
        } ]
      },
      "category": [ {
        "coding": [ {
          "system": "http://hl7.org/fhir/condition-category",
          "code": "encounter-diagnosis",
          "display": "Encounter Diagnosis"
        } ]
      } ],
      "code": {
        "coding": [ {
          "system": "http://snomed.info/sct",
          "code": "370205009",
          "display": "Asthma Nighttime Symptoms Quantified"
        } ]
      },
      "subject": {
        "reference": "Patient/5b821ae3-7413-4c6b-b64e-26950b1ea6fe",
        "display": "Antonio Greene"
      },
      "onsetDateTime": "2010-04-06T10:00:00+02:00"
    }
  }, {
    "resource": {
      "resourceType": "Condition",
      "id": "6b3d4dd7-5b4c-4530-a9db-012e0ef16350",
      "identifier": [ {
        "use": "official",
        "system": "urn:uuid:db734647-fc99-424c-a864-7e3cda82e703",
        "value": "45665"
      } ],
      "clinicalStatus": {
        "coding": [ {
          "system": "http://terminology.hl7.org/CodeSystem/condition-clinical",
          "code": "active",
          "display": "Active"
        } ]
      },
      "category": [ {
        "coding": [ {
          "system": "http://hl7.org/fhir/condition-category",
          "code": "encounter-diagnosis",
          "display": "Encounter Diagnosis"
        } ]
      } ],
      "code": {
        "coding": [ {
          "system": "http://snomed.info/sct",
          "code": "195979001",
          "display": "Asthma"
        }, {
          "system": "urn:oid:2.16.840.1.113883.6.90",
          "code": "J45",
          "display": "Asthma"
        }, {
          "system": "urn:oid:2.16.840.1.113883.6.103",
          "code": "493.92",
          "display": "Asthma, unspecified type, with (acute) exacerbation"
        } ]
      },
      "subject": {
        "reference": "Patient/5b821ae3-7413-4c6b-b64e-26950b1ea6fe",
        "display": "Antonio Greene"
      },
      "onsetDateTime": "2010-04-06T10:00:00+02:00"
    }
  }, {
    "resource": {
      "resourceType": "Condition",
      "id": "227e8d96-54ab-4b6e-a9b6-553a24d9b024",
      "identifier": [ {
        "use": "official",
        "system": "urn:uuid:db734647-fc99-424c-a864-7e3cda82e703",
        "value": "45665"
      } ],
      "clinicalStatus": {
        "coding": [ {
          "system": "http://terminology.hl7.org/CodeSystem/condition-clinical",
          "code": "active",
          "display": "Active"
        } ]
      },
      "category": [ {
        "coding": [ {
          "system": "http://hl7.org/fhir/condition-category",
          "code": "encounter-diagnosis",
          "display": "Encounter Diagnosis"
        } ]
      } ],
      "code": {
        "coding": [ {
          "system": "http://snomed.info/sct",
          "code": "370202007",
          "display": "Asthma Daytime Symptoms Quantified"
        } ]
      },
      "subject": {
        "reference": "Patient/5b821ae3-7413-4c6b-b64e-26950b1ea6fe",
        "display": "Antonio Greene"
      },
      "onsetDateTime": "2010-04-06T10:00:00+02:00"
    }
  }, {
    "resource": {
      "resourceType": "Encounter",
      "id": "97267cc7-d11d-4d72-adc7-07c6684e8722",
      "identifier": [ {
        "use": "official",
        "value": "2a620155-9d11-439e-92b3-5d9815ff4de8"
      } ],
      "status": "finished",
      "type": [ {
        "coding": [ {
          "system": "http://www.ama-assn.org/go/cpt",
          "code": "99213",
          "display": "Office/outpatient visit, est"
        }, {
          "system": "urn:oid:2.16.840.1.113883.6.103",
          "code": "V70.0",
          "display": "Routine general medical examination at a health care facility"
        } ]
      } ],
      "subject": {
        "reference": "Patient/5b821ae3-7413-4c6b-b64e-26950b1ea6fe",
        "display": "Antonio Greene"
      },
      "period": {
        "start": "2010-11-01T10:00:00+01:00"
      }
    }
  }, {
    "resource": {
      "resourceType": "Encounter",
      "id": "9c7c9807-14a4-4856-9cef-5460d3bdb486",
      "identifier": [ {
        "use": "official",
        "value": "2a620155-9d11-439e-92b3-5d9815ff4de8"
      } ],
      "status": "finished",
      "type": [ {
        "coding": [ {
          "system": "http://www.ama-assn.org/go/cpt",
          "code": "99213",
          "display": "Office/outpatient visit, est"
        }, {
          "system": "urn:oid:2.16.840.1.113883.6.103",
          "code": "V70.0",
          "display": "Routine general medical examination at a health care facility"
        } ]
      } ],
      "subject": {
        "reference": "Patient/5b821ae3-7413-4c6b-b64e-26950b1ea6fe",
        "display": "Antonio Greene"
      },
      "period": {
        "start": "2010-05-28T10:00:00+02:00"
      },
      "reasonCode": [ {
        "coding": [ {
          "system": "http://snomed.info/sct",
          "code": "84114007",
          "display": "Heart Failure"
        } ]
      } ],
      "reasonReference": [ {
        "reference": "Condition/227e8d96-54ab-4b6e-a9b6-553a24d9b024",
        "display": "Asthma Daytime Symptoms Quantified"
      } ]
    }
  }, {
    "resource": {
      "resourceType": "Encounter",
      "id": "6abde62d-6c76-40a3-a56b-51fbdca199d9",
      "identifier": [ {
        "use": "official",
        "value": "2a620155-9d11-439e-92b3-5d9815ff4de8"
      } ],
      "status": "finished",
      "type": [ {
        "coding": [ {
          "system": "http://www.ama-assn.org/go/cpt",
          "code": "99212",
          "display": "Office/outpatient visit, est"
        } ]
      } ],
      "subject": {
        "reference": "Patient/5b821ae3-7413-4c6b-b64e-26950b1ea6fe",
        "display": "Antonio Greene"
      },
      "period": {
        "start": "2010-06-09T10:00:00+02:00"
      }
    }
  }, {
    "resource": {
      "resourceType": "Encounter",
      "id": "94af80da-4942-4d6c-9593-9b51d9df6bba",
      "identifier": [ {
        "use": "official",
        "value": "2a620155-9d11-439e-92b3-5d9815ff4de8"
      } ],
      "status": "finished",
      "type": [ {
        "coding": [ {
          "system": "http://www.ama-assn.org/go/cpt",
          "code": "99213",
          "display": "Office/outpatient visit, est"
        }, {
          "system": "urn:oid:2.16.840.1.113883.6.103",
          "code": "V70.0",
          "display": "Routine general medical examination at a health care facility"
        } ]
      } ],
      "subject": {
        "reference": "Patient/5b821ae3-7413-4c6b-b64e-26950b1ea6fe",
        "display": "Antonio Greene"
      },
      "period": {
        "start": "2010-09-09T10:00:00+02:00"
      }
    }
  }, {
    "resource": {
      "resourceType": "Condition",
      "id": "cdec9052-76a7-424e-952b-a7738293557e",
      "identifier": [ {
        "use": "official",
        "value": "9d3d416d-45ab-4da1-912f-4583e0632000"
      } ],
      "clinicalStatus": {
        "coding": [ {
          "system": "http://terminology.hl7.org/CodeSystem/condition-clinical",
          "code": "active",
          "display": "Active"
        } ]
      },
      "verificationStatus": {
        "coding": [ {
          "system": "http://terminology.hl7.org/CodeSystem/condition-ver-status",
          "code": "confirmed",
          "display": "Confirmed"
        } ]
      },
      "category": [ {
        "coding": [ {
          "system": "http://terminology.hl7.org/CodeSystem/condition-category",
          "code": "problem-list-item",
          "display": "Problem List Item"
        } ]
      } ],
      "code": {
        "coding": [ {
          "system": "http://snomed.info/sct",
          "code": "195979001",
          "display": "Asthma unspecified"
        }, {
          "system": "urn:oid:2.16.840.1.113883.6.90",
          "code": "J45",
          "display": "Asthma"
        }, {
          "system": "urn:oid:2.16.840.1.113883.6.103",
          "code": "493.92",
          "display": "Asthma, unspecified type, with (acute) exacerbation"
        } ]
      },
      "subject": {
        "reference": "Patient/5b821ae3-7413-4c6b-b64e-26950b1ea6fe",
        "display": "Antonio Greene"
      },
      "onsetDateTime": "2010-04-06T10:00:00+02:00"
    }
  }, {
    "resource": {
      "resourceType": "Observation",
      "id": "2e28967d-fe35-484e-b2d4-9c286dd27362",
      "identifier": [ {
        "use": "official",
        "value": "c6f88321-67ad-11db-bd13-0800200c9a66"
      } ],
      "status": "final",
      "category": [ {
        "coding": [ {
          "system": "http://terminology.hl7.org/CodeSystem/observation-category",
          "code": "vital-signs",
          "display": "Vital Signs"
        } ]
      } ],
      "code": {
        "coding": [ {
          "system": "http://loinc.org",
          "code": "39156-5",
          "display": "BMI"
        } ]
      },
      "subject": {
        "reference": "Patient/5b821ae3-7413-4c6b-b64e-26950b1ea6fe",
        "display": "Antonio Greene"
      },
      "effectivePeriod": {
        "start": "2010-09-09T10:00:00+02:00"
      },
      "valueQuantity": {
        "value": 28.8,
        "unit": "kg/m2",
        "system": "http://unitsofmeasure.org",
        "code": "kg/m2"
      }
    }
  }, {
    "resource": {
      "resourceType": "Observation",
      "id": "6005ebaf-9138-46f4-b250-9075688306d1",
      "identifier": [ {
        "use": "official",
        "value": "c6f88321-67ad-11db-bd13-0800200c9a66"
      } ],
      "status": "final",
      "category": [ {
        "coding": [ {
          "system": "http://terminology.hl7.org/CodeSystem/observation-category",
          "code": "vital-signs",
          "display": "Vital Signs"
        } ]
      } ],
      "code": {
        "coding": [ {
          "system": "http://loinc.org",
          "code": "8480-6",
          "display": "BP Systolic"
        } ]
      },
      "subject": {
        "reference": "Patient/5b821ae3-7413-4c6b-b64e-26950b1ea6fe",
        "display": "Antonio Greene"
      },
      "effectivePeriod": {
        "start": "2010-09-09T10:00:00+02:00"
      },
      "valueQuantity": {
        "value": 136,
        "unit": "mm[Hg]",
        "system": "http://unitsofmeasure.org",
        "code": "mm[Hg]"
      }
    }
  }, {
    "resource": {
      "resourceType": "Observation",
      "id": "29430f28-27f4-41db-bf54-57c0b9267260",
      "identifier": [ {
        "use": "official",
        "value": "c6f88321-67ad-11db-bd13-0800200c9a66"
      } ],
      "status": "final",
      "category": [ {
        "coding": [ {
          "system": "http://terminology.hl7.org/CodeSystem/observation-category",
          "code": "vital-signs",
          "display": "Vital Signs"
        } ]
      } ],
      "code": {
        "coding": [ {
          "system": "http://loinc.org",
          "code": "8462-4",
          "display": "BP Diastolic"
        } ]
      },
      "subject": {
        "reference": "Patient/5b821ae3-7413-4c6b-b64e-26950b1ea6fe",
        "display": "Antonio Greene"
      },
      "effectivePeriod": {
        "start": "2010-09-09T10:00:00+02:00"
      },
      "valueQuantity": {
        "value": 88,
        "unit": "mm[Hg]",
        "system": "http://unitsofmeasure.org",
        "code": "mm[Hg]"
      }
    }
  }, {
    "resource": {
      "resourceType": "Observation",
      "id": "b1aaf924-1274-4144-97fd-f5bdaf8eac56",
      "identifier": [ {
        "use": "official",
        "value": "c6f88321-67ad-11db-bd13-0800200c9a66"
      } ],
      "status": "final",
      "category": [ {
        "coding": [ {
          "system": "http://terminology.hl7.org/CodeSystem/observation-category",
          "code": "vital-signs",
          "display": "Vital Signs"
        } ]
      } ],
      "code": {
        "coding": [ {
          "system": "http://loinc.org",
          "code": "8480-6",
          "display": "BP Systolic"
        } ]
      },
      "subject": {
        "reference": "Patient/5b821ae3-7413-4c6b-b64e-26950b1ea6fe",
        "display": "Antonio Greene"
      },
      "effectivePeriod": {
        "start": "2010-04-06T10:00:00+02:00"
      },
      "valueQuantity": {
        "value": 134,
        "unit": "mm[Hg]",
        "system": "http://unitsofmeasure.org",
        "code": "mm[Hg]"
      }
    }
  }, {
    "resource": {
      "resourceType": "Observation",
      "id": "4f1990f0-cb5f-4d0c-9eef-21864a942216",
      "identifier": [ {
        "use": "official",
        "value": "c6f88321-67ad-11db-bd13-0800200c9a66"
      } ],
      "status": "final",
      "category": [ {
        "coding": [ {
          "system": "http://terminology.hl7.org/CodeSystem/observation-category",
          "code": "vital-signs",
          "display": "Vital Signs"
        } ]
      } ],
      "code": {
        "coding": [ {
          "system": "http://loinc.org",
          "code": "39156-5",
          "display": "BMI"
        } ]
      },
      "subject": {
        "reference": "Patient/5b821ae3-7413-4c6b-b64e-26950b1ea6fe",
        "display": "Antonio Greene"
      },
      "effectivePeriod": {
        "start": "2010-04-06T10:00:00+02:00"
      },
      "valueQuantity": {
        "value": 29.2,
        "unit": "kg/m2",
        "system": "http://unitsofmeasure.org",
        "code": "kg/m2"
      }
    }
  }, {
    "resource": {
      "resourceType": "Observation",
      "id": "324915a4-4f04-456b-9617-88eb66765440",
      "identifier": [ {
        "use": "official",
        "value": "c6f88321-67ad-11db-bd13-0800200c9a66"
      } ],
      "status": "final",
      "category": [ {
        "coding": [ {
          "system": "http://terminology.hl7.org/CodeSystem/observation-category",
          "code": "vital-signs",
          "display": "Vital Signs"
        } ]
      } ],
      "code": {
        "coding": [ {
          "system": "http://loinc.org",
          "code": "8462-4",
          "display": "BP Diastolic"
        } ]
      },
      "subject": {
        "reference": "Patient/5b821ae3-7413-4c6b-b64e-26950b1ea6fe",
        "display": "Antonio Greene"
      },
      "effectivePeriod": {
        "start": "2010-04-06T10:00:00+02:00"
      },
      "valueQuantity": {
        "value": 86,
        "unit": "mm[Hg]",
        "system": "http://unitsofmeasure.org",
        "code": "mm[Hg]"
      }
    }
  }, {
    "resource": {
      "resourceType": "Observation",
      "id": "6391f9d2-fa3a-40f0-81ad-65c0b6fc3ed5",
      "identifier": [ {
        "use": "official",
        "value": "c6f88321-67ad-11db-bd13-0800200c9a66"
      } ],
      "status": "final",
      "category": [ {
        "coding": [ {
          "system": "http://terminology.hl7.org/CodeSystem/observation-category",
          "code": "vital-signs",
          "display": "Vital Signs"
        } ]
      } ],
      "code": {
        "coding": [ {
          "system": "http://loinc.org",
          "code": "8480-6",
          "display": "BP Systolic"
        } ]
      },
      "subject": {
        "reference": "Patient/5b821ae3-7413-4c6b-b64e-26950b1ea6fe",
        "display": "Antonio Greene"
      },
      "effectivePeriod": {
        "start": "2010-06-09T10:00:00+02:00"
      },
      "valueQuantity": {
        "value": 134,
        "unit": "mm[Hg]",
        "system": "http://unitsofmeasure.org",
        "code": "mm[Hg]"
      }
    }
  }, {
    "resource": {
      "resourceType": "Observation",
      "id": "23d3213b-a5ea-4576-b8fd-90e28b772f0e",
      "identifier": [ {
        "use": "official",
        "value": "c6f88321-67ad-11db-bd13-0800200c9a66"
      } ],
      "status": "final",
      "category": [ {
        "coding": [ {
          "system": "http://terminology.hl7.org/CodeSystem/observation-category",
          "code": "vital-signs",
          "display": "Vital Signs"
        } ]
      } ],
      "code": {
        "coding": [ {
          "system": "http://loinc.org",
          "code": "8462-4",
          "display": "BP Diastolic"
        } ]
      },
      "subject": {
        "reference": "Patient/5b821ae3-7413-4c6b-b64e-26950b1ea6fe",
        "display": "Antonio Greene"
      },
      "effectivePeriod": {
        "start": "2010-06-09T10:00:00+02:00"
      },
      "valueQuantity": {
        "value": 86,
        "unit": "mm[Hg]",
        "system": "http://unitsofmeasure.org",
        "code": "mm[Hg]"
      }
    }
  }, {
    "resource": {
      "resourceType": "Observation",
      "id": "7dacabfe-fb69-4443-ae52-cb31945537fb",
      "identifier": [ {
        "use": "official",
        "value": "c6f88321-67ad-11db-bd13-0800200c9a66"
      } ],
      "status": "final",
      "category": [ {
        "coding": [ {
          "system": "http://terminology.hl7.org/CodeSystem/observation-category",
          "code": "vital-signs",
          "display": "Vital Signs"
        } ]
      } ],
      "code": {
        "coding": [ {
          "system": "http://loinc.org",
          "code": "8462-4",
          "display": "BP Diastolic"
        } ]
      },
      "subject": {
        "reference": "Patient/5b821ae3-7413-4c6b-b64e-26950b1ea6fe",
        "display": "Antonio Greene"
      },
      "effectivePeriod": {
        "start": "2010-05-28T10:00:00+02:00"
      },
      "valueQuantity": {
        "value": 84,
        "unit": "mm[Hg]",
        "system": "http://unitsofmeasure.org",
        "code": "mm[Hg]"
      }
    }
  }, {
    "resource": {
      "resourceType": "Observation",
      "id": "49d88915-792e-42ad-8dad-198c79ffb546",
      "identifier": [ {
        "use": "official",
        "value": "c6f88321-67ad-11db-bd13-0800200c9a66"
      } ],
      "status": "final",
      "category": [ {
        "coding": [ {
          "system": "http://terminology.hl7.org/CodeSystem/observation-category",
          "code": "vital-signs",
          "display": "Vital Signs"
        } ]
      } ],
      "code": {
        "coding": [ {
          "system": "http://loinc.org",
          "code": "8480-6",
          "display": "BP Systolic"
        } ]
      },
      "subject": {
        "reference": "Patient/5b821ae3-7413-4c6b-b64e-26950b1ea6fe",
        "display": "Antonio Greene"
      },
      "effectivePeriod": {
        "start": "2010-05-28T10:00:00+02:00"
      },
      "valueQuantity": {
        "value": 132,
        "unit": "mm[Hg]",
        "system": "http://unitsofmeasure.org",
        "code": "mm[Hg]"
      }
    }
  }, {
    "resource": {
      "resourceType": "Observation",
      "id": "4e68476f-214d-4896-92f7-0767dea8924a",
      "identifier": [ {
        "use": "official",
        "value": "c6f88321-67ad-11db-bd13-0800200c9a66"
      } ],
      "status": "final",
      "category": [ {
        "coding": [ {
          "system": "http://terminology.hl7.org/CodeSystem/observation-category",
          "code": "vital-signs",
          "display": "Vital Signs"
        } ]
      } ],
      "code": {
        "coding": [ {
          "system": "http://loinc.org",
          "code": "8462-4",
          "display": "BP Diastolic"
        } ]
      },
      "subject": {
        "reference": "Patient/5b821ae3-7413-4c6b-b64e-26950b1ea6fe",
        "display": "Antonio Greene"
      },
      "effectivePeriod": {
        "start": "2010-11-01T10:00:00+01:00"
      },
      "valueQuantity": {
        "value": 88,
        "unit": "mm[Hg]",
        "system": "http://unitsofmeasure.org",
        "code": "mm[Hg]"
      }
    }
  }, {
    "resource": {
      "resourceType": "Observation",
      "id": "8fc3520c-366e-4ca6-8bf4-379719b4eec8",
      "identifier": [ {
        "use": "official",
        "value": "c6f88321-67ad-11db-bd13-0800200c9a66"
      } ],
      "status": "final",
      "category": [ {
        "coding": [ {
          "system": "http://terminology.hl7.org/CodeSystem/observation-category",
          "code": "vital-signs",
          "display": "Vital Signs"
        } ]
      } ],
      "code": {
        "coding": [ {
          "system": "http://loinc.org",
          "code": "39156-5",
          "display": "BMI"
        } ]
      },
      "subject": {
        "reference": "Patient/5b821ae3-7413-4c6b-b64e-26950b1ea6fe",
        "display": "Antonio Greene"
      },
      "effectivePeriod": {
        "start": "2010-11-01T10:00:00+01:00"
      },
      "valueQuantity": {
        "value": 29.5,
        "unit": "kg/m2",
        "system": "http://unitsofmeasure.org",
        "code": "kg/m2"
      }
    }
  }, {
    "resource": {
      "resourceType": "Observation",
      "id": "571ec48d-44e0-40b9-8ea1-3ab2112d6081",
      "identifier": [ {
        "use": "official",
        "value": "c6f88321-67ad-11db-bd13-0800200c9a66"
      } ],
      "status": "final",
      "category": [ {
        "coding": [ {
          "system": "http://terminology.hl7.org/CodeSystem/observation-category",
          "code": "vital-signs",
          "display": "Vital Signs"
        } ]
      } ],
      "code": {
        "coding": [ {
          "system": "http://loinc.org",
          "code": "8480-6",
          "display": "BP Systolic"
        } ]
      },
      "subject": {
        "reference": "Patient/5b821ae3-7413-4c6b-b64e-26950b1ea6fe",
        "display": "Antonio Greene"
      },
      "effectivePeriod": {
        "start": "2010-11-01T10:00:00+01:00"
      },
      "valueQuantity": {
        "value": 134,
        "unit": "mm[Hg]",
        "system": "http://unitsofmeasure.org",
        "code": "mm[Hg]"
      }
    }
  } ]
}