{
  "resourceType": "Bundle",
  "entry": [ {
    "resource": {
      "resourceType": "Composition",
      "id": "08c14687-55c3-413c-86ed-fbb64a7e8626",
      "identifier": {
        "use": "official",
        "value": "db734647-fc99-424c-a864-7e3cda82e703"
      },
      "status": "preliminary",
      "type": {
        "coding": [ {
          "system": "http://loinc.org",
          "code": "34133-9",
          "display": "Summarization of Episode Note"
        } ]
      },
      "category": [ {
        "coding": [ {
          "system": "http://hl7.org/fhir/ValueSet/doc-classcodes",
          "code": "LP173421-7",
          "display": "Note"
        } ]
      } ],
      "subject": {
        "reference": "Patient/1518dbc9-80de-429e-bd9c-f2971165de28",
        "display": "Lillie Fox"
      },
      "date": "2014-04-16T11:54:54+02:00",
      "author": [ {
        "reference": "Practitioner/299b101a-26b1-476a-990d-2cd8462d5507",
        "display": "Henry Seven MD"
      } ],
      "title": "Community Health and Hospitals: Health Summary",
      "confidentiality": "N",
      "attester": [ {
        "mode": "legal",
        "time": "2013-04-18T09:00:00+05:00",
        "party": {
          "reference": "Practitioner/82e97662-df87-431c-b495-9be3930767c9",
          "display": "Henry Seven"
        }
      }, {
        "mode": "professional",
        "time": "2014-04-16T11:54:54+02:00",
        "party": {
          "reference": "Practitioner/82e97662-df87-431c-b495-9be3930767c9",
          "display": "Henry Seven"
        }
      } ],
      "custodian": {
        "reference": "Organization/ee50c710-087a-4d7c-9f54-65df6213d82b",
        "display": "Community Health and Hospitals"
      },
      "event": [ {
        "period": {
          "start": "2010-06-05T10:00:00+02:00",
          "end": "2010-11-01T10:00:00+01:00"
        },
        "detail": [ {
          "reference": "Practitioner/1807d60a-49ed-49d6-beae-9f9a25cdcb10",
          "display": "Henry Seven MD"
        } ]
      } ],
      "section": [ {
        "title": "Medications",
        "code": {
          "coding": [ {
            "system": "http://loinc.org",
            "code": "10160-0",
            "display": "History of Medication Use"
          } ]
        },
        "text": {
          "status": "additional",
          "div": "<div xmlns=\"http://www.w3.org/1999/xhtml\"><table><thead><tr><th>Group Description</th><th>Code System</th><th>Code</th><th>Code Description</th><th>Date and Time</th><th>Status</th></tr></thead><tbody><tr><td>Tamoxifen or Aromatase Inhibitor Therapy</td><td>RxNorm</td><td>313195</td><td><span/>Tamoxifen 20 MG Oral Tablet</td><td>07-30-2010 10:00:00</td><td>Active</td></tr></tbody></table></div>"
        },
        "mode": "snapshot",
        "entry": [ {
          "reference": "MedicationStatement/1d131ca9-6752-4219-8572-fba5eec5cae4",
          "display": "Tamoxifen 20 MG Oral Tablet"
        } ]
      }, {
        "title": "Results",
        "code": {
          "coding": [ {
            "system": "http://loinc.org",
            "code": "30954-2",
            "display": "Results"
          } ]
        },
        "text": {
          "status": "additional",
          "div": "<div xmlns=\"http://www.w3.org/1999/xhtml\"><table><thead><tr><th>Group Description</th><th>Code System</th><th>Code</th><th>Code Description</th><th>Value</th><th>Unit</th><th>Reference Range</th><th>Date and Time</th><th>Status</th></tr></thead><tbody><tr><td>Pap Test</td><td>LOINC</td><td>10524-7</td><td><span/>Cyto Cervix</td><td>normal</td><td/><td>NA</td><td>06-22-2010 10:00:00</td><td>Completed</td></tr><tr><td/><td>CPT</td><td>88174</td><td>Cytopath, c/v auto, in fluid</td><td/><td/><td/><td/><td/></tr><tr><td/><td>HCPCS</td><td>G0147</td><td>Scr c/v cyto, automated sys</td><td/><td/><td/><td/><td/></tr><tr><td/><td>ICD-10-CM</td><td>Z12.4</td><td>Encounter for screening for malignant neoplasm of cervix</td><td/><td/><td/><td/><td/></tr><tr><td/><td>ICD-9-CM</td><td>V72.32</td><td>Encounter for Papanicolaou cervical smear to confirm findings of recent normal smear following initial abnormal smear</td><td/><td/><td/><td/><td/></tr><tr><td/><td>SNOMED-CT</td><td>440623000</td><td>Microscopic examination of cervical Papanicolaou smear</td><td/><td/><td/><td/><td/></tr></tbody></table></div>"
        },
        "mode": "snapshot",
        "entry": [ {
          "reference": "DiagnosticReport/e31804ae-a97c-4749-a095-94857bcceb55",
          "display": "Cytology"
        } ]
      }, {
        "title": "Procedures",
        "code": {
          "coding": [ {
            "system": "http://loinc.org",
            "code": "47519-4",
            "display": "HISTORY OF PROCEDURES"
          } ]
        },
        "text": {
          "status": "additional",
          "div": "<div xmlns=\"http://www.w3.org/1999/xhtml\"><table><thead><tr><th>Group Description</th><th>Code System</th><th>Code</th><th>Code Description</th><th>Date and Time</th><th>Status</th></tr></thead><tbody><tr><td>Breast Cancer Screening</td><td>CPT</td><td>77057</td><td><span/>Mammogram, screening</td><td>06-22-2010 10:00:00</td><td>Performed</td></tr><tr><td/><td>HCPCS</td><td>G0202</td><td>Screeningmammographydigital</td><td/><td/></tr><tr><td/><td>ICD-10-CM</td><td>Z12.31</td><td>Encounter for screening mammogram for malignant neoplasm of breast</td><td/><td/></tr><tr><td/><td>ICD-9-CM</td><td>V76.12</td><td>Other screening mammogram</td><td/><td/></tr><tr><td/><td>SNOMED-CT</td><td>24623002</td><td>Screening mammography</td><td/><td/></tr><tr><td>Colonoscopy</td><td>CPT</td><td>45378</td><td><span/>Diagnostic colonoscopy</td><td>06-22-2010 10:00:00</td><td>Performed</td></tr><tr><td/><td>HCPCS</td><td>G0121</td><td>Colon ca scrn not hi rsk ind</td><td/><td/></tr><tr><td/><td>ICD-10-CM</td><td>Z12.11</td><td>Encounter for screening for malignant neoplasm of colon</td><td/><td/></tr><tr><td/><td>ICD-9-CM</td><td>45.23</td><td>Colonoscopy</td><td/><td/></tr><tr><td/><td>SNOMED-CT</td><td>174184006</td><td>Diagnostic endoscopic examination on colon</td><td/><td/></tr></tbody></table></div>"
        },
        "mode": "snapshot"
      }, {
        "title": "Problems",
        "code": {
          "coding": [ {
            "system": "http://loinc.org",
            "code": "11450-4",
            "display": "PROBLEM LIST"
          } ]
        },
        "text": {
          "status": "additional",
          "div": "<div xmlns=\"http://www.w3.org/1999/xhtml\"><table><thead><tr><th>Group Description</th><th>Code System</th><th>Code</th><th>Code Description</th><th>Date and Time</th><th>Status</th></tr></thead><tbody><tr><td>Breast Cancer</td><td>SNOMED-CT</td><td>188161004</td><td><span/>Malignant neoplasm of female breast NOS</td><td>07-22-2010 10:00:00</td><td>Active</td></tr><tr><td/><td>ICD-10-CM</td><td>C50</td><td>Malignant neoplasm of breast</td><td/><td/></tr><tr><td/><td>ICD-9-CM</td><td>174.9</td><td>Malignant neoplasm of breast (female), unspecified</td><td/><td/></tr><tr><td>Breast Cancer ER or PR Positive</td><td>SNOMED-CT</td><td>417742002</td><td><span/>Hormone receptor positive tumor</td><td>07-22-2010 10:00:00</td><td>Active</td></tr><tr><td>Breast Cancer Stage IC-IIIC</td><td>SNOMED-CT</td><td>261653007</td><td><span/>Tumor stage T2c</td><td>07-22-2010 10:00:00</td><td>Active</td></tr></tbody></table></div>"
        },
        "mode": "snapshot",
        "entry": [ {
          "reference": "Condition/b4c44b4f-22de-4547-b3be-a333494f01f7",
          "display": "Hormone receptor positive tumor"
        } ]
      }, {
        "title": "Social History",
        "code": {
          "coding": [ {
            "system": "http://loinc.org",
            "code": "29762-2",
            "display": "Social History"
          } ]
        },
        "text": {
          "status": "additional",
          "div": "<div xmlns=\"http://www.w3.org/1999/xhtml\"><table><thead><tr><th>Group Description</th><th>Code System</th><th>Code</th><th>Code Description</th><th>Date and Time</th><th>Status</th></tr></thead><tbody><tr><td>Tobacco Use</td><td>SNOMED-CT</td><td>266919005</td><td><span/>Never smoker (Never Smoked)</td><td>06-05-2010 10:00:00</td><td>Active</td></tr><tr><td/><td>SNOMED-CT</td><td>449868002</td><td>Current every day smoker</td><td/><td/></tr></tbody></table></div>"
        },
        "mode": "snapshot",
        "entry": [ {
          "reference": "Observation/9bfd6158-47a6-49dc-ac3b-1bf1f056d70c"
        } ]
      }, {
        "title": "Allergies,  Adverse Reactions & Alerts",
        "code": {
          "coding": [ {
            "system": "http://loinc.org",
            "code": "48765-2",
            "display": "Allergies, adverse reactions, alerts"
          } ]
        },
        "text": {
          "status": "additional",
          "div": "<div xmlns=\"http://www.w3.org/1999/xhtml\"><table><thead><tr><th>Group Description</th><th>Code System</th><th>Code</th><th>Code Description</th><th>Severity</th><th>Susceptibility</th><th>Date and Time</th><th>Status</th></tr></thead><tbody><tr><td>Allergy to Eggs</td><td>UNII</td><td>291P45F896</td><td><span/>Eggs</td><td><span/>Severe</td><td>Moderately Susceptible</td><td>06-05-2010 10:00:00</td><td>Active</td></tr><tr><td/><td>ICD-9-CM</td><td>V15.03</td><td>Allergy to eggs</td><td/><td/><td/><td/></tr><tr><td>Amikacin</td><td>RxNorm</td><td>905148</td><td><span/>Amikacin Sulfate 50 MG/ML Injectable Solution</td><td><span/>Fatal</td><td>Susceptible</td><td>06-05-2010 10:00:00</td><td>Active</td></tr><tr><td>Codeine</td><td>NDF-RT</td><td>N0000006691</td><td><span/>Codeine</td><td><span/>Mild to moderate</td><td>Very susceptible</td><td>06-05-2010 10:00:00</td><td>Active</td></tr></tbody></table></div>"
        },
        "mode": "snapshot",
        "entry": [ {
          "reference": "AllergyIntolerance/26b57ded-6daf-4ceb-a027-6ef8124d15f0",
          "display": "Amikacin + Amikacin Sulfate 50 MG/ML Injectable Solution"
        }, {
          "reference": "AllergyIntolerance/8d43b225-ea76-4d7b-8eff-040e3feed194",
          "display": "Allergy to Eggs + Eggs"
        }, {
          "reference": "AllergyIntolerance/672fd0ca-f78f-456b-bad0-f676f69d665b",
          "display": "Codeine + Codeine"
        } ]
      }, {
        "title": "Encounters",
        "code": {
          "coding": [ {
            "system": "http://loinc.org",
            "code": "46240-8",
            "display": "History of encounters"
          } ]
        },
        "text": {
          "status": "additional",
          "div": "<div xmlns=\"http://www.w3.org/1999/xhtml\"><table><thead><tr><th>Group Description</th><th>Code System</th><th>Code</th><th>Code Description</th><th>Date and Time</th><th>Status</th></tr></thead><tbody><tr><td>Encounter Office Visit</td><td>CPT</td><td>99212</td><td><span/>Office/outpatient visit, est</td><td>06-05-2010 10:00:00</td><td>Performed</td></tr><tr><td>Encounter Outpatient</td><td>CPT</td><td>99213</td><td><span/>Office/outpatient visit, est</td><td>06-22-2010 10:00:00</td><td>Performed</td></tr><tr><td/><td>ICD-9-CM</td><td>V70.0</td><td>Routine general medical examination at a health care facility</td><td/><td/></tr><tr><td>Encounter Acute Inpt</td><td>CPT</td><td>99251</td><td><span/>Initial inpatient consult</td><td>07-15-2010 10:00:00</td><td>Performed</td></tr><tr><td>Encounter Inpatient Discharge</td><td>CPT</td><td>99238</td><td><span/>Hospital discharge day</td><td>07-17-2010 10:00:00</td><td>Performed</td></tr><tr><td>Encounter Office Visit</td><td>CPT</td><td>99212</td><td><span/>Office/outpatient visit, est</td><td>07-30-2010 10:00:00</td><td>Performed</td></tr><tr><td>Encounter Outpatient</td><td>CPT</td><td>99213</td><td><span/>Office/outpatient visit, est</td><td>11-01-2010 10:00:00</td><td>Performed</td></tr><tr><td/><td>ICD-9-CM</td><td>V70.0</td><td>Routine general medical examination at a health care facility</td><td/><td/></tr></tbody></table></div>"
        },
        "mode": "snapshot",
        "entry": [ {
          "reference": "Encounter/0d71ec97-e731-4e00-b9d8-2ffd9ffb9c38",
          "display": "Initial inpatient consult"
        }, {
          "reference": "Encounter/56cd63e4-b726-4aa7-a65c-4ec6e6dc022e",
          "display": "Office/outpatient visit, est"
        }, {
          "reference": "Encounter/2da78ce6-bbbf-44d4-9887-0d7dfa21e6d7",
          "display": "Hospital discharge day"
        }, {
          "reference": "Encounter/7edf7108-358a-4843-8440-9ea7c7f8d88b",
          "display": "Office/outpatient visit, est"
        }, {
          "reference": "Encounter/9e4f09a7-83a8-4e63-ab6e-1d8aba22fff1",
          "display": "Office/outpatient visit, est"
        }, {
          "reference": "Encounter/59d687ec-a726-42e8-bd22-7874afc22d43",
          "display": "Office/outpatient visit, est"
        } ]
      }, {
        "title": "Vital Signs",
        "code": {
          "coding": [ {
            "system": "http://loinc.org",
            "code": "8716-3",
            "display": "Vital Signs"
          } ]
        },
        "text": {
          "status": "additional",
          "div": "<div xmlns=\"http://www.w3.org/1999/xhtml\"><table><thead><tr><th>Group Description</th><th>Code System</th><th>Code</th><th>Code Description</th><th>Value</th><th>Unit</th><th>Date and Time</th><th>Status</th></tr></thead><tbody><tr><td>BMI</td><td>LOINC</td><td>39156-5</td><td><span/>BMI</td><td>24.4</td><td>kg/m2</td><td>06-05-2010 10:00:00</td><td>Finding</td></tr><tr><td>BMI</td><td>LOINC</td><td>39156-5</td><td><span/>BMI</td><td>24</td><td>kg/m2</td><td>06-22-2010 10:00:00</td><td>Finding</td></tr><tr><td>Diastolic Blood Pressure</td><td>LOINC</td><td>8462-4</td><td><span/>BP Diastolic</td><td>64</td><td>mm[Hg]</td><td>06-22-2010 10:00:00</td><td>Finding</td></tr><tr><td>Heart Rate</td><td>LOINC</td><td>8867-4</td><td><span/>Heart Rate</td><td>60</td><td>/min</td><td>06-22-2010 10:00:00</td><td>Finding</td></tr><tr><td>Systolic Blood Pressure</td><td>LOINC</td><td>8480-6</td><td><span/>BP Systolic</td><td>106</td><td>mm[Hg]</td><td>06-22-2010 10:00:00</td><td>Finding</td></tr><tr><td>BMI</td><td>LOINC</td><td>39156-5</td><td><span/>BMI</td><td>23.9</td><td>kg/m2</td><td>07-15-2010 10:00:00</td><td>Finding</td></tr><tr><td>Diastolic Blood Pressure</td><td>LOINC</td><td>8462-4</td><td><span/>BP Diastolic</td><td>66</td><td>mm[Hg]</td><td>07-15-2010 10:00:00</td><td>Finding</td></tr><tr><td>Heart Rate</td><td>LOINC</td><td>8867-4</td><td><span/>Heart Rate</td><td>62</td><td>/min</td><td>07-15-2010 10:00:00</td><td>Finding</td></tr><tr><td>Systolic Blood Pressure</td><td>LOINC</td><td>8480-6</td><td><span/>BP Systolic</td><td>110</td><td>mm[Hg]</td><td>07-15-2010 10:00:00</td><td>Finding</td></tr><tr><td>BMI</td><td>LOINC</td><td>39156-5</td><td><span/>BMI</td><td>24.2</td><td>kg/m2</td><td>07-27-2010 10:00:00</td><td>Finding</td></tr><tr><td>Diastolic Blood Pressure</td><td>LOINC</td><td>8462-4</td><td><span/>BP Diastolic</td><td>68</td><td>mm[Hg]</td><td>07-27-2010 10:00:00</td><td>Finding</td></tr><tr><td>Heart Rate</td><td>LOINC</td><td>8867-4</td><td><span/>Heart Rate</td><td>64</td><td>/min</td><td>07-27-2010 10:00:00</td><td>Finding</td></tr><tr><td>Systolic Blood Pressure</td><td>LOINC</td><td>8480-6</td><td><span/>BP Systolic</td><td>108</td><td>mm[Hg]</td><td>07-27-2010 10:00:00</td><td>Finding</td></tr><tr><td>Diastolic Blood Pressure</td><td>LOINC</td><td>8462-4</td><td><span/>BP Diastolic</td><td>65</td><td>mm[Hg]</td><td>09-15-2010 10:00:00</td><td>Finding</td></tr><tr><td>Heart Rate</td><td>LOINC</td><td>8867-4</td><td><span/>Heart Rate</td><td>62</td><td>/min</td><td>09-15-2010 10:00:00</td><td>Finding</td></tr><tr><td>Systolic Blood Pressure</td><td>LOINC</td><td>8480-6</td><td><span/>BP Systolic</td><td>112</td><td>mm[Hg]</td><td>09-15-2010 10:00:00</td><td>Finding</td></tr><tr><td>BMI</td><td>LOINC</td><td>39156-5</td><td><span/>BMI</td><td>23.9</td><td>kg/m2</td><td>11-01-2010 10:00:00</td><td>Finding</td></tr><tr><td>Diastolic Blood Pressure</td><td>LOINC</td><td>8462-4</td><td><span/>BP Diastolic</td><td>64</td><td>mm[Hg]</td><td>11-01-2010 10:00:00</td><td>Finding</td></tr><tr><td>Heart Rate</td><td>LOINC</td><td>8867-4</td><td><span/>Heart Rate</td><td>64</td><td>/min</td><td>11-01-2010 10:00:00</td><td>Finding</td></tr><tr><td>Systolic Blood Pressure</td><td>LOINC</td><td>8480-6</td><td><span/>BP Systolic</td><td>110</td><td>mm[Hg]</td><td>11-01-2010 10:00:00</td><td>Finding</td></tr></tbody></table></div>"
        },
        "mode": "snapshot",
        "entry": [ {
          "reference": "Observation/c8e90929-b5e4-4881-8706-51b01f752ce9",
          "display": "BP Systolic"
        }, {
          "reference": "Observation/b9576227-155b-4add-9033-6047f22db199",
          "display": "Heart Rate"
        }, {
          "reference": "Observation/d2da4858-90a3-4000-9bb7-81d58d53af36",
          "display": "BP Diastolic"
        }, {
          "reference": "Observation/46ae6e56-6fe0-48cd-883e-13df810078e8",
          "display": "BMI"
        }, {
          "reference": "Observation/35400e93-dd5f-4c49-9475-cb7791d1b457",
          "display": "BMI"
        }, {
          "reference": "Observation/1ad367da-bf0d-46c7-9a30-0fad87ce91cd",
          "display": "Heart Rate"
        }, {
          "reference": "Observation/94cf8dae-fe6b-42db-b29e-46d8e8cddf6c",
          "display": "BP Diastolic"
        }, {
          "reference": "Observation/62787982-9726-4b84-be58-ee985d9122fb",
          "display": "BP Systolic"
        }, {
          "reference": "Observation/e846d120-d27d-4eb0-8dbf-e8fdc928159a",
          "display": "BP Diastolic"
        }, {
          "reference": "Observation/e0f79e02-f8a8-4c89-9e51-31504c3578fb",
          "display": "BMI"
        }, {
          "reference": "Observation/09d2265a-4d70-44c7-9df9-c8146f162641",
          "display": "Heart Rate"
        }, {
          "reference": "Observation/7e8c1784-f4c9-46d6-877e-a960a975f86a",
          "display": "BP Systolic"
        }, {
          "reference": "Observation/9b1c021a-a4d1-4b3b-9f43-8ccdd0571979",
          "display": "BP Systolic"
        }, {
          "reference": "Observation/56ac5df8-96d8-4c6e-be9f-cf739fb7c36d",
          "display": "BP Diastolic"
        }, {
          "reference": "Observation/7fdf2712-fe31-484b-802f-6276f66718f1",
          "display": "Heart Rate"
        }, {
          "reference": "Observation/5e936792-a4a8-4bd4-b78d-af2bbe9502fd",
          "display": "BMI"
        }, {
          "reference": "Observation/48903bbc-e9b1-4ffe-af99-2cd151fb2045",
          "display": "BMI"
        }, {
          "reference": "Observation/463b1840-ced5-470c-a596-1274cf3cf6ea",
          "display": "BP Systolic"
        }, {
          "reference": "Observation/86b4cded-82a4-41b8-a2c4-d27c41454bec",
          "display": "Heart Rate"
        }, {
          "reference": "Observation/6995451d-b551-4633-a34c-d5e176a7c972",
          "display": "BP Diastolic"
        } ]
      } ]
    }
  }, {
    "resource": {
      "resourceType": "Patient",
      "id": "1518dbc9-80de-429e-bd9c-f2971165de28",
      "extension": [ {
        "url": "http://hl7.org/fhir/StructureDefinition/patient-religion",
        "valueCodeableConcept": {
          "coding": [ {
            "system": "urn:oid:2.16.840.1.113883.5.1076",
            "code": "1077",
            "display": "Protestant"
          } ]
        }
      }, {
        "url": "http://hl7.org/fhir/us/core/StructureDefinition/us-core-race",
        "extension": [ {
          "url": "text",
          "valueString": "White"
        }, {
          "url": "ombCategory",
          "valueCoding": {
            "system": "urn:oid:2.16.840.1.113883.6.238",
            "code": "2106-3",
            "display": "White"
          }
        } ]
      }, {
        "url": "http://hl7.org/fhir/us/core/StructureDefinition/us-core-ethnicity",
        "extension": [ {
          "url": "text",
          "valueString": "Not Hispanic or Latino"
        }, {
          "url": "ombCategory",
          "valueCoding": {
            "system": "urn:oid:2.16.840.1.113883.6.238",
            "code": "2186-5",
            "display": "Not Hispanic or Latino"
          }
        } ]
      }, {
        "url": "http://hl7.org/fhir/StructureDefinition/patient-birthPlace",
        "valueAddress": {
          "city": "Norcross",
          "state": "GA",
          "postalCode": "30093",
          "country": "US"
        }
      } ],
      "identifier": [ {
        "use": "official",
        "system": "urn:oid:2.16.840.1.113883.19.5.99999.2",
        "value": "998991"
      }, {
        "use": "official",
        "system": "urn:oid:2.16.840.1.113883.4.1",
        "value": "111-00-2330"
      } ],
      "name": [ {
        "use": "usual",
        "family": "Fox",
        "given": [ "Lillie" ]
      } ],
      "telecom": [ {
        "system": "phone",
        "value": "(989)204-1406",
        "use": "mobile"
      } ],
      "gender": "female",
      "birthDate": "1956-06-15",
      "address": [ {
        "use": "home",
        "line": [ "2279 Wood Street" ],
        "city": "Mount Pleasant",
        "state": "MI",
        "postalCode": "48858",
        "country": "US"
      } ],
      "maritalStatus": {
        "coding": [ {
          "system": "http://terminology.hl7.org/CodeSystem/v3-MaritalStatus",
          "code": "M",
          "display": "Married"
        } ]
      },
      "contact": [ {
        "relationship": [ {
          "coding": [ {
            "system": "http://terminology.hl7.org/CodeSystem/v2-0131",
            "code": "C",
            "display": "Emergency Contact"
          } ]
        } ],
        "name": {
          "family": "Smith",
          "given": [ "Mary" ],
          "prefix": [ "Ms." ]
        },
        "telecom": [ {
          "system": "phone",
          "value": "(781)763-5182",
          "use": "home"
        }, {
          "system": "email",
          "value": "MaryPSmith@einrot.com",
          "use": "work"
        } ],
        "address": {
          "use": "home",
          "line": [ "971 Tenmile Road" ],
          "city": "Boston",
          "state": "MA",
          "postalCode": "2210",
          "country": "US"
        }
      } ],
      "communication": [ {
        "language": {
          "coding": [ {
            "system": "urn:ietf:bcp:47",
            "code": "spa"
          } ]
        },
        "preferred": true
      } ],
      "managingOrganization": {
        "reference": "Organization/9d38d8ec-b254-4f4c-b644-9e0b228987cc",
        "display": "Community Health and Hospitals"
      }
    }
  }, {
    "resource": {
      "resourceType": "Organization",
      "id": "9d38d8ec-b254-4f4c-b644-9e0b228987cc",
      "identifier": [ {
        "use": "official",
        "value": "2.16.840.1.113883.4.6"
      } ],
      "name": "Community Health and Hospitals",
      "telecom": [ {
        "system": "phone",
        "value": " 555-555-5000",
        "use": "work"
      } ],
      "address": [ {
        "line": [ "1001 Village Avenue" ],
        "city": "Portland",
        "state": "OR",
        "postalCode": "99123",
        "country": "US"
      } ]
    }
  }, {
    "resource": {
      "resourceType": "Practitioner",
      "id": "299b101a-26b1-476a-990d-2cd8462d5507",
      "identifier": [ {
        "use": "official",
        "system": "urn:oid:2.16.840.1.113883.4.6",
        "value": "99999999"
      } ],
      "name": [ {
        "family": "Seven",
        "given": [ "Henry" ],
        "suffix": [ "MD" ]
      } ],
      "telecom": [ {
        "system": "phone",
        "value": "555-555-1002",
        "use": "work"
      } ],
      "address": [ {
        "line": [ "1002 Healthcare Drive" ],
        "city": "Portland",
        "state": "OR",
        "postalCode": "99123",
        "country": "US"
      } ]
    }
  }, {
    "resource": {
      "resourceType": "Practitioner",
      "id": "82e97662-df87-431c-b495-9be3930767c9",
      "identifier": [ {
        "use": "official",
        "system": "http://hl7.org/fhir/sid/us-npi",
        "value": "999999999"
      } ],
      "name": [ {
        "family": "Seven",
        "given": [ "Henry" ]
      } ],
      "telecom": [ {
        "system": "phone",
        "value": "555-555-1002",
        "use": "work"
      } ],
      "address": [ {
        "line": [ "1001 Village Avenue" ],
        "city": "Portland",
        "state": "OR",
        "postalCode": "99123",
        "country": "US"
      } ]
    }
  }, {
    "resource": {
      "resourceType": "Practitioner",
      "id": "1807d60a-49ed-49d6-beae-9f9a25cdcb10",
      "identifier": [ {
        "use": "official",
        "system": "http://hl7.org/fhir/sid/us-npi",
        "value": "PseudoMD-1"
      } ],
      "name": [ {
        "family": "Seven",
        "given": [ "Henry" ],
        "suffix": [ "MD" ]
      } ],
      "telecom": [ {
        "system": "phone",
        "value": "+1-555-555-5000",
        "use": "home"
      } ],
      "address": [ {
        "line": [ "1001 Village Avenue" ],
        "city": "Portland",
        "state": "OR",
        "postalCode": "99123",
        "country": "US"
      } ]
    }
  }, {
    "resource": {
      "resourceType": "Organization",
      "id": "ee50c710-087a-4d7c-9f54-65df6213d82b",
      "identifier": [ {
        "use": "official",
        "system": "urn:oid:2.16.840.1.113883.4.6",
        "value": "99999999"
      } ],
      "name": "Community Health and Hospitals",
      "telecom": [ {
        "system": "phone",
        "value": " 555-555-1002",
        "use": "work"
      } ],
      "address": [ {
        "use": "work",
        "line": [ "1002 Healthcare Drive" ],
        "city": "Portland",
        "state": "OR",
        "postalCode": "99123",
        "country": "US"
      } ]
    }
  }, {
    "resource": {
      "resourceType": "MedicationStatement",
      "id": "1d131ca9-6752-4219-8572-fba5eec5cae4",
      "extension": [ {
        "url": "http://hl7.org/fhir/3.0/StructureDefinition/extension-MedicationStatement.status",
        "valueCode": "UNKNOWN"
      } ],
      "identifier": [ {
        "use": "official",
        "value": "cdbd33f0-6cde-11db-9fe1-0800200c9a66"
      } ],
      "status": "completed",
      "medicationReference": {
        "reference": "Medication/033fcebe-cd02-492d-8a82-1b4880f55555",
        "display": "Tamoxifen 20 MG Oral Tablet"
      },
      "subject": {
        "reference": "Patient/1518dbc9-80de-429e-bd9c-f2971165de28",
        "display": "Lillie Fox"
      },
      "effectivePeriod": {
        "start": "2010-07-30T10:00:00+02:00"
      }
    }
  }, {
    "resource": {
      "resourceType": "Medication",
      "id": "033fcebe-cd02-492d-8a82-1b4880f55555",
      "code": {
        "coding": [ {
          "system": "http://www.nlm.nih.gov/research/umls/rxnorm",
          "code": "313195",
          "display": "Tamoxifen 20 MG Oral Tablet"
        } ]
      }
    }
  }, {
    "resource": {
      "resourceType": "DiagnosticReport",
      "id": "e31804ae-a97c-4749-a095-94857bcceb55",
      "identifier": [ {
        "use": "official",
        "value": "7d5a02b0-67a4-11db-bd13-0800200c9a66"
      } ],
      "status": "final",
      "category": [ {
        "coding": [ {
          "system": "http://terminology.hl7.org/CodeSystem/v2-0074",
          "code": "LAB",
          "display": "Laboratory"
        } ]
      } ],
      "code": {
        "coding": [ {
          "system": "http://snomed.info/sct",
          "code": "116147009",
          "display": "Cytology"
        } ]
      },
      "subject": {
        "reference": "Patient/1518dbc9-80de-429e-bd9c-f2971165de28",
        "display": "Lillie Fox"
      },
      "result": [ {
        "reference": "Observation/8956ad59-3099-4093-a874-3f8a2f34b486",
        "display": "Cyto Cervix"
      } ]
    }
  }, {
    "resource": {
      "resourceType": "Observation",
      "id": "8956ad59-3099-4093-a874-3f8a2f34b486",
      "identifier": [ {
        "use": "official",
        "value": "107c2dc0-67a5-11db-bd13-0800200c9a66"
      } ],
      "status": "final",
      "category": [ {
        "coding": [ {
          "system": "http://terminology.hl7.org/CodeSystem/observation-category",
          "code": "laboratory"
        } ]
      } ],
      "code": {
        "coding": [ {
          "system": "http://loinc.org",
          "code": "10524-7",
          "display": "Cyto Cervix"
        }, {
          "system": "http://www.ama-assn.org/go/cpt",
          "code": "88174",
          "display": "Cytopath, c/v auto, in fluid"
        }, {
          "system": "urn:oid:2.16.840.1.113883.6.13",
          "code": "G0147",
          "display": "Scr c/v cyto, automated sys"
        }, {
          "system": "urn:oid:2.16.840.1.113883.6.90",
          "code": "Z12.4",
          "display": "Encounter for screening for malignant neoplasm of cervix"
        }, {
          "system": "urn:oid:2.16.840.1.113883.6.103",
          "code": "V72.32",
          "display": "Encounter for Papanicolaou cervical smear to confirm findings of recent normal smear following initial abnormal smear"
        }, {
          "system": "http://snomed.info/sct",
          "code": "440623000",
          "display": "Microscopic examination of cervical Papanicolaou smear"
        } ]
      },
      "subject": {
        "reference": "Patient/1518dbc9-80de-429e-bd9c-f2971165de28",
        "display": "Lillie Fox"
      },
      "effectivePeriod": {
        "start": "2010-06-22T10:00:00+02:00"
      },
      "valueCodeableConcept": {
        "coding": [ {
          "system": "http://snomed.info/sct",
          "code": "17621005",
          "display": "normal"
        } ]
      },
      "interpretation": [ {
        "coding": [ {
          "system": "http://terminology.hl7.org/CodeSystem/v3-ObservationInterpretation",
          "code": "N"
        } ]
      } ],
      "referenceRange": [ {
        "text": "NA"
      } ]
    }
  }, {
    "resource": {
      "resourceType": "Condition",
      "id": "b4c44b4f-22de-4547-b3be-a333494f01f7",
      "identifier": [ {
        "use": "official",
        "value": "9d3d416d-45ab-4da1-912f-4583e0632000"
      } ],
      "clinicalStatus": {
        "coding": [ {
          "system": "http://terminology.hl7.org/CodeSystem/condition-clinical",
          "code": "active",
          "display": "Active"
        } ]
      },
      "verificationStatus": {
        "coding": [ {
          "system": "http://terminology.hl7.org/CodeSystem/condition-ver-status",
          "code": "confirmed",
          "display": "Confirmed"
        } ]
      },
      "category": [ {
        "coding": [ {
          "system": "http://terminology.hl7.org/CodeSystem/condition-category",
          "code": "problem-list-item",
          "display": "Problem List Item"
        } ]
      } ],
      "code": {
        "coding": [ {
          "system": "http://snomed.info/sct",
          "code": "417742002",
          "display": "Hormone receptor positive tumor"
        } ]
      },
      "subject": {
        "reference": "Patient/1518dbc9-80de-429e-bd9c-f2971165de28",
        "display": "Lillie Fox"
      },
      "onsetDateTime": "2010-07-22T10:00:00+02:00"
    }
  }, {
    "resource": {
      "resourceType": "Observation",
      "id": "9bfd6158-47a6-49dc-ac3b-1bf1f056d70c",
      "identifier": [ {
        "use": "official",
        "system": "urn:oid:2.16.840.1.113883.19",
        "value": "123456789"
      } ],
      "status": "final",
      "code": {
        "coding": [ {
          "system": "urn:oid:2.16.840.1.113883.5.4",
          "code": "ASSERTION"
        } ]
      },
      "subject": {
        "reference": "Patient/1518dbc9-80de-429e-bd9c-f2971165de28",
        "display": "Lillie Fox"
      },
      "effectivePeriod": {
        "start": "2010-06-05T10:00:00+02:00"
      },
      "valueCodeableConcept": {
        "coding": [ {
          "system": "http://snomed.info/sct",
          "code": "266919005",
          "display": "Never smoker (Never Smoked)"
        }, {
          "system": "http://snomed.info/sct",
          "code": "449868002",
          "display": "Current every day smoker"
        } ]
      }
    }
  }, {
    "resource": {
      "resourceType": "AllergyIntolerance",
      "id": "26b57ded-6daf-4ceb-a027-6ef8124d15f0",
      "identifier": [ {
        "use": "official",
        "value": "36e3e930-7b14-11db-9fe1-0800200c9a66"
      } ],
      "clinicalStatus": {
        "coding": [ {
          "system": "http://terminology.hl7.org/CodeSystem/allergyintolerance-clinical",
          "code": "active",
          "display": "Active"
        } ]
      },
      "verificationStatus": {
        "coding": [ {
          "system": "http://terminology.hl7.org/CodeSystem/allergyintolerance-verification",
          "code": "confirmed",
          "display": "Confirmed"
        } ]
      },
      "type": "allergy",
      "category": [ "medication" ],
      "code": {
        "coding": [ {
          "system": "http://www.nlm.nih.gov/research/umls/rxnorm",
          "code": "905148",
          "display": "Amikacin Sulfate 50 MG/ML Injectable Solution"
        } ],
        "text": "Amikacin + Amikacin Sulfate 50 MG/ML Injectable Solution"
      },
      "patient": {
        "reference": "Patient/1518dbc9-80de-429e-bd9c-f2971165de28",
        "display": "Lillie Fox"
      },
      "recordedDate": "2010-06-05T10:00:00+02:00"
    }
  }, {
    "resource": {
      "resourceType": "AllergyIntolerance",
      "id": "8d43b225-ea76-4d7b-8eff-040e3feed194",
      "identifier": [ {
        "use": "official",
        "value": "36e3e930-7b14-11db-9fe1-0800200c9a66"
      } ],
      "clinicalStatus": {
        "coding": [ {
          "system": "http://terminology.hl7.org/CodeSystem/allergyintolerance-clinical",
          "code": "active",
          "display": "Active"
        } ]
      },
      "verificationStatus": {
        "coding": [ {
          "system": "http://terminology.hl7.org/CodeSystem/allergyintolerance-verification",
          "code": "confirmed",
          "display": "Confirmed"
        } ]
      },
      "type": "allergy",
      "category": [ "food" ],
      "code": {
        "coding": [ {
          "system": "http://fdasis.nlm.nih.gov",
          "code": "291P45F896",
          "display": "Eggs"
        }, {
          "system": "urn:oid:2.16.840.1.113883.6.103",
          "code": "V15.03",
          "display": "Allergy to eggs"
        } ],
        "text": "Allergy to Eggs + Eggs"
      },
      "patient": {
        "reference": "Patient/1518dbc9-80de-429e-bd9c-f2971165de28",
        "display": "Lillie Fox"
      },
      "recordedDate": "2010-06-05T10:00:00+02:00"
    }
  }, {
    "resource": {
      "resourceType": "AllergyIntolerance",
      "id": "672fd0ca-f78f-456b-bad0-f676f69d665b",
      "identifier": [ {
        "use": "official",
        "value": "36e3e930-7b14-11db-9fe1-0800200c9a66"
      } ],
      "clinicalStatus": {
        "coding": [ {
          "system": "http://terminology.hl7.org/CodeSystem/allergyintolerance-clinical",
          "code": "active",
          "display": "Active"
        } ]
      },
      "verificationStatus": {
        "coding": [ {
          "system": "http://terminology.hl7.org/CodeSystem/allergyintolerance-verification",
          "code": "confirmed",
          "display": "Confirmed"
        } ]
      },
      "type": "allergy",
      "category": [ "medication" ],
      "code": {
        "coding": [ {
          "system": "urn:oid:2.16.840.1.113883.3.26.1.5",
          "code": "N0000006691",
          "display": "Codeine"
        } ],
        "text": "Codeine + Codeine"
      },
      "patient": {
        "reference": "Patient/1518dbc9-80de-429e-bd9c-f2971165de28",
        "display": "Lillie Fox"
      },
      "recordedDate": "2010-06-05T10:00:00+02:00"
    }
  }, {
    "resource": {
      "resourceType": "Encounter",
      "id": "0d71ec97-e731-4e00-b9d8-2ffd9ffb9c38",
      "identifier": [ {
        "use": "official",
        "value": "2a620155-9d11-439e-92b3-5d9815ff4de8"
      } ],
      "status": "finished",
      "type": [ {
        "coding": [ {
          "system": "http://www.ama-assn.org/go/cpt",
          "code": "99251",
          "display": "Initial inpatient consult"
        } ]
      } ],
      "subject": {
        "reference": "Patient/1518dbc9-80de-429e-bd9c-f2971165de28",
        "display": "Lillie Fox"
      },
      "period": {
        "start": "2010-07-15T10:00:00+02:00"
      }
    }
  }, {
    "resource": {
      "resourceType": "Encounter",
      "id": "56cd63e4-b726-4aa7-a65c-4ec6e6dc022e",
      "identifier": [ {
        "use": "official",
        "value": "2a620155-9d11-439e-92b3-5d9815ff4de8"
      } ],
      "status": "finished",
      "type": [ {
        "coding": [ {
          "system": "http://www.ama-assn.org/go/cpt",
          "code": "99213",
          "display": "Office/outpatient visit, est"
        }, {
          "system": "urn:oid:2.16.840.1.113883.6.103",
          "code": "V70.0",
          "display": "Routine general medical examination at a health care facility"
        } ]
      } ],
      "subject": {
        "reference": "Patient/1518dbc9-80de-429e-bd9c-f2971165de28",
        "display": "Lillie Fox"
      },
      "period": {
        "start": "2010-11-01T10:00:00+01:00"
      }
    }
  }, {
    "resource": {
      "resourceType": "Encounter",
      "id": "2da78ce6-bbbf-44d4-9887-0d7dfa21e6d7",
      "identifier": [ {
        "use": "official",
        "value": "2a620155-9d11-439e-92b3-5d9815ff4de8"
      } ],
      "status": "finished",
      "type": [ {
        "coding": [ {
          "system": "http://www.ama-assn.org/go/cpt",
          "code": "99238",
          "display": "Hospital discharge day"
        } ]
      } ],
      "subject": {
        "reference": "Patient/1518dbc9-80de-429e-bd9c-f2971165de28",
        "display": "Lillie Fox"
      },
      "period": {
        "start": "2010-07-17T10:00:00+02:00"
      }
    }
  }, {
    "resource": {
      "resourceType": "Encounter",
      "id": "7edf7108-358a-4843-8440-9ea7c7f8d88b",
      "identifier": [ {
        "use": "official",
        "value": "2a620155-9d11-439e-92b3-5d9815ff4de8"
      } ],
      "status": "finished",
      "type": [ {
        "coding": [ {
          "system": "http://www.ama-assn.org/go/cpt",
          "code": "99213",
          "display": "Office/outpatient visit, est"
        }, {
          "system": "urn:oid:2.16.840.1.113883.6.103",
          "code": "V70.0",
          "display": "Routine general medical examination at a health care facility"
        } ]
      } ],
      "subject": {
        "reference": "Patient/1518dbc9-80de-429e-bd9c-f2971165de28",
        "display": "Lillie Fox"
      },
      "period": {
        "start": "2010-06-22T10:00:00+02:00"
      }
    }
  }, {
    "resource": {
      "resourceType": "Encounter",
      "id": "9e4f09a7-83a8-4e63-ab6e-1d8aba22fff1",
      "identifier": [ {
        "use": "official",
        "value": "2a620155-9d11-439e-92b3-5d9815ff4de8"
      } ],
      "status": "finished",
      "type": [ {
        "coding": [ {
          "system": "http://www.ama-assn.org/go/cpt",
          "code": "99212",
          "display": "Office/outpatient visit, est"
        } ]
      } ],
      "subject": {
        "reference": "Patient/1518dbc9-80de-429e-bd9c-f2971165de28",
        "display": "Lillie Fox"
      },
      "period": {
        "start": "2010-06-05T10:00:00+02:00"
      }
    }
  }, {
    "resource": {
      "resourceType": "Encounter",
      "id": "59d687ec-a726-42e8-bd22-7874afc22d43",
      "identifier": [ {
        "use": "official",
        "value": "2a620155-9d11-439e-92b3-5d9815ff4de8"
      } ],
      "status": "finished",
      "type": [ {
        "coding": [ {
          "system": "http://www.ama-assn.org/go/cpt",
          "code": "99212",
          "display": "Office/outpatient visit, est"
        } ]
      } ],
      "subject": {
        "reference": "Patient/1518dbc9-80de-429e-bd9c-f2971165de28",
        "display": "Lillie Fox"
      },
      "period": {
        "start": "2010-07-30T10:00:00+02:00"
      }
    }
  }, {
    "resource": {
      "resourceType": "Observation",
      "id": "c8e90929-b5e4-4881-8706-51b01f752ce9",
      "identifier": [ {
        "use": "official",
        "value": "c6f88321-67ad-11db-bd13-0800200c9a66"
      } ],
      "status": "final",
      "category": [ {
        "coding": [ {
          "system": "http://terminology.hl7.org/CodeSystem/observation-category",
          "code": "vital-signs",
          "display": "Vital Signs"
        } ]
      } ],
      "code": {
        "coding": [ {
          "system": "http://loinc.org",
          "code": "8480-6",
          "display": "BP Systolic"
        } ]
      },
      "subject": {
        "reference": "Patient/1518dbc9-80de-429e-bd9c-f2971165de28",
        "display": "Lillie Fox"
      },
      "effectivePeriod": {
        "start": "2010-07-15T10:00:00+02:00"
      },
      "valueQuantity": {
        "value": 110,
        "unit": "mm[Hg]",
        "system": "http://unitsofmeasure.org",
        "code": "mm[Hg]"
      }
    }
  }, {
    "resource": {
      "resourceType": "Observation",
      "id": "b9576227-155b-4add-9033-6047f22db199",
      "identifier": [ {
        "use": "official",
        "value": "c6f88321-67ad-11db-bd13-0800200c9a66"
      } ],
      "status": "final",
      "category": [ {
        "coding": [ {
          "system": "http://terminology.hl7.org/CodeSystem/observation-category",
          "code": "vital-signs",
          "display": "Vital Signs"
        } ]
      } ],
      "code": {
        "coding": [ {
          "system": "http://loinc.org",
          "code": "8867-4",
          "display": "Heart Rate"
        } ]
      },
      "subject": {
        "reference": "Patient/1518dbc9-80de-429e-bd9c-f2971165de28",
        "display": "Lillie Fox"
      },
      "effectivePeriod": {
        "start": "2010-07-15T10:00:00+02:00"
      },
      "valueQuantity": {
        "value": 62,
        "unit": "/min",
        "system": "http://unitsofmeasure.org",
        "code": "/min"
      }
    }
  }, {
    "resource": {
      "resourceType": "Observation",
      "id": "d2da4858-90a3-4000-9bb7-81d58d53af36",
      "identifier": [ {
        "use": "official",
        "value": "c6f88321-67ad-11db-bd13-0800200c9a66"
      } ],
      "status": "final",
      "category": [ {
        "coding": [ {
          "system": "http://terminology.hl7.org/CodeSystem/observation-category",
          "code": "vital-signs",
          "display": "Vital Signs"
        } ]
      } ],
      "code": {
        "coding": [ {
          "system": "http://loinc.org",
          "code": "8462-4",
          "display": "BP Diastolic"
        } ]
      },
      "subject": {
        "reference": "Patient/1518dbc9-80de-429e-bd9c-f2971165de28",
        "display": "Lillie Fox"
      },
      "effectivePeriod": {
        "start": "2010-07-15T10:00:00+02:00"
      },
      "valueQuantity": {
        "value": 66,
        "unit": "mm[Hg]",
        "system": "http://unitsofmeasure.org",
        "code": "mm[Hg]"
      }
    }
  }, {
    "resource": {
      "resourceType": "Observation",
      "id": "46ae6e56-6fe0-48cd-883e-13df810078e8",
      "identifier": [ {
        "use": "official",
        "value": "c6f88321-67ad-11db-bd13-0800200c9a66"
      } ],
      "status": "final",
      "category": [ {
        "coding": [ {
          "system": "http://terminology.hl7.org/CodeSystem/observation-category",
          "code": "vital-signs",
          "display": "Vital Signs"
        } ]
      } ],
      "code": {
        "coding": [ {
          "system": "http://loinc.org",
          "code": "39156-5",
          "display": "BMI"
        } ]
      },
      "subject": {
        "reference": "Patient/1518dbc9-80de-429e-bd9c-f2971165de28",
        "display": "Lillie Fox"
      },
      "effectivePeriod": {
        "start": "2010-07-15T10:00:00+02:00"
      },
      "valueQuantity": {
        "value": 23.9,
        "unit": "kg/m2",
        "system": "http://unitsofmeasure.org",
        "code": "kg/m2"
      }
    }
  }, {
    "resource": {
      "resourceType": "Observation",
      "id": "35400e93-dd5f-4c49-9475-cb7791d1b457",
      "identifier": [ {
        "use": "official",
        "value": "c6f88321-67ad-11db-bd13-0800200c9a66"
      } ],
      "status": "final",
      "category": [ {
        "coding": [ {
          "system": "http://terminology.hl7.org/CodeSystem/observation-category",
          "code": "vital-signs",
          "display": "Vital Signs"
        } ]
      } ],
      "code": {
        "coding": [ {
          "system": "http://loinc.org",
          "code": "39156-5",
          "display": "BMI"
        } ]
      },
      "subject": {
        "reference": "Patient/1518dbc9-80de-429e-bd9c-f2971165de28",
        "display": "Lillie Fox"
      },
      "effectivePeriod": {
        "start": "2010-07-27T10:00:00+02:00"
      },
      "valueQuantity": {
        "value": 24.2,
        "unit": "kg/m2",
        "system": "http://unitsofmeasure.org",
        "code": "kg/m2"
      }
    }
  }, {
    "resource": {
      "resourceType": "Observation",
      "id": "1ad367da-bf0d-46c7-9a30-0fad87ce91cd",
      "identifier": [ {
        "use": "official",
        "value": "c6f88321-67ad-11db-bd13-0800200c9a66"
      } ],
      "status": "final",
      "category": [ {
        "coding": [ {
          "system": "http://terminology.hl7.org/CodeSystem/observation-category",
          "code": "vital-signs",
          "display": "Vital Signs"
        } ]
      } ],
      "code": {
        "coding": [ {
          "system": "http://loinc.org",
          "code": "8867-4",
          "display": "Heart Rate"
        } ]
      },
      "subject": {
        "reference": "Patient/1518dbc9-80de-429e-bd9c-f2971165de28",
        "display": "Lillie Fox"
      },
      "effectivePeriod": {
        "start": "2010-07-27T10:00:00+02:00"
      },
      "valueQuantity": {
        "value": 64,
        "unit": "/min",
        "system": "http://unitsofmeasure.org",
        "code": "/min"
      }
    }
  }, {
    "resource": {
      "resourceType": "Observation",
      "id": "94cf8dae-fe6b-42db-b29e-46d8e8cddf6c",
      "identifier": [ {
        "use": "official",
        "value": "c6f88321-67ad-11db-bd13-0800200c9a66"
      } ],
      "status": "final",
      "category": [ {
        "coding": [ {
          "system": "http://terminology.hl7.org/CodeSystem/observation-category",
          "code": "vital-signs",
          "display": "Vital Signs"
        } ]
      } ],
      "code": {
        "coding": [ {
          "system": "http://loinc.org",
          "code": "8462-4",
          "display": "BP Diastolic"
        } ]
      },
      "subject": {
        "reference": "Patient/1518dbc9-80de-429e-bd9c-f2971165de28",
        "display": "Lillie Fox"
      },
      "effectivePeriod": {
        "start": "2010-07-27T10:00:00+02:00"
      },
      "valueQuantity": {
        "value": 68,
        "unit": "mm[Hg]",
        "system": "http://unitsofmeasure.org",
        "code": "mm[Hg]"
      }
    }
  }, {
    "resource": {
      "resourceType": "Observation",
      "id": "62787982-9726-4b84-be58-ee985d9122fb",
      "identifier": [ {
        "use": "official",
        "value": "c6f88321-67ad-11db-bd13-0800200c9a66"
      } ],
      "status": "final",
      "category": [ {
        "coding": [ {
          "system": "http://terminology.hl7.org/CodeSystem/observation-category",
          "code": "vital-signs",
          "display": "Vital Signs"
        } ]
      } ],
      "code": {
        "coding": [ {
          "system": "http://loinc.org",
          "code": "8480-6",
          "display": "BP Systolic"
        } ]
      },
      "subject": {
        "reference": "Patient/1518dbc9-80de-429e-bd9c-f2971165de28",
        "display": "Lillie Fox"
      },
      "effectivePeriod": {
        "start": "2010-07-27T10:00:00+02:00"
      },
      "valueQuantity": {
        "value": 108,
        "unit": "mm[Hg]",
        "system": "http://unitsofmeasure.org",
        "code": "mm[Hg]"
      }
    }
  }, {
    "resource": {
      "resourceType": "Observation",
      "id": "e846d120-d27d-4eb0-8dbf-e8fdc928159a",
      "identifier": [ {
        "use": "official",
        "value": "c6f88321-67ad-11db-bd13-0800200c9a66"
      } ],
      "status": "final",
      "category": [ {
        "coding": [ {
          "system": "http://terminology.hl7.org/CodeSystem/observation-category",
          "code": "vital-signs",
          "display": "Vital Signs"
        } ]
      } ],
      "code": {
        "coding": [ {
          "system": "http://loinc.org",
          "code": "8462-4",
          "display": "BP Diastolic"
        } ]
      },
      "subject": {
        "reference": "Patient/1518dbc9-80de-429e-bd9c-f2971165de28",
        "display": "Lillie Fox"
      },
      "effectivePeriod": {
        "start": "2010-11-01T10:00:00+01:00"
      },
      "valueQuantity": {
        "value": 64,
        "unit": "mm[Hg]",
        "system": "http://unitsofmeasure.org",
        "code": "mm[Hg]"
      }
    }
  }, {
    "resource": {
      "resourceType": "Observation",
      "id": "e0f79e02-f8a8-4c89-9e51-31504c3578fb",
      "identifier": [ {
        "use": "official",
        "value": "c6f88321-67ad-11db-bd13-0800200c9a66"
      } ],
      "status": "final",
      "category": [ {
        "coding": [ {
          "system": "http://terminology.hl7.org/CodeSystem/observation-category",
          "code": "vital-signs",
          "display": "Vital Signs"
        } ]
      } ],
      "code": {
        "coding": [ {
          "system": "http://loinc.org",
          "code": "39156-5",
          "display": "BMI"
        } ]
      },
      "subject": {
        "reference": "Patient/1518dbc9-80de-429e-bd9c-f2971165de28",
        "display": "Lillie Fox"
      },
      "effectivePeriod": {
        "start": "2010-11-01T10:00:00+01:00"
      },
      "valueQuantity": {
        "value": 23.9,
        "unit": "kg/m2",
        "system": "http://unitsofmeasure.org",
        "code": "kg/m2"
      }
    }
  }, {
    "resource": {
      "resourceType": "Observation",
      "id": "09d2265a-4d70-44c7-9df9-c8146f162641",
      "identifier": [ {
        "use": "official",
        "value": "c6f88321-67ad-11db-bd13-0800200c9a66"
      } ],
      "status": "final",
      "category": [ {
        "coding": [ {
          "system": "http://terminology.hl7.org/CodeSystem/observation-category",
          "code": "vital-signs",
          "display": "Vital Signs"
        } ]
      } ],
      "code": {
        "coding": [ {
          "system": "http://loinc.org",
          "code": "8867-4",
          "display": "Heart Rate"
        } ]
      },
      "subject": {
        "reference": "Patient/1518dbc9-80de-429e-bd9c-f2971165de28",
        "display": "Lillie Fox"
      },
      "effectivePeriod": {
        "start": "2010-11-01T10:00:00+01:00"
      },
      "valueQuantity": {
        "value": 64,
        "unit": "/min",
        "system": "http://unitsofmeasure.org",
        "code": "/min"
      }
    }
  }, {
    "resource": {
      "resourceType": "Observation",
      "id": "7e8c1784-f4c9-46d6-877e-a960a975f86a",
      "identifier": [ {
        "use": "official",
        "value": "c6f88321-67ad-11db-bd13-0800200c9a66"
      } ],
      "status": "final",
      "category": [ {
        "coding": [ {
          "system": "http://terminology.hl7.org/CodeSystem/observation-category",
          "code": "vital-signs",
          "display": "Vital Signs"
        } ]
      } ],
      "code": {
        "coding": [ {
          "system": "http://loinc.org",
          "code": "8480-6",
          "display": "BP Systolic"
        } ]
      },
      "subject": {
        "reference": "Patient/1518dbc9-80de-429e-bd9c-f2971165de28",
        "display": "Lillie Fox"
      },
      "effectivePeriod": {
        "start": "2010-11-01T10:00:00+01:00"
      },
      "valueQuantity": {
        "value": 110,
        "unit": "mm[Hg]",
        "system": "http://unitsofmeasure.org",
        "code": "mm[Hg]"
      }
    }
  }, {
    "resource": {
      "resourceType": "Observation",
      "id": "9b1c021a-a4d1-4b3b-9f43-8ccdd0571979",
      "identifier": [ {
        "use": "official",
        "value": "c6f88321-67ad-11db-bd13-0800200c9a66"
      } ],
      "status": "final",
      "category": [ {
        "coding": [ {
          "system": "http://terminology.hl7.org/CodeSystem/observation-category",
          "code": "vital-signs",
          "display": "Vital Signs"
        } ]
      } ],
      "code": {
        "coding": [ {
          "system": "http://loinc.org",
          "code": "8480-6",
          "display": "BP Systolic"
        } ]
      },
      "subject": {
        "reference": "Patient/1518dbc9-80de-429e-bd9c-f2971165de28",
        "display": "Lillie Fox"
      },
      "effectivePeriod": {
        "start": "2010-09-15T10:00:00+02:00"
      },
      "valueQuantity": {
        "value": 112,
        "unit": "mm[Hg]",
        "system": "http://unitsofmeasure.org",
        "code": "mm[Hg]"
      }
    }
  }, {
    "resource": {
      "resourceType": "Observation",
      "id": "56ac5df8-96d8-4c6e-be9f-cf739fb7c36d",
      "identifier": [ {
        "use": "official",
        "value": "c6f88321-67ad-11db-bd13-0800200c9a66"
      } ],
      "status": "final",
      "category": [ {
        "coding": [ {
          "system": "http://terminology.hl7.org/CodeSystem/observation-category",
          "code": "vital-signs",
          "display": "Vital Signs"
        } ]
      } ],
      "code": {
        "coding": [ {
          "system": "http://loinc.org",
          "code": "8462-4",
          "display": "BP Diastolic"
        } ]
      },
      "subject": {
        "reference": "Patient/1518dbc9-80de-429e-bd9c-f2971165de28",
        "display": "Lillie Fox"
      },
      "effectivePeriod": {
        "start": "2010-09-15T10:00:00+02:00"
      },
      "valueQuantity": {
        "value": 65,
        "unit": "mm[Hg]",
        "system": "http://unitsofmeasure.org",
        "code": "mm[Hg]"
      }
    }
  }, {
    "resource": {
      "resourceType": "Observation",
      "id": "7fdf2712-fe31-484b-802f-6276f66718f1",
      "identifier": [ {
        "use": "official",
        "value": "c6f88321-67ad-11db-bd13-0800200c9a66"
      } ],
      "status": "final",
      "category": [ {
        "coding": [ {
          "system": "http://terminology.hl7.org/CodeSystem/observation-category",
          "code": "vital-signs",
          "display": "Vital Signs"
        } ]
      } ],
      "code": {
        "coding": [ {
          "system": "http://loinc.org",
          "code": "8867-4",
          "display": "Heart Rate"
        } ]
      },
      "subject": {
        "reference": "Patient/1518dbc9-80de-429e-bd9c-f2971165de28",
        "display": "Lillie Fox"
      },
      "effectivePeriod": {
        "start": "2010-09-15T10:00:00+02:00"
      },
      "valueQuantity": {
        "value": 62,
        "unit": "/min",
        "system": "http://unitsofmeasure.org",
        "code": "/min"
      }
    }
  }, {
    "resource": {
      "resourceType": "Observation",
      "id": "5e936792-a4a8-4bd4-b78d-af2bbe9502fd",
      "identifier": [ {
        "use": "official",
        "value": "c6f88321-67ad-11db-bd13-0800200c9a66"
      } ],
      "status": "final",
      "category": [ {
        "coding": [ {
          "system": "http://terminology.hl7.org/CodeSystem/observation-category",
          "code": "vital-signs",
          "display": "Vital Signs"
        } ]
      } ],
      "code": {
        "coding": [ {
          "system": "http://loinc.org",
          "code": "39156-5",
          "display": "BMI"
        } ]
      },
      "subject": {
        "reference": "Patient/1518dbc9-80de-429e-bd9c-f2971165de28",
        "display": "Lillie Fox"
      },
      "effectivePeriod": {
        "start": "2010-06-05T10:00:00+02:00"
      },
      "valueQuantity": {
        "value": 24.4,
        "unit": "kg/m2",
        "system": "http://unitsofmeasure.org",
        "code": "kg/m2"
      }
    }
  }, {
    "resource": {
      "resourceType": "Observation",
      "id": "48903bbc-e9b1-4ffe-af99-2cd151fb2045",
      "identifier": [ {
        "use": "official",
        "value": "c6f88321-67ad-11db-bd13-0800200c9a66"
      } ],
      "status": "final",
      "category": [ {
        "coding": [ {
          "system": "http://terminology.hl7.org/CodeSystem/observation-category",
          "code": "vital-signs",
          "display": "Vital Signs"
        } ]
      } ],
      "code": {
        "coding": [ {
          "system": "http://loinc.org",
          "code": "39156-5",
          "display": "BMI"
        } ]
      },
      "subject": {
        "reference": "Patient/1518dbc9-80de-429e-bd9c-f2971165de28",
        "display": "Lillie Fox"
      },
      "effectivePeriod": {
        "start": "2010-06-22T10:00:00+02:00"
      },
      "valueQuantity": {
        "value": 24,
        "unit": "kg/m2",
        "system": "http://unitsofmeasure.org",
        "code": "kg/m2"
      }
    }
  }, {
    "resource": {
      "resourceType": "Observation",
      "id": "463b1840-ced5-470c-a596-1274cf3cf6ea",
      "identifier": [ {
        "use": "official",
        "value": "c6f88321-67ad-11db-bd13-0800200c9a66"
      } ],
      "status": "final",
      "category": [ {
        "coding": [ {
          "system": "http://terminology.hl7.org/CodeSystem/observation-category",
          "code": "vital-signs",
          "display": "Vital Signs"
        } ]
      } ],
      "code": {
        "coding": [ {
          "system": "http://loinc.org",
          "code": "8480-6",
          "display": "BP Systolic"
        } ]
      },
      "subject": {
        "reference": "Patient/1518dbc9-80de-429e-bd9c-f2971165de28",
        "display": "Lillie Fox"
      },
      "effectivePeriod": {
        "start": "2010-06-22T10:00:00+02:00"
      },
      "valueQuantity": {
        "value": 106,
        "unit": "mm[Hg]",
        "system": "http://unitsofmeasure.org",
        "code": "mm[Hg]"
      }
    }
  }, {
    "resource": {
      "resourceType": "Observation",
      "id": "86b4cded-82a4-41b8-a2c4-d27c41454bec",
      "identifier": [ {
        "use": "official",
        "value": "c6f88321-67ad-11db-bd13-0800200c9a66"
      } ],
      "status": "final",
      "category": [ {
        "coding": [ {
          "system": "http://terminology.hl7.org/CodeSystem/observation-category",
          "code": "vital-signs",
          "display": "Vital Signs"
        } ]
      } ],
      "code": {
        "coding": [ {
          "system": "http://loinc.org",
          "code": "8867-4",
          "display": "Heart Rate"
        } ]
      },
      "subject": {
        "reference": "Patient/1518dbc9-80de-429e-bd9c-f2971165de28",
        "display": "Lillie Fox"
      },
      "effectivePeriod": {
        "start": "2010-06-22T10:00:00+02:00"
      },
      "valueQuantity": {
        "value": 60,
        "unit": "/min",
        "system": "http://unitsofmeasure.org",
        "code": "/min"
      }
    }
  }, {
    "resource": {
      "resourceType": "Observation",
      "id": "6995451d-b551-4633-a34c-d5e176a7c972",
      "identifier": [ {
        "use": "official",
        "value": "c6f88321-67ad-11db-bd13-0800200c9a66"
      } ],
      "status": "final",
      "category": [ {
        "coding": [ {
          "system": "http://terminology.hl7.org/CodeSystem/observation-category",
          "code": "vital-signs",
          "display": "Vital Signs"
        } ]
      } ],
      "code": {
        "coding": [ {
          "system": "http://loinc.org",
          "code": "8462-4",
          "display": "BP Diastolic"
        } ]
      },
      "subject": {
        "reference": "Patient/1518dbc9-80de-429e-bd9c-f2971165de28",
        "display": "Lillie Fox"
      },
      "effectivePeriod": {
        "start": "2010-06-22T10:00:00+02:00"
      },
      "valueQuantity": {
        "value": 64,
        "unit": "mm[Hg]",
        "system": "http://unitsofmeasure.org",
        "code": "mm[Hg]"
      }
    }
  } ]
}