{
  "resourceType": "Bundle",
  "entry": [ {
    "resource": {
      "resourceType": "Composition",
      "id": "35100870-4af4-40e0-b594-13675fdc3726",
      "identifier": {
        "use": "official",
        "value": "db734647-fc99-424c-a864-7e3cda82e703"
      },
      "status": "preliminary",
      "type": {
        "coding": [ {
          "system": "http://loinc.org",
          "code": "34133-9",
          "display": "Summarization of Episode Note"
        } ]
      },
      "category": [ {
        "coding": [ {
          "system": "http://hl7.org/fhir/ValueSet/doc-classcodes",
          "code": "LP173421-7",
          "display": "Note"
        } ]
      } ],
      "subject": {
        "reference": "Patient/9b06e1c6-c23d-4d6e-86e9-3b57d8a0e0b4",
        "display": "Jeffery Jennings"
      },
      "date": "2014-04-16T11:54:54+02:00",
      "author": [ {
        "reference": "Practitioner/d4d125a1-7787-45ff-9007-c3f7d4e17b39",
        "display": "Henry Seven MD"
      } ],
      "title": "Community Health and Hospitals: Health Summary",
      "confidentiality": "N",
      "attester": [ {
        "mode": "legal",
        "time": "2013-04-18T09:00:00+05:00",
        "party": {
          "reference": "Practitioner/8b35a3f7-fcf0-4574-9c64-4d48fddb3f90",
          "display": "Henry Seven"
        }
      }, {
        "mode": "professional",
        "time": "2014-04-16T11:54:54+02:00",
        "party": {
          "reference": "Practitioner/8b35a3f7-fcf0-4574-9c64-4d48fddb3f90",
          "display": "Henry Seven"
        }
      } ],
      "custodian": {
        "reference": "Organization/86b9958d-a56a-47cf-94ea-ee4aa49f7e9e",
        "display": "Community Health and Hospitals"
      },
      "event": [ {
        "period": {
          "start": "2004-07-07T10:00:00+02:00",
          "end": "2011-01-15T10:00:00+01:00"
        },
        "detail": [ {
          "reference": "Practitioner/31b6f633-a24e-443d-a983-904eb3deb90d",
          "display": "Henry Seven MD"
        } ]
      } ],
      "section": [ {
        "title": "Medications",
        "code": {
          "coding": [ {
            "system": "http://loinc.org",
            "code": "10160-0",
            "display": "History of Medication Use"
          } ]
        },
        "text": {
          "status": "additional",
          "div": "<div xmlns=\"http://www.w3.org/1999/xhtml\"><table><thead><tr><th>Group Description</th><th>Code System</th><th>Code</th><th>Code Description</th><th>Date and Time</th><th>Status</th></tr></thead><tbody><tr><td>Antidiabetics</td><td>RxNorm</td><td>744863</td><td><span/>exenatide 0.25 MG/ML Injectable Solution</td><td>03-31-2010 10:00:00</td><td>Active</td></tr><tr><td>Antidiabetics</td><td>RxNorm</td><td>744863</td><td><span/>exenatide 0.25 MG/ML Injectable Solution</td><td>01-15-2011 10:00:00</td><td>Active</td></tr></tbody></table></div>"
        },
        "mode": "snapshot",
        "entry": [ {
          "reference": "MedicationStatement/fa1749e3-72be-453a-a5be-5c2f48f83a55",
          "display": "exenatide 0.25 MG/ML Injectable Solution"
        }, {
          "reference": "MedicationStatement/f7eda438-72b2-42fb-bc69-5052a3ad49b9",
          "display": "exenatide 0.25 MG/ML Injectable Solution"
        } ]
      }, {
        "title": "Procedures",
        "code": {
          "coding": [ {
            "system": "http://loinc.org",
            "code": "47519-4",
            "display": "HISTORY OF PROCEDURES"
          } ]
        },
        "text": {
          "status": "additional",
          "div": "<div xmlns=\"http://www.w3.org/1999/xhtml\"><table><thead><tr><th>Group Description</th><th>Code System</th><th>Code</th><th>Code Description</th><th>Date and Time</th><th>Status</th></tr></thead><tbody><tr><td>dietary consultation order</td><td>SNOMED-CT</td><td>103699006</td><td><span/>Patient referral to dietitian</td><td>03-31-2010 10:00:00</td><td>Performed</td></tr><tr><td>dietary consultation order</td><td>SNOMED-CT</td><td>103699006</td><td><span/>Patient referral to dietitian</td><td>01-15-2011 10:00:00</td><td>Performed</td></tr></tbody></table></div>"
        },
        "mode": "snapshot"
      }, {
        "title": "Problems",
        "code": {
          "coding": [ {
            "system": "http://loinc.org",
            "code": "11450-4",
            "display": "PROBLEM LIST"
          } ]
        },
        "text": {
          "status": "additional",
          "div": "<div xmlns=\"http://www.w3.org/1999/xhtml\"><table><thead><tr><th>Group Description</th><th>Code System</th><th>Code</th><th>Code Description</th><th>Date and Time</th><th>Status</th></tr></thead><tbody><tr><td>Diabetes</td><td>SNOMED-CT</td><td>44054006</td><td><span/>Diabetes mellitus type 2</td><td>02-10-2010 10:00:00</td><td>Active</td></tr><tr><td/><td>ICD-10-CM</td><td>E11.9</td><td>Type 2 diabetes mellitus without complications</td><td/><td/></tr><tr><td/><td>ICD-9-CM</td><td>250.00</td><td>Diabetes mellitus without mention of complication, type II or unspecified type, not stated as uncontrolled</td><td/><td/></tr></tbody></table></div>"
        },
        "mode": "snapshot",
        "entry": [ {
          "reference": "Condition/8c8d8fa5-348d-4dbb-bdff-348e310d62e9",
          "display": "Diabetes mellitus type 2"
        } ]
      }, {
        "title": "Vital Signs",
        "code": {
          "coding": [ {
            "system": "http://loinc.org",
            "code": "8716-3",
            "display": "Vital Signs"
          } ]
        },
        "text": {
          "status": "additional",
          "div": "<div xmlns=\"http://www.w3.org/1999/xhtml\"><table><thead><tr><th>Group Description</th><th>Code System</th><th>Code</th><th>Code Description</th><th>Value</th><th>Unit</th><th>Date and Time</th><th>Status</th></tr></thead><tbody><tr><td>BMI</td><td>LOINC</td><td>39156-5</td><td><span/>BMI</td><td>28.8</td><td>kg/m2</td><td>03-31-2010 10:00:00</td><td>Finding</td></tr><tr><td>Diastolic Blood Pressure</td><td>LOINC</td><td>8462-4</td><td><span/>BP Diastolic</td><td>80</td><td>mm[Hg]</td><td>03-31-2010 10:00:00</td><td>Finding</td></tr><tr><td>Systolic Blood Pressure</td><td>LOINC</td><td>8480-6</td><td><span/>BP Systolic</td><td>124</td><td>mm[Hg]</td><td>03-31-2010 10:00:00</td><td>Finding</td></tr><tr><td>Diastolic Blood Pressure</td><td>LOINC</td><td>8462-4</td><td><span/>BP Diastolic</td><td>84</td><td>mm[Hg]</td><td>05-20-2010 10:00:00</td><td>Finding</td></tr><tr><td>Systolic Blood Pressure</td><td>LOINC</td><td>8480-6</td><td><span/>BP Systolic</td><td>126</td><td>mm[Hg]</td><td>05-20-2010 10:00:00</td><td>Finding</td></tr><tr><td>Diastolic Blood Pressure</td><td>LOINC</td><td>8462-4</td><td><span/>BP Diastolic</td><td>82</td><td>mm[Hg]</td><td>07-09-2010 10:00:00</td><td>Finding</td></tr><tr><td>Systolic Blood Pressure</td><td>LOINC</td><td>8480-6</td><td><span/>BP Systolic</td><td>128</td><td>mm[Hg]</td><td>07-09-2010 10:00:00</td><td>Finding</td></tr><tr><td>BMI</td><td>LOINC</td><td>39156-5</td><td><span/>BMI</td><td>29.2</td><td>kg/m2</td><td>10-02-2010 10:00:00</td><td>Finding</td></tr><tr><td>Diastolic Blood Pressure</td><td>LOINC</td><td>8462-4</td><td><span/>BP Diastolic</td><td>80</td><td>mm[Hg]</td><td>10-02-2010 10:00:00</td><td>Finding</td></tr><tr><td>Systolic Blood Pressure</td><td>LOINC</td><td>8480-6</td><td><span/>BP Systolic</td><td>124</td><td>mm[Hg]</td><td>10-02-2010 10:00:00</td><td>Finding</td></tr><tr><td>BMI</td><td>LOINC</td><td>39156-5</td><td><span/>BMI</td><td>29.3</td><td>kg/m2</td><td>01-15-2011 10:00:00</td><td>Finding</td></tr><tr><td>Diastolic Blood Pressure</td><td>LOINC</td><td>8462-4</td><td><span/>BP Diastolic</td><td>82</td><td>mm[Hg]</td><td>01-15-2011 10:00:00</td><td>Finding</td></tr><tr><td>Systolic Blood Pressure</td><td>LOINC</td><td>8480-6</td><td><span/>BP Systolic</td><td>126</td><td>mm[Hg]</td><td>01-15-2011 10:00:00</td><td>Finding</td></tr></tbody></table></div>"
        },
        "mode": "snapshot",
        "entry": [ {
          "reference": "Observation/9bd441e4-da9d-46e2-b046-96bfd987982b",
          "display": "BP Systolic"
        }, {
          "reference": "Observation/0f362e0d-6a26-497e-924c-29d0188b41c5",
          "display": "BP Diastolic"
        }, {
          "reference": "Observation/b42f40fa-ab97-433d-ad46-07f5bb306ae3",
          "display": "BMI"
        }, {
          "reference": "Observation/375c981d-b0a1-4caa-8239-38dc2b223b49",
          "display": "BP Systolic"
        }, {
          "reference": "Observation/7dd82a3d-5b47-4f51-a79a-984fb84d16cb",
          "display": "BP Diastolic"
        }, {
          "reference": "Observation/047cb096-9275-4b2c-b7f1-35155399ac14",
          "display": "BMI"
        }, {
          "reference": "Observation/a9dc72bd-6f65-41f1-a574-73b4f30b22be",
          "display": "BP Diastolic"
        }, {
          "reference": "Observation/d531b260-a60d-440b-a9db-7f3d913a3b13",
          "display": "BP Systolic"
        }, {
          "reference": "Observation/6649c1bf-616a-4de3-8d03-48e8b7f64ac5",
          "display": "BP Diastolic"
        }, {
          "reference": "Observation/db3f4853-c113-4130-b913-33f928bcba6f",
          "display": "BP Systolic"
        }, {
          "reference": "Observation/19646203-e1eb-4b13-8b11-26cd6d4ce790",
          "display": "BMI"
        }, {
          "reference": "Observation/19fce431-c7bf-4384-95d6-69493d2b6d8e",
          "display": "BP Systolic"
        }, {
          "reference": "Observation/41dbecb0-fdb5-4507-ae56-c807e84ddf6c",
          "display": "BP Diastolic"
        } ]
      }, {
        "title": "Results",
        "code": {
          "coding": [ {
            "system": "http://loinc.org",
            "code": "30954-2",
            "display": "Results"
          } ]
        },
        "text": {
          "status": "additional",
          "div": "<div xmlns=\"http://www.w3.org/1999/xhtml\"><table><thead><tr><th>Group Description</th><th>Code System</th><th>Code</th><th>Code Description</th><th>Value</th><th>Unit</th><th>Reference Range</th><th>Date and Time</th><th>Status</th></tr></thead><tbody><tr><td>HbA1c test</td><td>LOINC</td><td>4548-4</td><td><span/>Hgb A1c MFr Bld</td><td>7.2</td><td>%</td><td>4-5.6%</td><td>03-31-2010 10:00:00</td><td>Completed</td></tr><tr><td/><td>CPT</td><td>83036</td><td>Glycated hemoglobin test</td><td/><td/><td/><td/><td/></tr><tr><td/><td>SNOMED-CT</td><td>43396009</td><td>Hemoglobin A1c measurement</td><td/><td/><td/><td/><td/></tr><tr><td>HbA1c test</td><td>LOINC</td><td>4548-4</td><td><span/>Hgb A1c MFr Bld</td><td>6.6</td><td>%</td><td>4-5.6%</td><td>07-09-2010 10:00:00</td><td>Completed</td></tr><tr><td/><td>CPT</td><td>83036</td><td>Glycated hemoglobin test</td><td/><td/><td/><td/><td/></tr><tr><td/><td>SNOMED-CT</td><td>43396009</td><td>Hemoglobin A1c measurement</td><td/><td/><td/><td/><td/></tr><tr><td>HbA1c test</td><td>LOINC</td><td>4548-4</td><td><span/>Hgb A1c MFr Bld</td><td>6.3</td><td>%</td><td>4-5.6%</td><td>10-02-2010 10:00:00</td><td>Completed</td></tr><tr><td/><td>CPT</td><td>83036</td><td>Glycated hemoglobin test</td><td/><td/><td/><td/><td/></tr><tr><td/><td>SNOMED-CT</td><td>43396009</td><td>Hemoglobin A1c measurement</td><td/><td/><td/><td/><td/></tr><tr><td>HbA1c test</td><td>LOINC</td><td>4548-4</td><td><span/>Hgb A1c MFr Bld</td><td>6.6</td><td>%</td><td>4-5.6%</td><td>01-15-2011 10:00:00</td><td>Completed</td></tr><tr><td/><td>CPT</td><td>83036</td><td>Glycated hemoglobin test</td><td/><td/><td/><td/><td/></tr><tr><td/><td>SNOMED-CT</td><td>43396009</td><td>Hemoglobin A1c measurement</td><td/><td/><td/><td/><td/></tr></tbody></table></div>"
        },
        "mode": "snapshot",
        "entry": [ {
          "reference": "DiagnosticReport/5c16789b-1ea7-4464-a777-dfbd4fe4ebff",
          "display": "Blood Chemistry"
        }, {
          "reference": "DiagnosticReport/68201fbd-62ac-4df1-9ac8-812de6a5f3d8",
          "display": "Blood Chemistry"
        }, {
          "reference": "DiagnosticReport/cbdbaeab-a1bc-4f3d-9f48-d80fb6e0513a",
          "display": "Blood Chemistry"
        }, {
          "reference": "DiagnosticReport/a1fb06f0-ef28-46e3-be15-333cc8f31087",
          "display": "Blood Chemistry"
        } ]
      }, {
        "title": "Allergies,  Adverse Reactions & Alerts",
        "code": {
          "coding": [ {
            "system": "http://loinc.org",
            "code": "48765-2",
            "display": "Allergies, adverse reactions, alerts"
          } ]
        },
        "text": {
          "status": "additional",
          "div": "<div xmlns=\"http://www.w3.org/1999/xhtml\"><table><thead><tr><th>Group Description</th><th>Code System</th><th>Code</th><th>Code Description</th><th>Severity</th><th>Susceptibility</th><th>Date and Time</th><th>Status</th></tr></thead><tbody><tr><td>Allergy to Eggs</td><td>UNII</td><td>291P45F896</td><td><span/>Eggs</td><td><span/>Moderate to severe</td><td>Moderately Susceptible</td><td>07-07-2004 10:00:00</td><td>Active</td></tr><tr><td/><td>ICD-9-CM</td><td>V15.03</td><td>Allergy to eggs</td><td/><td/><td/><td/></tr><tr><td>Amikacin</td><td>RxNorm</td><td>905148</td><td><span/>Amikacin Sulfate 50 MG/ML Injectable Solution</td><td><span/>Mild</td><td>Susceptible</td><td>07-07-2004 10:00:00</td><td>Active</td></tr><tr><td>Codeine</td><td>NDF-RT</td><td>N0000006691</td><td><span/>Codeine</td><td><span/>Moderate to severe</td><td>Susceptible</td><td>07-07-2004 10:00:00</td><td>Active</td></tr></tbody></table></div>"
        },
        "mode": "snapshot",
        "entry": [ {
          "reference": "AllergyIntolerance/ee9a34b6-e3b0-481d-9961-e9c6d9f299a9",
          "display": "Allergy to Eggs + Eggs"
        }, {
          "reference": "AllergyIntolerance/dabc4d7a-2a5a-4323-b425-0d2f850ccb71",
          "display": "Codeine + Codeine"
        }, {
          "reference": "AllergyIntolerance/4c931b2d-5644-4a31-8105-bf8d13f7f64a",
          "display": "Amikacin + Amikacin Sulfate 50 MG/ML Injectable Solution"
        } ]
      }, {
        "title": "Encounters",
        "code": {
          "coding": [ {
            "system": "http://loinc.org",
            "code": "46240-8",
            "display": "History of encounters"
          } ]
        },
        "text": {
          "status": "additional",
          "div": "<div xmlns=\"http://www.w3.org/1999/xhtml\"><table><thead><tr><th>Group Description</th><th>Code System</th><th>Code</th><th>Code Description</th><th>Date and Time</th><th>Status</th></tr></thead><tbody><tr><td>Encounter Outpatient-Children</td><td>ICD-10-CM</td><td>Z00.1</td><td><span/>Encounter for newborn, infant and child health examinations</td><td>07-07-2004 10:00:00</td><td>Performed</td></tr><tr><td>Encounter Outpatient-Children</td><td>ICD-10-CM</td><td>Z00.1</td><td><span/>Encounter for newborn, infant and child health examinations</td><td>08-21-2004 10:00:00</td><td>Performed</td></tr><tr><td>Encounter Outpatient-Children</td><td>ICD-10-CM</td><td>Z00.1</td><td><span/>Encounter for newborn, infant and child health examinations</td><td>10-30-2004 10:00:00</td><td>Performed</td></tr><tr><td>Encounter Outpatient-Children</td><td>ICD-10-CM</td><td>Z00.1</td><td><span/>Encounter for newborn, infant and child health examinations</td><td>12-15-2004 10:00:00</td><td>Performed</td></tr><tr><td>Encounter Outpatient-Children</td><td>ICD-10-CM</td><td>Z00.1</td><td><span/>Encounter for newborn, infant and child health examinations</td><td>02-16-2005 10:00:00</td><td>Performed</td></tr><tr><td>Encounter Outpatient-Children</td><td>ICD-10-CM</td><td>Z00.1</td><td><span/>Encounter for newborn, infant and child health examinations</td><td>08-22-2005 10:00:00</td><td>Performed</td></tr><tr><td>Encounter Outpatient-Children</td><td>ICD-10-CM</td><td>Z00.1</td><td><span/>Encounter for newborn, infant and child health examinations</td><td>11-10-2005 10:00:00</td><td>Performed</td></tr><tr><td>Encounter Outpatient-Children</td><td>ICD-10-CM</td><td>Z00.1</td><td><span/>Encounter for newborn, infant and child health examinations</td><td>02-18-2006 10:00:00</td><td>Performed</td></tr><tr><td>Encounter Outpatient-Children</td><td>ICD-10-CM</td><td>Z00.1</td><td><span/>Encounter for newborn, infant and child health examinations</td><td>09-26-2006 10:00:00</td><td>Performed</td></tr><tr><td>Encounter Outpatient</td><td>CPT</td><td>99213</td><td><span/>Office/outpatient visit, est</td><td>02-06-2008 10:00:00</td><td>Performed</td></tr><tr><td/><td>ICD-9-CM</td><td>V70.0</td><td>Routine general medical examination at a health care facility</td><td/><td/></tr><tr><td>Encounter Outpatient</td><td>CPT</td><td>99213</td><td><span/>Office/outpatient visit, est</td><td>03-31-2010 10:00:00</td><td>Performed</td></tr><tr><td/><td>ICD-9-CM</td><td>V70.0</td><td>Routine general medical examination at a health care facility</td><td/><td/></tr><tr><td>Encounter Outpatient-Children</td><td>ICD-10-CM</td><td>Z00.1</td><td><span/>Encounter for newborn, infant and child health examinations</td><td>05-20-2010 10:00:00</td><td>Performed</td></tr><tr><td>Encounter Outpatient</td><td>CPT</td><td>99213</td><td><span/>Office/outpatient visit, est</td><td>07-09-2010 10:00:00</td><td>Performed</td></tr><tr><td/><td>ICD-9-CM</td><td>V70.0</td><td>Routine general medical examination at a health care facility</td><td/><td/></tr><tr><td>Encounter Outpatient-Children</td><td>ICD-10-CM</td><td>Z00.1</td><td><span/>Encounter for newborn, infant and child health examinations</td><td>10-02-2010 10:00:00</td><td>Performed</td></tr><tr><td>Encounter Outpatient</td><td>CPT</td><td>99213</td><td><span/>Office/outpatient visit, est</td><td>01-15-2011 10:00:00</td><td>Performed</td></tr><tr><td/><td>ICD-9-CM</td><td>V70.0</td><td>Routine general medical examination at a health care facility</td><td/><td/></tr></tbody></table></div>"
        },
        "mode": "snapshot",
        "entry": [ {
          "reference": "Encounter/2f183198-8bf1-4cb5-a52c-e9b3942f5560",
          "display": "Office/outpatient visit, est"
        }, {
          "reference": "Encounter/b9439362-8276-40a2-813c-a6ab3834f087",
          "display": "Office/outpatient visit, est"
        }, {
          "reference": "Encounter/5697b18f-9499-437f-b3cd-3adb61541b18",
          "display": "Office/outpatient visit, est"
        }, {
          "reference": "Encounter/59150522-4273-4510-9472-7aeaf91ef042",
          "display": "Encounter for newborn, infant and child health examinations"
        }, {
          "reference": "Encounter/904cd692-11a9-4acb-8f5c-81e55f559d97",
          "display": "Office/outpatient visit, est"
        }, {
          "reference": "Encounter/1fc5cd73-f11e-4b47-8827-f3b521b290b6",
          "display": "Encounter for newborn, infant and child health examinations"
        }, {
          "reference": "Encounter/a871cd44-ea81-40f5-bc0f-510ea4ed0945",
          "display": "Encounter for newborn, infant and child health examinations"
        }, {
          "reference": "Encounter/f826c9e9-aa4d-4845-bc16-8e4d77fab50f",
          "display": "Encounter for newborn, infant and child health examinations"
        }, {
          "reference": "Encounter/18ef4e64-6239-4d77-8c58-e30354f317a5",
          "display": "Encounter for newborn, infant and child health examinations"
        }, {
          "reference": "Encounter/14090d39-2d81-46b7-8bf0-413821060361",
          "display": "Encounter for newborn, infant and child health examinations"
        }, {
          "reference": "Encounter/d7e04459-7567-4054-b488-0bd02dcb2db6",
          "display": "Encounter for newborn, infant and child health examinations"
        }, {
          "reference": "Encounter/0bc12ba0-e6b1-4e3e-a43d-24d608c67ab5",
          "display": "Encounter for newborn, infant and child health examinations"
        }, {
          "reference": "Encounter/1f587368-b6f4-403f-adfd-6cd617f0b3c6",
          "display": "Encounter for newborn, infant and child health examinations"
        }, {
          "reference": "Encounter/7ec561da-0b80-4b68-9a37-c8f441e78d5d",
          "display": "Encounter for newborn, infant and child health examinations"
        }, {
          "reference": "Encounter/a3d4d858-587f-48a7-b660-c4e1232b8bf7",
          "display": "Encounter for newborn, infant and child health examinations"
        } ]
      }, {
        "title": "Social History",
        "code": {
          "coding": [ {
            "system": "http://loinc.org",
            "code": "29762-2",
            "display": "Social History"
          } ]
        },
        "text": {
          "status": "additional",
          "div": "<div xmlns=\"http://www.w3.org/1999/xhtml\"><table><thead><tr><th>Group Description</th><th>Code System</th><th>Code</th><th>Code Description</th><th>Date and Time</th><th>Status</th></tr></thead><tbody><tr><td>No data</td></tr></tbody></table></div>"
        },
        "mode": "snapshot"
      } ]
    }
  }, {
    "resource": {
      "resourceType": "Patient",
      "id": "9b06e1c6-c23d-4d6e-86e9-3b57d8a0e0b4",
      "extension": [ {
        "url": "http://hl7.org/fhir/StructureDefinition/patient-religion",
        "valueCodeableConcept": {
          "coding": [ {
            "system": "urn:oid:2.16.840.1.113883.5.1076",
            "code": "1020",
            "display": "Hinduism"
          } ]
        }
      }, {
        "url": "http://hl7.org/fhir/us/core/StructureDefinition/us-core-race",
        "extension": [ {
          "url": "text",
          "valueString": "White"
        }, {
          "url": "ombCategory",
          "valueCoding": {
            "system": "urn:oid:2.16.840.1.113883.6.238",
            "code": "2106-3",
            "display": "White"
          }
        } ]
      }, {
        "url": "http://hl7.org/fhir/us/core/StructureDefinition/us-core-ethnicity",
        "extension": [ {
          "url": "text",
          "valueString": "Not Hispanic or Latino"
        }, {
          "url": "ombCategory",
          "valueCoding": {
            "system": "urn:oid:2.16.840.1.113883.6.238",
            "code": "2186-5",
            "display": "Not Hispanic or Latino"
          }
        } ]
      }, {
        "url": "http://hl7.org/fhir/StructureDefinition/patient-birthPlace",
        "valueAddress": {
          "city": "Dallas",
          "state": "TX",
          "postalCode": "75234",
          "country": "US"
        }
      } ],
      "identifier": [ {
        "use": "official",
        "system": "urn:oid:2.16.840.1.113883.19.5.99999.2",
        "value": "998991"
      }, {
        "use": "official",
        "system": "urn:oid:2.16.840.1.113883.4.1",
        "value": "111-00-2330"
      } ],
      "name": [ {
        "use": "usual",
        "family": "Jennings",
        "given": [ "Jeffery" ]
      } ],
      "telecom": [ {
        "system": "phone",
        "value": "(312)845-8152",
        "use": "mobile"
      } ],
      "gender": "male",
      "birthDate": "1997-10-22",
      "address": [ {
        "use": "home",
        "line": [ "2105 Tator Patch Road" ],
        "city": "Chicago",
        "state": "IL",
        "postalCode": "60606",
        "country": "US"
      } ],
      "maritalStatus": {
        "coding": [ {
          "system": "http://terminology.hl7.org/CodeSystem/v3-MaritalStatus",
          "code": "S",
          "display": "Never Married"
        } ]
      },
      "contact": [ {
        "relationship": [ {
          "coding": [ {
            "system": "http://terminology.hl7.org/CodeSystem/v2-0131",
            "code": "C",
            "display": "Emergency Contact"
          } ]
        } ],
        "name": {
          "family": "Walker",
          "given": [ "April" ],
          "prefix": [ "Ms." ]
        },
        "telecom": [ {
          "system": "phone",
          "value": "(256)297-9710",
          "use": "home"
        }, {
          "system": "email",
          "value": "AprilRWalker@dayrep.com",
          "use": "work"
        } ],
        "address": {
          "use": "home",
          "line": [ "1169 Ritter Street" ],
          "city": "Cullman",
          "state": "AL",
          "postalCode": "35055",
          "country": "US"
        }
      } ],
      "communication": [ {
        "language": {
          "coding": [ {
            "system": "urn:ietf:bcp:47",
            "code": "spa"
          } ]
        },
        "preferred": true
      } ],
      "managingOrganization": {
        "reference": "Organization/729e25e5-c451-437a-a139-20ef78e3f8a8",
        "display": "Community Health and Hospitals"
      }
    }
  }, {
    "resource": {
      "resourceType": "Organization",
      "id": "729e25e5-c451-437a-a139-20ef78e3f8a8",
      "identifier": [ {
        "use": "official",
        "value": "2.16.840.1.113883.4.6"
      } ],
      "name": "Community Health and Hospitals",
      "telecom": [ {
        "system": "phone",
        "value": " 555-555-5000",
        "use": "work"
      } ],
      "address": [ {
        "line": [ "1001 Village Avenue" ],
        "city": "Portland",
        "state": "OR",
        "postalCode": "99123",
        "country": "US"
      } ]
    }
  }, {
    "resource": {
      "resourceType": "Practitioner",
      "id": "d4d125a1-7787-45ff-9007-c3f7d4e17b39",
      "identifier": [ {
        "use": "official",
        "system": "urn:oid:2.16.840.1.113883.4.6",
        "value": "99999999"
      } ],
      "name": [ {
        "family": "Seven",
        "given": [ "Henry" ],
        "suffix": [ "MD" ]
      } ],
      "telecom": [ {
        "system": "phone",
        "value": "555-555-1002",
        "use": "work"
      } ],
      "address": [ {
        "line": [ "1002 Healthcare Drive" ],
        "city": "Portland",
        "state": "OR",
        "postalCode": "99123",
        "country": "US"
      } ]
    }
  }, {
    "resource": {
      "resourceType": "Practitioner",
      "id": "8b35a3f7-fcf0-4574-9c64-4d48fddb3f90",
      "identifier": [ {
        "use": "official",
        "system": "http://hl7.org/fhir/sid/us-npi",
        "value": "999999999"
      } ],
      "name": [ {
        "family": "Seven",
        "given": [ "Henry" ]
      } ],
      "telecom": [ {
        "system": "phone",
        "value": "555-555-1002",
        "use": "work"
      } ],
      "address": [ {
        "line": [ "1001 Village Avenue" ],
        "city": "Portland",
        "state": "OR",
        "postalCode": "99123",
        "country": "US"
      } ]
    }
  }, {
    "resource": {
      "resourceType": "Practitioner",
      "id": "31b6f633-a24e-443d-a983-904eb3deb90d",
      "identifier": [ {
        "use": "official",
        "system": "http://hl7.org/fhir/sid/us-npi",
        "value": "PseudoMD-1"
      } ],
      "name": [ {
        "family": "Seven",
        "given": [ "Henry" ],
        "suffix": [ "MD" ]
      } ],
      "telecom": [ {
        "system": "phone",
        "value": "+1-555-555-5000",
        "use": "home"
      } ],
      "address": [ {
        "line": [ "1001 Village Avenue" ],
        "city": "Portland",
        "state": "OR",
        "postalCode": "99123",
        "country": "US"
      } ]
    }
  }, {
    "resource": {
      "resourceType": "Organization",
      "id": "86b9958d-a56a-47cf-94ea-ee4aa49f7e9e",
      "identifier": [ {
        "use": "official",
        "system": "urn:oid:2.16.840.1.113883.4.6",
        "value": "99999999"
      } ],
      "name": "Community Health and Hospitals",
      "telecom": [ {
        "system": "phone",
        "value": " 555-555-1002",
        "use": "work"
      } ],
      "address": [ {
        "use": "work",
        "line": [ "1002 Healthcare Drive" ],
        "city": "Portland",
        "state": "OR",
        "postalCode": "99123",
        "country": "US"
      } ]
    }
  }, {
    "resource": {
      "resourceType": "MedicationStatement",
      "id": "fa1749e3-72be-453a-a5be-5c2f48f83a55",
      "extension": [ {
        "url": "http://hl7.org/fhir/3.0/StructureDefinition/extension-MedicationStatement.status",
        "valueCode": "UNKNOWN"
      } ],
      "identifier": [ {
        "use": "official",
        "value": "cdbd33f0-6cde-11db-9fe1-0800200c9a66"
      } ],
      "status": "completed",
      "medicationReference": {
        "reference": "Medication/9e870e8c-7b69-41e3-aa32-249911384e41",
        "display": "exenatide 0.25 MG/ML Injectable Solution"
      },
      "subject": {
        "reference": "Patient/9b06e1c6-c23d-4d6e-86e9-3b57d8a0e0b4",
        "display": "Jeffery Jennings"
      },
      "effectivePeriod": {
        "start": "2010-03-31T10:00:00+02:00"
      }
    }
  }, {
    "resource": {
      "resourceType": "Medication",
      "id": "9e870e8c-7b69-41e3-aa32-249911384e41",
      "code": {
        "coding": [ {
          "system": "http://www.nlm.nih.gov/research/umls/rxnorm",
          "code": "744863",
          "display": "exenatide 0.25 MG/ML Injectable Solution"
        } ]
      }
    }
  }, {
    "resource": {
      "resourceType": "MedicationStatement",
      "id": "f7eda438-72b2-42fb-bc69-5052a3ad49b9",
      "extension": [ {
        "url": "http://hl7.org/fhir/3.0/StructureDefinition/extension-MedicationStatement.status",
        "valueCode": "UNKNOWN"
      } ],
      "identifier": [ {
        "use": "official",
        "value": "cdbd33f0-6cde-11db-9fe1-0800200c9a66"
      } ],
      "status": "completed",
      "medicationReference": {
        "reference": "Medication/9e870e8c-7b69-41e3-aa32-249911384e41",
        "display": "exenatide 0.25 MG/ML Injectable Solution"
      },
      "subject": {
        "reference": "Patient/9b06e1c6-c23d-4d6e-86e9-3b57d8a0e0b4",
        "display": "Jeffery Jennings"
      },
      "effectivePeriod": {
        "start": "2011-01-15T10:00:00+01:00"
      }
    }
  }, {
    "resource": {
      "resourceType": "Condition",
      "id": "8c8d8fa5-348d-4dbb-bdff-348e310d62e9",
      "identifier": [ {
        "use": "official",
        "value": "9d3d416d-45ab-4da1-912f-4583e0632000"
      } ],
      "clinicalStatus": {
        "coding": [ {
          "system": "http://terminology.hl7.org/CodeSystem/condition-clinical",
          "code": "active",
          "display": "Active"
        } ]
      },
      "verificationStatus": {
        "coding": [ {
          "system": "http://terminology.hl7.org/CodeSystem/condition-ver-status",
          "code": "confirmed",
          "display": "Confirmed"
        } ]
      },
      "category": [ {
        "coding": [ {
          "system": "http://terminology.hl7.org/CodeSystem/condition-category",
          "code": "problem-list-item",
          "display": "Problem List Item"
        } ]
      } ],
      "code": {
        "coding": [ {
          "system": "http://snomed.info/sct",
          "code": "44054006",
          "display": "Diabetes mellitus type 2"
        }, {
          "system": "urn:oid:2.16.840.1.113883.6.90",
          "code": "E11.9",
          "display": "Type 2 diabetes mellitus without complications"
        }, {
          "system": "urn:oid:2.16.840.1.113883.6.103",
          "code": "250.00",
          "display": "Diabetes mellitus without mention of complication, type II or unspecified type, not stated as uncontrolled"
        } ]
      },
      "subject": {
        "reference": "Patient/9b06e1c6-c23d-4d6e-86e9-3b57d8a0e0b4",
        "display": "Jeffery Jennings"
      },
      "onsetDateTime": "2010-02-10T10:00:00+01:00"
    }
  }, {
    "resource": {
      "resourceType": "Observation",
      "id": "9bd441e4-da9d-46e2-b046-96bfd987982b",
      "identifier": [ {
        "use": "official",
        "value": "c6f88321-67ad-11db-bd13-0800200c9a66"
      } ],
      "status": "final",
      "category": [ {
        "coding": [ {
          "system": "http://terminology.hl7.org/CodeSystem/observation-category",
          "code": "vital-signs",
          "display": "Vital Signs"
        } ]
      } ],
      "code": {
        "coding": [ {
          "system": "http://loinc.org",
          "code": "8480-6",
          "display": "BP Systolic"
        } ]
      },
      "subject": {
        "reference": "Patient/9b06e1c6-c23d-4d6e-86e9-3b57d8a0e0b4",
        "display": "Jeffery Jennings"
      },
      "effectivePeriod": {
        "start": "2010-03-31T10:00:00+02:00"
      },
      "valueQuantity": {
        "value": 124,
        "unit": "mm[Hg]",
        "system": "http://unitsofmeasure.org",
        "code": "mm[Hg]"
      }
    }
  }, {
    "resource": {
      "resourceType": "Observation",
      "id": "0f362e0d-6a26-497e-924c-29d0188b41c5",
      "identifier": [ {
        "use": "official",
        "value": "c6f88321-67ad-11db-bd13-0800200c9a66"
      } ],
      "status": "final",
      "category": [ {
        "coding": [ {
          "system": "http://terminology.hl7.org/CodeSystem/observation-category",
          "code": "vital-signs",
          "display": "Vital Signs"
        } ]
      } ],
      "code": {
        "coding": [ {
          "system": "http://loinc.org",
          "code": "8462-4",
          "display": "BP Diastolic"
        } ]
      },
      "subject": {
        "reference": "Patient/9b06e1c6-c23d-4d6e-86e9-3b57d8a0e0b4",
        "display": "Jeffery Jennings"
      },
      "effectivePeriod": {
        "start": "2010-03-31T10:00:00+02:00"
      },
      "valueQuantity": {
        "value": 80,
        "unit": "mm[Hg]",
        "system": "http://unitsofmeasure.org",
        "code": "mm[Hg]"
      }
    }
  }, {
    "resource": {
      "resourceType": "Observation",
      "id": "b42f40fa-ab97-433d-ad46-07f5bb306ae3",
      "identifier": [ {
        "use": "official",
        "value": "c6f88321-67ad-11db-bd13-0800200c9a66"
      } ],
      "status": "final",
      "category": [ {
        "coding": [ {
          "system": "http://terminology.hl7.org/CodeSystem/observation-category",
          "code": "vital-signs",
          "display": "Vital Signs"
        } ]
      } ],
      "code": {
        "coding": [ {
          "system": "http://loinc.org",
          "code": "39156-5",
          "display": "BMI"
        } ]
      },
      "subject": {
        "reference": "Patient/9b06e1c6-c23d-4d6e-86e9-3b57d8a0e0b4",
        "display": "Jeffery Jennings"
      },
      "effectivePeriod": {
        "start": "2010-03-31T10:00:00+02:00"
      },
      "valueQuantity": {
        "value": 28.8,
        "unit": "kg/m2",
        "system": "http://unitsofmeasure.org",
        "code": "kg/m2"
      }
    }
  }, {
    "resource": {
      "resourceType": "Observation",
      "id": "375c981d-b0a1-4caa-8239-38dc2b223b49",
      "identifier": [ {
        "use": "official",
        "value": "c6f88321-67ad-11db-bd13-0800200c9a66"
      } ],
      "status": "final",
      "category": [ {
        "coding": [ {
          "system": "http://terminology.hl7.org/CodeSystem/observation-category",
          "code": "vital-signs",
          "display": "Vital Signs"
        } ]
      } ],
      "code": {
        "coding": [ {
          "system": "http://loinc.org",
          "code": "8480-6",
          "display": "BP Systolic"
        } ]
      },
      "subject": {
        "reference": "Patient/9b06e1c6-c23d-4d6e-86e9-3b57d8a0e0b4",
        "display": "Jeffery Jennings"
      },
      "effectivePeriod": {
        "start": "2010-05-20T10:00:00+02:00"
      },
      "valueQuantity": {
        "value": 126,
        "unit": "mm[Hg]",
        "system": "http://unitsofmeasure.org",
        "code": "mm[Hg]"
      }
    }
  }, {
    "resource": {
      "resourceType": "Observation",
      "id": "7dd82a3d-5b47-4f51-a79a-984fb84d16cb",
      "identifier": [ {
        "use": "official",
        "value": "c6f88321-67ad-11db-bd13-0800200c9a66"
      } ],
      "status": "final",
      "category": [ {
        "coding": [ {
          "system": "http://terminology.hl7.org/CodeSystem/observation-category",
          "code": "vital-signs",
          "display": "Vital Signs"
        } ]
      } ],
      "code": {
        "coding": [ {
          "system": "http://loinc.org",
          "code": "8462-4",
          "display": "BP Diastolic"
        } ]
      },
      "subject": {
        "reference": "Patient/9b06e1c6-c23d-4d6e-86e9-3b57d8a0e0b4",
        "display": "Jeffery Jennings"
      },
      "effectivePeriod": {
        "start": "2010-05-20T10:00:00+02:00"
      },
      "valueQuantity": {
        "value": 84,
        "unit": "mm[Hg]",
        "system": "http://unitsofmeasure.org",
        "code": "mm[Hg]"
      }
    }
  }, {
    "resource": {
      "resourceType": "Observation",
      "id": "047cb096-9275-4b2c-b7f1-35155399ac14",
      "identifier": [ {
        "use": "official",
        "value": "c6f88321-67ad-11db-bd13-0800200c9a66"
      } ],
      "status": "final",
      "category": [ {
        "coding": [ {
          "system": "http://terminology.hl7.org/CodeSystem/observation-category",
          "code": "vital-signs",
          "display": "Vital Signs"
        } ]
      } ],
      "code": {
        "coding": [ {
          "system": "http://loinc.org",
          "code": "39156-5",
          "display": "BMI"
        } ]
      },
      "subject": {
        "reference": "Patient/9b06e1c6-c23d-4d6e-86e9-3b57d8a0e0b4",
        "display": "Jeffery Jennings"
      },
      "effectivePeriod": {
        "start": "2010-10-02T10:00:00+02:00"
      },
      "valueQuantity": {
        "value": 29.2,
        "unit": "kg/m2",
        "system": "http://unitsofmeasure.org",
        "code": "kg/m2"
      }
    }
  }, {
    "resource": {
      "resourceType": "Observation",
      "id": "a9dc72bd-6f65-41f1-a574-73b4f30b22be",
      "identifier": [ {
        "use": "official",
        "value": "c6f88321-67ad-11db-bd13-0800200c9a66"
      } ],
      "status": "final",
      "category": [ {
        "coding": [ {
          "system": "http://terminology.hl7.org/CodeSystem/observation-category",
          "code": "vital-signs",
          "display": "Vital Signs"
        } ]
      } ],
      "code": {
        "coding": [ {
          "system": "http://loinc.org",
          "code": "8462-4",
          "display": "BP Diastolic"
        } ]
      },
      "subject": {
        "reference": "Patient/9b06e1c6-c23d-4d6e-86e9-3b57d8a0e0b4",
        "display": "Jeffery Jennings"
      },
      "effectivePeriod": {
        "start": "2010-10-02T10:00:00+02:00"
      },
      "valueQuantity": {
        "value": 80,
        "unit": "mm[Hg]",
        "system": "http://unitsofmeasure.org",
        "code": "mm[Hg]"
      }
    }
  }, {
    "resource": {
      "resourceType": "Observation",
      "id": "d531b260-a60d-440b-a9db-7f3d913a3b13",
      "identifier": [ {
        "use": "official",
        "value": "c6f88321-67ad-11db-bd13-0800200c9a66"
      } ],
      "status": "final",
      "category": [ {
        "coding": [ {
          "system": "http://terminology.hl7.org/CodeSystem/observation-category",
          "code": "vital-signs",
          "display": "Vital Signs"
        } ]
      } ],
      "code": {
        "coding": [ {
          "system": "http://loinc.org",
          "code": "8480-6",
          "display": "BP Systolic"
        } ]
      },
      "subject": {
        "reference": "Patient/9b06e1c6-c23d-4d6e-86e9-3b57d8a0e0b4",
        "display": "Jeffery Jennings"
      },
      "effectivePeriod": {
        "start": "2010-10-02T10:00:00+02:00"
      },
      "valueQuantity": {
        "value": 124,
        "unit": "mm[Hg]",
        "system": "http://unitsofmeasure.org",
        "code": "mm[Hg]"
      }
    }
  }, {
    "resource": {
      "resourceType": "Observation",
      "id": "6649c1bf-616a-4de3-8d03-48e8b7f64ac5",
      "identifier": [ {
        "use": "official",
        "value": "c6f88321-67ad-11db-bd13-0800200c9a66"
      } ],
      "status": "final",
      "category": [ {
        "coding": [ {
          "system": "http://terminology.hl7.org/CodeSystem/observation-category",
          "code": "vital-signs",
          "display": "Vital Signs"
        } ]
      } ],
      "code": {
        "coding": [ {
          "system": "http://loinc.org",
          "code": "8462-4",
          "display": "BP Diastolic"
        } ]
      },
      "subject": {
        "reference": "Patient/9b06e1c6-c23d-4d6e-86e9-3b57d8a0e0b4",
        "display": "Jeffery Jennings"
      },
      "effectivePeriod": {
        "start": "2010-07-09T10:00:00+02:00"
      },
      "valueQuantity": {
        "value": 82,
        "unit": "mm[Hg]",
        "system": "http://unitsofmeasure.org",
        "code": "mm[Hg]"
      }
    }
  }, {
    "resource": {
      "resourceType": "Observation",
      "id": "db3f4853-c113-4130-b913-33f928bcba6f",
      "identifier": [ {
        "use": "official",
        "value": "c6f88321-67ad-11db-bd13-0800200c9a66"
      } ],
      "status": "final",
      "category": [ {
        "coding": [ {
          "system": "http://terminology.hl7.org/CodeSystem/observation-category",
          "code": "vital-signs",
          "display": "Vital Signs"
        } ]
      } ],
      "code": {
        "coding": [ {
          "system": "http://loinc.org",
          "code": "8480-6",
          "display": "BP Systolic"
        } ]
      },
      "subject": {
        "reference": "Patient/9b06e1c6-c23d-4d6e-86e9-3b57d8a0e0b4",
        "display": "Jeffery Jennings"
      },
      "effectivePeriod": {
        "start": "2010-07-09T10:00:00+02:00"
      },
      "valueQuantity": {
        "value": 128,
        "unit": "mm[Hg]",
        "system": "http://unitsofmeasure.org",
        "code": "mm[Hg]"
      }
    }
  }, {
    "resource": {
      "resourceType": "Observation",
      "id": "19646203-e1eb-4b13-8b11-26cd6d4ce790",
      "identifier": [ {
        "use": "official",
        "value": "c6f88321-67ad-11db-bd13-0800200c9a66"
      } ],
      "status": "final",
      "category": [ {
        "coding": [ {
          "system": "http://terminology.hl7.org/CodeSystem/observation-category",
          "code": "vital-signs",
          "display": "Vital Signs"
        } ]
      } ],
      "code": {
        "coding": [ {
          "system": "http://loinc.org",
          "code": "39156-5",
          "display": "BMI"
        } ]
      },
      "subject": {
        "reference": "Patient/9b06e1c6-c23d-4d6e-86e9-3b57d8a0e0b4",
        "display": "Jeffery Jennings"
      },
      "effectivePeriod": {
        "start": "2011-01-15T10:00:00+01:00"
      },
      "valueQuantity": {
        "value": 29.3,
        "unit": "kg/m2",
        "system": "http://unitsofmeasure.org",
        "code": "kg/m2"
      }
    }
  }, {
    "resource": {
      "resourceType": "Observation",
      "id": "19fce431-c7bf-4384-95d6-69493d2b6d8e",
      "identifier": [ {
        "use": "official",
        "value": "c6f88321-67ad-11db-bd13-0800200c9a66"
      } ],
      "status": "final",
      "category": [ {
        "coding": [ {
          "system": "http://terminology.hl7.org/CodeSystem/observation-category",
          "code": "vital-signs",
          "display": "Vital Signs"
        } ]
      } ],
      "code": {
        "coding": [ {
          "system": "http://loinc.org",
          "code": "8480-6",
          "display": "BP Systolic"
        } ]
      },
      "subject": {
        "reference": "Patient/9b06e1c6-c23d-4d6e-86e9-3b57d8a0e0b4",
        "display": "Jeffery Jennings"
      },
      "effectivePeriod": {
        "start": "2011-01-15T10:00:00+01:00"
      },
      "valueQuantity": {
        "value": 126,
        "unit": "mm[Hg]",
        "system": "http://unitsofmeasure.org",
        "code": "mm[Hg]"
      }
    }
  }, {
    "resource": {
      "resourceType": "Observation",
      "id": "41dbecb0-fdb5-4507-ae56-c807e84ddf6c",
      "identifier": [ {
        "use": "official",
        "value": "c6f88321-67ad-11db-bd13-0800200c9a66"
      } ],
      "status": "final",
      "category": [ {
        "coding": [ {
          "system": "http://terminology.hl7.org/CodeSystem/observation-category",
          "code": "vital-signs",
          "display": "Vital Signs"
        } ]
      } ],
      "code": {
        "coding": [ {
          "system": "http://loinc.org",
          "code": "8462-4",
          "display": "BP Diastolic"
        } ]
      },
      "subject": {
        "reference": "Patient/9b06e1c6-c23d-4d6e-86e9-3b57d8a0e0b4",
        "display": "Jeffery Jennings"
      },
      "effectivePeriod": {
        "start": "2011-01-15T10:00:00+01:00"
      },
      "valueQuantity": {
        "value": 82,
        "unit": "mm[Hg]",
        "system": "http://unitsofmeasure.org",
        "code": "mm[Hg]"
      }
    }
  }, {
    "resource": {
      "resourceType": "DiagnosticReport",
      "id": "5c16789b-1ea7-4464-a777-dfbd4fe4ebff",
      "identifier": [ {
        "use": "official",
        "value": "7d5a02b0-67a4-11db-bd13-0800200c9a66"
      } ],
      "status": "final",
      "category": [ {
        "coding": [ {
          "system": "http://terminology.hl7.org/CodeSystem/v2-0074",
          "code": "LAB",
          "display": "Laboratory"
        } ]
      } ],
      "code": {
        "coding": [ {
          "system": "http://snomed.info/sct",
          "code": "166312007",
          "display": "Blood Chemistry"
        } ]
      },
      "subject": {
        "reference": "Patient/9b06e1c6-c23d-4d6e-86e9-3b57d8a0e0b4",
        "display": "Jeffery Jennings"
      },
      "result": [ {
        "reference": "Observation/620d7526-353b-48c1-b25b-671f169a67b6",
        "display": "Hgb A1c MFr Bld"
      } ]
    }
  }, {
    "resource": {
      "resourceType": "Observation",
      "id": "620d7526-353b-48c1-b25b-671f169a67b6",
      "identifier": [ {
        "use": "official",
        "value": "107c2dc0-67a5-11db-bd13-0800200c9a66"
      } ],
      "status": "final",
      "category": [ {
        "coding": [ {
          "system": "http://terminology.hl7.org/CodeSystem/observation-category",
          "code": "laboratory"
        } ]
      } ],
      "code": {
        "coding": [ {
          "system": "http://loinc.org",
          "code": "4548-4",
          "display": "Hgb A1c MFr Bld"
        }, {
          "system": "http://www.ama-assn.org/go/cpt",
          "code": "83036",
          "display": "Glycated hemoglobin test"
        }, {
          "system": "http://snomed.info/sct",
          "code": "43396009",
          "display": "Hemoglobin A1c measurement"
        } ]
      },
      "subject": {
        "reference": "Patient/9b06e1c6-c23d-4d6e-86e9-3b57d8a0e0b4",
        "display": "Jeffery Jennings"
      },
      "effectivePeriod": {
        "start": "2010-10-02T10:00:00+02:00"
      },
      "valueQuantity": {
        "value": 6.3,
        "unit": "%",
        "system": "http://unitsofmeasure.org",
        "code": "%"
      },
      "interpretation": [ {
        "coding": [ {
          "system": "http://terminology.hl7.org/CodeSystem/v3-ObservationInterpretation",
          "code": "N"
        } ]
      } ],
      "referenceRange": [ {
        "text": "4-5.6%"
      } ]
    }
  }, {
    "resource": {
      "resourceType": "DiagnosticReport",
      "id": "68201fbd-62ac-4df1-9ac8-812de6a5f3d8",
      "identifier": [ {
        "use": "official",
        "value": "7d5a02b0-67a4-11db-bd13-0800200c9a66"
      } ],
      "status": "final",
      "category": [ {
        "coding": [ {
          "system": "http://terminology.hl7.org/CodeSystem/v2-0074",
          "code": "LAB",
          "display": "Laboratory"
        } ]
      } ],
      "code": {
        "coding": [ {
          "system": "http://snomed.info/sct",
          "code": "166312007",
          "display": "Blood Chemistry"
        } ]
      },
      "subject": {
        "reference": "Patient/9b06e1c6-c23d-4d6e-86e9-3b57d8a0e0b4",
        "display": "Jeffery Jennings"
      },
      "result": [ {
        "reference": "Observation/8439d3dc-fa51-48c3-afa5-364045aea27c",
        "display": "Hgb A1c MFr Bld"
      } ]
    }
  }, {
    "resource": {
      "resourceType": "Observation",
      "id": "8439d3dc-fa51-48c3-afa5-364045aea27c",
      "identifier": [ {
        "use": "official",
        "value": "107c2dc0-67a5-11db-bd13-0800200c9a66"
      } ],
      "status": "final",
      "category": [ {
        "coding": [ {
          "system": "http://terminology.hl7.org/CodeSystem/observation-category",
          "code": "laboratory"
        } ]
      } ],
      "code": {
        "coding": [ {
          "system": "http://loinc.org",
          "code": "4548-4",
          "display": "Hgb A1c MFr Bld"
        }, {
          "system": "http://www.ama-assn.org/go/cpt",
          "code": "83036",
          "display": "Glycated hemoglobin test"
        }, {
          "system": "http://snomed.info/sct",
          "code": "43396009",
          "display": "Hemoglobin A1c measurement"
        } ]
      },
      "subject": {
        "reference": "Patient/9b06e1c6-c23d-4d6e-86e9-3b57d8a0e0b4",
        "display": "Jeffery Jennings"
      },
      "effectivePeriod": {
        "start": "2011-01-15T10:00:00+01:00"
      },
      "valueQuantity": {
        "value": 6.6,
        "unit": "%",
        "system": "http://unitsofmeasure.org",
        "code": "%"
      },
      "interpretation": [ {
        "coding": [ {
          "system": "http://terminology.hl7.org/CodeSystem/v3-ObservationInterpretation",
          "code": "N"
        } ]
      } ],
      "referenceRange": [ {
        "text": "4-5.6%"
      } ]
    }
  }, {
    "resource": {
      "resourceType": "DiagnosticReport",
      "id": "cbdbaeab-a1bc-4f3d-9f48-d80fb6e0513a",
      "identifier": [ {
        "use": "official",
        "value": "7d5a02b0-67a4-11db-bd13-0800200c9a66"
      } ],
      "status": "final",
      "category": [ {
        "coding": [ {
          "system": "http://terminology.hl7.org/CodeSystem/v2-0074",
          "code": "LAB",
          "display": "Laboratory"
        } ]
      } ],
      "code": {
        "coding": [ {
          "system": "http://snomed.info/sct",
          "code": "166312007",
          "display": "Blood Chemistry"
        } ]
      },
      "subject": {
        "reference": "Patient/9b06e1c6-c23d-4d6e-86e9-3b57d8a0e0b4",
        "display": "Jeffery Jennings"
      },
      "result": [ {
        "reference": "Observation/8f3a7971-d46d-4472-978b-bbab0edc3c56",
        "display": "Hgb A1c MFr Bld"
      } ]
    }
  }, {
    "resource": {
      "resourceType": "Observation",
      "id": "8f3a7971-d46d-4472-978b-bbab0edc3c56",
      "identifier": [ {
        "use": "official",
        "value": "107c2dc0-67a5-11db-bd13-0800200c9a66"
      } ],
      "status": "final",
      "category": [ {
        "coding": [ {
          "system": "http://terminology.hl7.org/CodeSystem/observation-category",
          "code": "laboratory"
        } ]
      } ],
      "code": {
        "coding": [ {
          "system": "http://loinc.org",
          "code": "4548-4",
          "display": "Hgb A1c MFr Bld"
        }, {
          "system": "http://www.ama-assn.org/go/cpt",
          "code": "83036",
          "display": "Glycated hemoglobin test"
        }, {
          "system": "http://snomed.info/sct",
          "code": "43396009",
          "display": "Hemoglobin A1c measurement"
        } ]
      },
      "subject": {
        "reference": "Patient/9b06e1c6-c23d-4d6e-86e9-3b57d8a0e0b4",
        "display": "Jeffery Jennings"
      },
      "effectivePeriod": {
        "start": "2010-03-31T10:00:00+02:00"
      },
      "valueQuantity": {
        "value": 7.2,
        "unit": "%",
        "system": "http://unitsofmeasure.org",
        "code": "%"
      },
      "interpretation": [ {
        "coding": [ {
          "system": "http://terminology.hl7.org/CodeSystem/v3-ObservationInterpretation",
          "code": "N"
        } ]
      } ],
      "referenceRange": [ {
        "text": "4-5.6%"
      } ]
    }
  }, {
    "resource": {
      "resourceType": "DiagnosticReport",
      "id": "a1fb06f0-ef28-46e3-be15-333cc8f31087",
      "identifier": [ {
        "use": "official",
        "value": "7d5a02b0-67a4-11db-bd13-0800200c9a66"
      } ],
      "status": "final",
      "category": [ {
        "coding": [ {
          "system": "http://terminology.hl7.org/CodeSystem/v2-0074",
          "code": "LAB",
          "display": "Laboratory"
        } ]
      } ],
      "code": {
        "coding": [ {
          "system": "http://snomed.info/sct",
          "code": "166312007",
          "display": "Blood Chemistry"
        } ]
      },
      "subject": {
        "reference": "Patient/9b06e1c6-c23d-4d6e-86e9-3b57d8a0e0b4",
        "display": "Jeffery Jennings"
      },
      "result": [ {
        "reference": "Observation/2b6c0bca-f245-4b95-beef-156e6d82a194",
        "display": "Hgb A1c MFr Bld"
      } ]
    }
  }, {
    "resource": {
      "resourceType": "Observation",
      "id": "2b6c0bca-f245-4b95-beef-156e6d82a194",
      "identifier": [ {
        "use": "official",
        "value": "107c2dc0-67a5-11db-bd13-0800200c9a66"
      } ],
      "status": "final",
      "category": [ {
        "coding": [ {
          "system": "http://terminology.hl7.org/CodeSystem/observation-category",
          "code": "laboratory"
        } ]
      } ],
      "code": {
        "coding": [ {
          "system": "http://loinc.org",
          "code": "4548-4",
          "display": "Hgb A1c MFr Bld"
        }, {
          "system": "http://www.ama-assn.org/go/cpt",
          "code": "83036",
          "display": "Glycated hemoglobin test"
        }, {
          "system": "http://snomed.info/sct",
          "code": "43396009",
          "display": "Hemoglobin A1c measurement"
        } ]
      },
      "subject": {
        "reference": "Patient/9b06e1c6-c23d-4d6e-86e9-3b57d8a0e0b4",
        "display": "Jeffery Jennings"
      },
      "effectivePeriod": {
        "start": "2010-07-09T10:00:00+02:00"
      },
      "valueQuantity": {
        "value": 6.6,
        "unit": "%",
        "system": "http://unitsofmeasure.org",
        "code": "%"
      },
      "interpretation": [ {
        "coding": [ {
          "system": "http://terminology.hl7.org/CodeSystem/v3-ObservationInterpretation",
          "code": "N"
        } ]
      } ],
      "referenceRange": [ {
        "text": "4-5.6%"
      } ]
    }
  }, {
    "resource": {
      "resourceType": "AllergyIntolerance",
      "id": "ee9a34b6-e3b0-481d-9961-e9c6d9f299a9",
      "identifier": [ {
        "use": "official",
        "value": "36e3e930-7b14-11db-9fe1-0800200c9a66"
      } ],
      "clinicalStatus": {
        "coding": [ {
          "system": "http://terminology.hl7.org/CodeSystem/allergyintolerance-clinical",
          "code": "active",
          "display": "Active"
        } ]
      },
      "verificationStatus": {
        "coding": [ {
          "system": "http://terminology.hl7.org/CodeSystem/allergyintolerance-verification",
          "code": "confirmed",
          "display": "Confirmed"
        } ]
      },
      "type": "allergy",
      "category": [ "food" ],
      "code": {
        "coding": [ {
          "system": "http://fdasis.nlm.nih.gov",
          "code": "291P45F896",
          "display": "Eggs"
        }, {
          "system": "urn:oid:2.16.840.1.113883.6.103",
          "code": "V15.03",
          "display": "Allergy to eggs"
        } ],
        "text": "Allergy to Eggs + Eggs"
      },
      "patient": {
        "reference": "Patient/9b06e1c6-c23d-4d6e-86e9-3b57d8a0e0b4",
        "display": "Jeffery Jennings"
      },
      "recordedDate": "2004-07-07T10:00:00+02:00"
    }
  }, {
    "resource": {
      "resourceType": "AllergyIntolerance",
      "id": "dabc4d7a-2a5a-4323-b425-0d2f850ccb71",
      "identifier": [ {
        "use": "official",
        "value": "36e3e930-7b14-11db-9fe1-0800200c9a66"
      } ],
      "clinicalStatus": {
        "coding": [ {
          "system": "http://terminology.hl7.org/CodeSystem/allergyintolerance-clinical",
          "code": "active",
          "display": "Active"
        } ]
      },
      "verificationStatus": {
        "coding": [ {
          "system": "http://terminology.hl7.org/CodeSystem/allergyintolerance-verification",
          "code": "confirmed",
          "display": "Confirmed"
        } ]
      },
      "type": "allergy",
      "category": [ "medication" ],
      "code": {
        "coding": [ {
          "system": "urn:oid:2.16.840.1.113883.3.26.1.5",
          "code": "N0000006691",
          "display": "Codeine"
        } ],
        "text": "Codeine + Codeine"
      },
      "patient": {
        "reference": "Patient/9b06e1c6-c23d-4d6e-86e9-3b57d8a0e0b4",
        "display": "Jeffery Jennings"
      },
      "recordedDate": "2004-07-07T10:00:00+02:00"
    }
  }, {
    "resource": {
      "resourceType": "AllergyIntolerance",
      "id": "4c931b2d-5644-4a31-8105-bf8d13f7f64a",
      "identifier": [ {
        "use": "official",
        "value": "36e3e930-7b14-11db-9fe1-0800200c9a66"
      } ],
      "clinicalStatus": {
        "coding": [ {
          "system": "http://terminology.hl7.org/CodeSystem/allergyintolerance-clinical",
          "code": "active",
          "display": "Active"
        } ]
      },
      "verificationStatus": {
        "coding": [ {
          "system": "http://terminology.hl7.org/CodeSystem/allergyintolerance-verification",
          "code": "confirmed",
          "display": "Confirmed"
        } ]
      },
      "type": "allergy",
      "category": [ "medication" ],
      "code": {
        "coding": [ {
          "system": "http://www.nlm.nih.gov/research/umls/rxnorm",
          "code": "905148",
          "display": "Amikacin Sulfate 50 MG/ML Injectable Solution"
        } ],
        "text": "Amikacin + Amikacin Sulfate 50 MG/ML Injectable Solution"
      },
      "patient": {
        "reference": "Patient/9b06e1c6-c23d-4d6e-86e9-3b57d8a0e0b4",
        "display": "Jeffery Jennings"
      },
      "recordedDate": "2004-07-07T10:00:00+02:00"
    }
  }, {
    "resource": {
      "resourceType": "Encounter",
      "id": "2f183198-8bf1-4cb5-a52c-e9b3942f5560",
      "identifier": [ {
        "use": "official",
        "value": "2a620155-9d11-439e-92b3-5d9815ff4de8"
      } ],
      "status": "finished",
      "type": [ {
        "coding": [ {
          "system": "http://www.ama-assn.org/go/cpt",
          "code": "99213",
          "display": "Office/outpatient visit, est"
        }, {
          "system": "urn:oid:2.16.840.1.113883.6.103",
          "code": "V70.0",
          "display": "Routine general medical examination at a health care facility"
        } ]
      } ],
      "subject": {
        "reference": "Patient/9b06e1c6-c23d-4d6e-86e9-3b57d8a0e0b4",
        "display": "Jeffery Jennings"
      },
      "period": {
        "start": "2010-03-31T10:00:00+02:00"
      }
    }
  }, {
    "resource": {
      "resourceType": "Encounter",
      "id": "b9439362-8276-40a2-813c-a6ab3834f087",
      "identifier": [ {
        "use": "official",
        "value": "2a620155-9d11-439e-92b3-5d9815ff4de8"
      } ],
      "status": "finished",
      "type": [ {
        "coding": [ {
          "system": "http://www.ama-assn.org/go/cpt",
          "code": "99213",
          "display": "Office/outpatient visit, est"
        }, {
          "system": "urn:oid:2.16.840.1.113883.6.103",
          "code": "V70.0",
          "display": "Routine general medical examination at a health care facility"
        } ]
      } ],
      "subject": {
        "reference": "Patient/9b06e1c6-c23d-4d6e-86e9-3b57d8a0e0b4",
        "display": "Jeffery Jennings"
      },
      "period": {
        "start": "2011-01-15T10:00:00+01:00"
      }
    }
  }, {
    "resource": {
      "resourceType": "Encounter",
      "id": "5697b18f-9499-437f-b3cd-3adb61541b18",
      "identifier": [ {
        "use": "official",
        "value": "2a620155-9d11-439e-92b3-5d9815ff4de8"
      } ],
      "status": "finished",
      "type": [ {
        "coding": [ {
          "system": "http://www.ama-assn.org/go/cpt",
          "code": "99213",
          "display": "Office/outpatient visit, est"
        }, {
          "system": "urn:oid:2.16.840.1.113883.6.103",
          "code": "V70.0",
          "display": "Routine general medical examination at a health care facility"
        } ]
      } ],
      "subject": {
        "reference": "Patient/9b06e1c6-c23d-4d6e-86e9-3b57d8a0e0b4",
        "display": "Jeffery Jennings"
      },
      "period": {
        "start": "2010-07-09T10:00:00+02:00"
      }
    }
  }, {
    "resource": {
      "resourceType": "Encounter",
      "id": "59150522-4273-4510-9472-7aeaf91ef042",
      "identifier": [ {
        "use": "official",
        "value": "2a620155-9d11-439e-92b3-5d9815ff4de8"
      } ],
      "status": "finished",
      "type": [ {
        "coding": [ {
          "system": "urn:oid:2.16.840.1.113883.6.90",
          "code": "Z00.1",
          "display": "Encounter for newborn, infant and child health examinations"
        } ]
      } ],
      "subject": {
        "reference": "Patient/9b06e1c6-c23d-4d6e-86e9-3b57d8a0e0b4",
        "display": "Jeffery Jennings"
      },
      "period": {
        "start": "2004-07-07T10:00:00+02:00"
      }
    }
  }, {
    "resource": {
      "resourceType": "Encounter",
      "id": "904cd692-11a9-4acb-8f5c-81e55f559d97",
      "identifier": [ {
        "use": "official",
        "value": "2a620155-9d11-439e-92b3-5d9815ff4de8"
      } ],
      "status": "finished",
      "type": [ {
        "coding": [ {
          "system": "http://www.ama-assn.org/go/cpt",
          "code": "99213",
          "display": "Office/outpatient visit, est"
        }, {
          "system": "urn:oid:2.16.840.1.113883.6.103",
          "code": "V70.0",
          "display": "Routine general medical examination at a health care facility"
        } ]
      } ],
      "subject": {
        "reference": "Patient/9b06e1c6-c23d-4d6e-86e9-3b57d8a0e0b4",
        "display": "Jeffery Jennings"
      },
      "period": {
        "start": "2008-02-06T10:00:00+01:00"
      }
    }
  }, {
    "resource": {
      "resourceType": "Encounter",
      "id": "1fc5cd73-f11e-4b47-8827-f3b521b290b6",
      "identifier": [ {
        "use": "official",
        "value": "2a620155-9d11-439e-92b3-5d9815ff4de8"
      } ],
      "status": "finished",
      "type": [ {
        "coding": [ {
          "system": "urn:oid:2.16.840.1.113883.6.90",
          "code": "Z00.1",
          "display": "Encounter for newborn, infant and child health examinations"
        } ]
      } ],
      "subject": {
        "reference": "Patient/9b06e1c6-c23d-4d6e-86e9-3b57d8a0e0b4",
        "display": "Jeffery Jennings"
      },
      "period": {
        "start": "2004-08-21T10:00:00+02:00"
      }
    }
  }, {
    "resource": {
      "resourceType": "Encounter",
      "id": "a871cd44-ea81-40f5-bc0f-510ea4ed0945",
      "identifier": [ {
        "use": "official",
        "value": "2a620155-9d11-439e-92b3-5d9815ff4de8"
      } ],
      "status": "finished",
      "type": [ {
        "coding": [ {
          "system": "urn:oid:2.16.840.1.113883.6.90",
          "code": "Z00.1",
          "display": "Encounter for newborn, infant and child health examinations"
        } ]
      } ],
      "subject": {
        "reference": "Patient/9b06e1c6-c23d-4d6e-86e9-3b57d8a0e0b4",
        "display": "Jeffery Jennings"
      },
      "period": {
        "start": "2004-10-30T10:00:00+02:00"
      }
    }
  }, {
    "resource": {
      "resourceType": "Encounter",
      "id": "f826c9e9-aa4d-4845-bc16-8e4d77fab50f",
      "identifier": [ {
        "use": "official",
        "value": "2a620155-9d11-439e-92b3-5d9815ff4de8"
      } ],
      "status": "finished",
      "type": [ {
        "coding": [ {
          "system": "urn:oid:2.16.840.1.113883.6.90",
          "code": "Z00.1",
          "display": "Encounter for newborn, infant and child health examinations"
        } ]
      } ],
      "subject": {
        "reference": "Patient/9b06e1c6-c23d-4d6e-86e9-3b57d8a0e0b4",
        "display": "Jeffery Jennings"
      },
      "period": {
        "start": "2004-12-15T10:00:00+01:00"
      }
    }
  }, {
    "resource": {
      "resourceType": "Encounter",
      "id": "18ef4e64-6239-4d77-8c58-e30354f317a5",
      "identifier": [ {
        "use": "official",
        "value": "2a620155-9d11-439e-92b3-5d9815ff4de8"
      } ],
      "status": "finished",
      "type": [ {
        "coding": [ {
          "system": "urn:oid:2.16.840.1.113883.6.90",
          "code": "Z00.1",
          "display": "Encounter for newborn, infant and child health examinations"
        } ]
      } ],
      "subject": {
        "reference": "Patient/9b06e1c6-c23d-4d6e-86e9-3b57d8a0e0b4",
        "display": "Jeffery Jennings"
      },
      "period": {
        "start": "2006-02-18T10:00:00+01:00"
      }
    }
  }, {
    "resource": {
      "resourceType": "Encounter",
      "id": "14090d39-2d81-46b7-8bf0-413821060361",
      "identifier": [ {
        "use": "official",
        "value": "2a620155-9d11-439e-92b3-5d9815ff4de8"
      } ],
      "status": "finished",
      "type": [ {
        "coding": [ {
          "system": "urn:oid:2.16.840.1.113883.6.90",
          "code": "Z00.1",
          "display": "Encounter for newborn, infant and child health examinations"
        } ]
      } ],
      "subject": {
        "reference": "Patient/9b06e1c6-c23d-4d6e-86e9-3b57d8a0e0b4",
        "display": "Jeffery Jennings"
      },
      "period": {
        "start": "2006-09-26T10:00:00+02:00"
      }
    }
  }, {
    "resource": {
      "resourceType": "Encounter",
      "id": "d7e04459-7567-4054-b488-0bd02dcb2db6",
      "identifier": [ {
        "use": "official",
        "value": "2a620155-9d11-439e-92b3-5d9815ff4de8"
      } ],
      "status": "finished",
      "type": [ {
        "coding": [ {
          "system": "urn:oid:2.16.840.1.113883.6.90",
          "code": "Z00.1",
          "display": "Encounter for newborn, infant and child health examinations"
        } ]
      } ],
      "subject": {
        "reference": "Patient/9b06e1c6-c23d-4d6e-86e9-3b57d8a0e0b4",
        "display": "Jeffery Jennings"
      },
      "period": {
        "start": "2010-10-02T10:00:00+02:00"
      }
    }
  }, {
    "resource": {
      "resourceType": "Encounter",
      "id": "0bc12ba0-e6b1-4e3e-a43d-24d608c67ab5",
      "identifier": [ {
        "use": "official",
        "value": "2a620155-9d11-439e-92b3-5d9815ff4de8"
      } ],
      "status": "finished",
      "type": [ {
        "coding": [ {
          "system": "urn:oid:2.16.840.1.113883.6.90",
          "code": "Z00.1",
          "display": "Encounter for newborn, infant and child health examinations"
        } ]
      } ],
      "subject": {
        "reference": "Patient/9b06e1c6-c23d-4d6e-86e9-3b57d8a0e0b4",
        "display": "Jeffery Jennings"
      },
      "period": {
        "start": "2005-08-22T10:00:00+02:00"
      }
    }
  }, {
    "resource": {
      "resourceType": "Encounter",
      "id": "1f587368-b6f4-403f-adfd-6cd617f0b3c6",
      "identifier": [ {
        "use": "official",
        "value": "2a620155-9d11-439e-92b3-5d9815ff4de8"
      } ],
      "status": "finished",
      "type": [ {
        "coding": [ {
          "system": "urn:oid:2.16.840.1.113883.6.90",
          "code": "Z00.1",
          "display": "Encounter for newborn, infant and child health examinations"
        } ]
      } ],
      "subject": {
        "reference": "Patient/9b06e1c6-c23d-4d6e-86e9-3b57d8a0e0b4",
        "display": "Jeffery Jennings"
      },
      "period": {
        "start": "2005-02-16T10:00:00+01:00"
      }
    }
  }, {
    "resource": {
      "resourceType": "Encounter",
      "id": "7ec561da-0b80-4b68-9a37-c8f441e78d5d",
      "identifier": [ {
        "use": "official",
        "value": "2a620155-9d11-439e-92b3-5d9815ff4de8"
      } ],
      "status": "finished",
      "type": [ {
        "coding": [ {
          "system": "urn:oid:2.16.840.1.113883.6.90",
          "code": "Z00.1",
          "display": "Encounter for newborn, infant and child health examinations"
        } ]
      } ],
      "subject": {
        "reference": "Patient/9b06e1c6-c23d-4d6e-86e9-3b57d8a0e0b4",
        "display": "Jeffery Jennings"
      },
      "period": {
        "start": "2005-11-10T10:00:00+01:00"
      }
    }
  }, {
    "resource": {
      "resourceType": "Encounter",
      "id": "a3d4d858-587f-48a7-b660-c4e1232b8bf7",
      "identifier": [ {
        "use": "official",
        "value": "2a620155-9d11-439e-92b3-5d9815ff4de8"
      } ],
      "status": "finished",
      "type": [ {
        "coding": [ {
          "system": "urn:oid:2.16.840.1.113883.6.90",
          "code": "Z00.1",
          "display": "Encounter for newborn, infant and child health examinations"
        } ]
      } ],
      "subject": {
        "reference": "Patient/9b06e1c6-c23d-4d6e-86e9-3b57d8a0e0b4",
        "display": "Jeffery Jennings"
      },
      "period": {
        "start": "2010-05-20T10:00:00+02:00"
      }
    }
  } ]
}