{
  "resourceType": "Bundle",
  "entry": [ {
    "resource": {
      "resourceType": "Composition",
      "id": "eace15b8-180a-4a65-8c35-00df41fb5a50",
      "identifier": {
        "use": "official",
        "value": "db734647-fc99-424c-a864-7e3cda82e703"
      },
      "status": "preliminary",
      "type": {
        "coding": [ {
          "system": "http://loinc.org",
          "code": "34133-9",
          "display": "Summarization of Episode Note"
        } ]
      },
      "category": [ {
        "coding": [ {
          "system": "http://hl7.org/fhir/ValueSet/doc-classcodes",
          "code": "LP173421-7",
          "display": "Note"
        } ]
      } ],
      "subject": {
        "reference": "Patient/c6f10457-cc24-4ccf-b0f3-4f0bcea4088f",
        "display": "Maria Rivera"
      },
      "date": "2014-04-16T11:54:45+02:00",
      "author": [ {
        "reference": "Practitioner/07ca6970-19b6-4fd3-85e4-a25b725da371",
        "display": "Henry Seven MD"
      } ],
      "title": "Community Health and Hospitals: Health Summary",
      "confidentiality": "N",
      "attester": [ {
        "mode": "legal",
        "time": "2013-04-18T09:00:00+05:00",
        "party": {
          "reference": "Practitioner/6f954c0c-e9ba-4535-a52d-4b8b64c431b8",
          "display": "Henry Seven"
        }
      }, {
        "mode": "professional",
        "time": "2014-04-16T11:54:45+02:00",
        "party": {
          "reference": "Practitioner/6f954c0c-e9ba-4535-a52d-4b8b64c431b8",
          "display": "Henry Seven"
        }
      } ],
      "custodian": {
        "reference": "Organization/72486a32-de13-4ddf-a0fd-7a97faa562ce",
        "display": "Community Health and Hospitals"
      },
      "event": [ {
        "period": {
          "start": "2010-02-01T10:00:00+01:00",
          "end": "2010-11-09T10:00:00+01:00"
        },
        "detail": [ {
          "reference": "Practitioner/92e8f633-fca1-4d14-a651-743c313dc256",
          "display": "Henry Seven MD"
        } ]
      } ],
      "section": [ {
        "title": "Results",
        "code": {
          "coding": [ {
            "system": "http://loinc.org",
            "code": "30954-2",
            "display": "Results"
          } ]
        },
        "text": {
          "status": "additional",
          "div": "<div xmlns=\"http://www.w3.org/1999/xhtml\"><table><thead><tr><th>Group Description</th><th>Code System</th><th>Code</th><th>Code Description</th><th>Value</th><th>Unit</th><th>Reference Range</th><th>Date and Time</th><th>Status</th></tr></thead><tbody><tr><td>Chlamydia Screening</td><td>LOINC</td><td>31777-6</td><td><span/>C trach Ag XXX Ql</td><td>negative</td><td/><td>NA</td><td>04-06-2010 10:00:00</td><td>Completed</td></tr><tr><td/><td>CPT</td><td>87270</td><td>Chlamydia trachomatis ag if</td><td/><td/><td/><td/><td/></tr><tr><td/><td>SNOMED-CT</td><td>121953005</td><td>Measurement of Chlamydia pneumoniae antibody</td><td/><td/><td/><td/><td/></tr><tr><td>Pap Test</td><td>LOINC</td><td>10524-7</td><td><span/>Cyto Cervix</td><td>normal</td><td/><td>NA</td><td>04-06-2010 10:00:00</td><td>Completed</td></tr><tr><td/><td>CPT</td><td>88174</td><td>Cytopath, c/v auto, in fluid</td><td/><td/><td/><td/><td/></tr><tr><td/><td>HCPCS</td><td>G0147</td><td>Scr c/v cyto, automated sys</td><td/><td/><td/><td/><td/></tr><tr><td/><td>ICD-10-CM</td><td>Z12.4</td><td>Encounter for screening for malignant neoplasm of cervix</td><td/><td/><td/><td/><td/></tr><tr><td/><td>ICD-9-CM</td><td>V72.32</td><td>Encounter for Papanicolaou cervical smear to confirm findings of recent normal smear following initial abnormal smear</td><td/><td/><td/><td/><td/></tr><tr><td/><td>SNOMED-CT</td><td>440623000</td><td>Microscopic examination of cervical Papanicolaou smear</td><td/><td/><td/><td/><td/></tr><tr><td>Pregnancy Test</td><td>LOINC</td><td>2119-6</td><td><span/>HCG SerPl-sCnc</td><td>positive</td><td/><td>NA</td><td>04-06-2010 10:00:00</td><td>Completed</td></tr><tr><td/><td>CPT</td><td>84702</td><td>Chorionic gonadotropin test</td><td/><td/><td/><td/><td/></tr><tr><td>HIV Screening</td><td>LOINC</td><td>73906-0</td><td><span/>HIV1+2 IgG Bld Ql EIA.rapid</td><td>non-reactive</td><td/><td>NA</td><td>06-02-2010 10:00:00</td><td>Completed</td></tr><tr><td/><td>CPT</td><td>87389</td><td>Hiv-1 ag w/hiv-1 &amp; hiv-2 ab</td><td/><td/><td/><td/><td/></tr><tr><td/><td>SNOMED-CT</td><td>171121004</td><td>Human immunodeficiency virus screening</td><td/><td/><td/><td/><td/></tr><tr><td>Rh Status Mother</td><td>LOINC</td><td>1314-4</td><td><span/>Rh Ig Scn Bld-Imp</td><td>positive</td><td/><td>NA</td><td>09-25-2010 10:00:00</td><td>Completed</td></tr></tbody></table></div>"
        },
        "mode": "snapshot",
        "entry": [ {
          "reference": "DiagnosticReport/93c3a0c4-cd56-40db-959f-61d1a5196f33",
          "display": "Serology"
        }, {
          "reference": "DiagnosticReport/31b740b6-dd00-466b-bbc2-f51cbcff0761",
          "display": "Serology"
        }, {
          "reference": "DiagnosticReport/7b3e971a-60b7-417c-84be-f6064aaeb49d",
          "display": "Serology"
        }, {
          "reference": "DiagnosticReport/539267fd-eff7-4b2b-8c1b-0e7ca69db5de",
          "display": "Cytology"
        }, {
          "reference": "DiagnosticReport/8232f23a-18b8-4484-bcf3-d56afc8c4c6a",
          "display": "Microbiology"
        } ]
      }, {
        "title": "Allergies,  Adverse Reactions & Alerts",
        "code": {
          "coding": [ {
            "system": "http://loinc.org",
            "code": "48765-2",
            "display": "Allergies, adverse reactions, alerts"
          } ]
        },
        "text": {
          "status": "additional",
          "div": "<div xmlns=\"http://www.w3.org/1999/xhtml\"><table><thead><tr><th>Group Description</th><th>Code System</th><th>Code</th><th>Code Description</th><th>Severity</th><th>Susceptibility</th><th>Date and Time</th><th>Status</th></tr></thead><tbody><tr><td>Allergy to Eggs</td><td>UNII</td><td>291P45F896</td><td><span/>Eggs</td><td><span/>Moderate</td><td>Susceptible</td><td>03-31-2010 10:00:00</td><td>Active</td></tr><tr><td/><td>ICD-9-CM</td><td>V15.03</td><td>Allergy to eggs</td><td/><td/><td/><td/></tr><tr><td>Bakers Yeast</td><td>RxNorm</td><td>892677</td><td><span/>Baker's yeast allergenic extract 100 MG/ML Injectable Solution</td><td><span/>Mild to moderate</td><td>Susceptible</td><td>03-31-2010 10:00:00</td><td>Active</td></tr><tr><td>Penicillin V</td><td>NDF-RT</td><td>N0000011298</td><td><span/>Penicillin V</td><td><span/>Fatal</td><td>Susceptible</td><td>03-31-2010 10:00:00</td><td>Active</td></tr></tbody></table></div>"
        },
        "mode": "snapshot",
        "entry": [ {
          "reference": "AllergyIntolerance/3593e9cd-0648-4218-a718-88c93f62ea7c",
          "display": "Allergy to Eggs + Eggs"
        }, {
          "reference": "AllergyIntolerance/4dae098d-4912-4f84-8ee8-2ebc05839a35",
          "display": "Penicillin V + Penicillin V"
        }, {
          "reference": "AllergyIntolerance/4195b2c8-ec57-4c61-bafb-354ce103c6ff",
          "display": "Bakers Yeast + Baker's yeast allergenic extract 100 MG/ML Injectable Solution"
        } ]
      }, {
        "title": "Procedures",
        "code": {
          "coding": [ {
            "system": "http://loinc.org",
            "code": "47519-4",
            "display": "HISTORY OF PROCEDURES"
          } ]
        },
        "text": {
          "status": "additional",
          "div": "<div xmlns=\"http://www.w3.org/1999/xhtml\"><table><thead><tr><th>Group Description</th><th>Code System</th><th>Code</th><th>Code Description</th><th>Date and Time</th><th>Status</th></tr></thead><tbody><tr><td>Asthma Symptom Assessment Tool</td><td>SNOMED-CT</td><td>401011001</td><td><span/>Peak expiratory flow rate monitoring using diary</td><td>03-31-2010 10:00:00</td><td>Performed</td></tr><tr><td>Delivery Live Births-Procedure</td><td>CPT</td><td>59410</td><td><span/>Obstetrical care</td><td>11-07-2010 10:00:00</td><td>Performed</td></tr><tr><td/><td>SNOMED-CT</td><td>169961004</td><td>Normal birth</td><td/><td/></tr></tbody></table></div>"
        },
        "mode": "snapshot",
        "entry": [ {
          "reference": "Procedure/fae234ff-d586-4771-8d53-7c548694a6d6",
          "display": "Obstetrical care"
        } ]
      }, {
        "title": "Problems",
        "code": {
          "coding": [ {
            "system": "http://loinc.org",
            "code": "11450-4",
            "display": "PROBLEM LIST"
          } ]
        },
        "text": {
          "status": "additional",
          "div": "<div xmlns=\"http://www.w3.org/1999/xhtml\"><table><thead><tr><th>Group Description</th><th>Code System</th><th>Code</th><th>Code Description</th><th>Date and Time</th><th>Status</th></tr></thead><tbody><tr><td>Estimated Date of Conception</td><td>SNOMED-CT</td><td>248986005</td><td><span/>Estimated date of conception</td><td>02-01-2010 10:00:00</td><td>Active</td></tr><tr><td>Asthma</td><td>SNOMED-CT</td><td>195979001</td><td><span/>Asthma unspecified</td><td>03-31-2010 10:00:00</td><td>Active</td></tr><tr><td/><td>ICD-10-CM</td><td>J45</td><td>Asthma</td><td/><td/></tr><tr><td/><td>ICD-9-CM</td><td>493.92</td><td>Asthma, unspecified type, with (acute) exacerbation</td><td/><td/></tr><tr><td>Asthma Daytime Symptoms</td><td>SNOMED-CT</td><td>373899003</td><td><span/>Asthma daytime symptoms</td><td>03-31-2010 10:00:00</td><td>Active</td></tr><tr><td>Asthma Nighttime Symptoms</td><td>SNOMED-CT</td><td>395022009</td><td><span/>Asthma night-time symptoms</td><td>03-31-2010 10:00:00</td><td>Active</td></tr><tr><td>Primagravida</td><td>SNOMED-CT</td><td>127364007</td><td><span/>Primigravida</td><td>04-06-2010 10:00:00</td><td>Active</td></tr><tr><td>D(Rh) Negative</td><td>SNOMED-CT</td><td>165746003</td><td><span/>RhD negative</td><td>09-25-2010 10:00:00</td><td>Active</td></tr><tr><td/><td>ICD-10-CM</td><td>O36.0120</td><td>Maternal care for anti-D [Rh] antibodies, second trimester, not applicable or unspecified</td><td/><td/></tr><tr><td/><td>ICD-9-CM</td><td>656.10</td><td>Rhesus isoimmunization, unspecified as to episode of care or not applicable</td><td/><td/></tr><tr><td>Pregnancy-related diagnosis</td><td>SNOMED-CT</td><td>199305006</td><td><span/>Complications specific to multiple gestation</td><td>11-07-2010 10:00:00</td><td>Active</td></tr><tr><td/><td>ICD-10-CM</td><td>O30</td><td>Multiple gestation</td><td/><td/></tr><tr><td/><td>ICD-9-CM</td><td>651.90</td><td>Unspecified multiple gestation, unspecified as to episode of care or not applicable</td><td/><td/></tr></tbody></table></div>"
        },
        "mode": "snapshot",
        "entry": [ {
          "reference": "Condition/ef76e695-9a8f-445a-b15a-9ec7a48f1f73",
          "display": "Estimated date of conception"
        } ]
      }, {
        "title": "Social History",
        "code": {
          "coding": [ {
            "system": "http://loinc.org",
            "code": "29762-2",
            "display": "Social History"
          } ]
        },
        "text": {
          "status": "additional",
          "div": "<div xmlns=\"http://www.w3.org/1999/xhtml\"><table><thead><tr><th>Group Description</th><th>Code System</th><th>Code</th><th>Code Description</th><th>Date and Time</th><th>Status</th></tr></thead><tbody><tr><td>Tobacco Use</td><td>SNOMED-CT</td><td>266919005</td><td><span/>Never smoker (Never Smoked)</td><td>03-31-2010 10:00:00</td><td>Active</td></tr><tr><td/><td>SNOMED-CT</td><td>449868002</td><td>Current every day smoker</td><td/><td/></tr><tr><td>STD History</td><td>SNOMED-CT</td><td>8098009</td><td><span/>Sexually transmitted infectious disease</td><td>04-06-2010 10:00:00</td><td>Active</td></tr><tr><td/><td>ICD-10-CM</td><td>A64</td><td>Unspecified sexually transmitted disease</td><td/><td/></tr><tr><td/><td>ICD-9-CM</td><td>099.9</td><td>Venereal disease, unspecified</td><td/><td/></tr></tbody></table></div>"
        },
        "mode": "snapshot",
        "entry": [ {
          "reference": "Observation/1bf72270-f66f-4e41-98ac-91c2445fd4cb",
          "display": "Health-related behavior"
        }, {
          "reference": "Observation/00ad9cfb-798c-4bcb-bf9b-3e73d21fbb18"
        } ]
      }, {
        "title": "Medications",
        "code": {
          "coding": [ {
            "system": "http://loinc.org",
            "code": "10160-0",
            "display": "History of Medication Use"
          } ]
        },
        "text": {
          "status": "additional",
          "div": "<div xmlns=\"http://www.w3.org/1999/xhtml\"><table><thead><tr><th>Group Description</th><th>Code System</th><th>Code</th><th>Code Description</th><th>Date and Time</th><th>Status</th></tr></thead><tbody><tr><td>Antiasthmatic combinations</td><td>RxNorm</td><td>388681</td><td><span/>Dyphylline 100 MG / Guaifenesin 100 MG Oral Tablet</td><td>03-16-2010 10:00:00</td><td>Active</td></tr><tr><td>Antiasthmatic combinations</td><td>RxNorm</td><td>388681</td><td><span/>Dyphylline 100 MG / Guaifenesin 100 MG Oral Tablet</td><td>05-10-2010 10:00:00</td><td>Active</td></tr><tr><td>Anti-D Immune Globulin</td><td>RxNorm</td><td>731378</td><td><span/>1 ML Rho(D) Immune Globulin 0.05 MG/ML Prefilled Syringe</td><td>08-12-2010 10:00:00</td><td>Active</td></tr></tbody></table></div>"
        },
        "mode": "snapshot",
        "entry": [ {
          "reference": "MedicationStatement/a5160639-be1f-40d5-bc67-5c98b5b0fddd",
          "display": "1 ML Rho(D) Immune Globulin 0.05 MG/ML Prefilled Syringe"
        }, {
          "reference": "MedicationStatement/f6b9d6e4-102e-413c-a39f-26f1ffa670aa",
          "display": "Dyphylline 100 MG / Guaifenesin 100 MG Oral Tablet"
        }, {
          "reference": "MedicationStatement/c1999cc4-1bb2-4c6b-b43d-8402a97a1505",
          "display": "Dyphylline 100 MG / Guaifenesin 100 MG Oral Tablet"
        } ]
      }, {
        "title": "Encounters",
        "code": {
          "coding": [ {
            "system": "http://loinc.org",
            "code": "46240-8",
            "display": "History of encounters"
          } ]
        },
        "text": {
          "status": "additional",
          "div": "<div xmlns=\"http://www.w3.org/1999/xhtml\"><table><thead><tr><th>Group Description</th><th>Code System</th><th>Code</th><th>Code Description</th><th>Date and Time</th><th>Status</th></tr></thead><tbody><tr><td>Encounter Office &amp; Outpatient Consult</td><td>CPT</td><td>99241</td><td><span/>Office consultation</td><td>03-31-2010 10:00:00</td><td>Performed</td></tr><tr><td>Encounter Outpatient</td><td>CPT</td><td>99213</td><td><span/>Office/outpatient visit, est</td><td>04-06-2010 10:00:00</td><td>Performed</td></tr><tr><td/><td>ICD-9-CM</td><td>V70.0</td><td>Routine general medical examination at a health care facility</td><td/><td/></tr><tr><td>Encounter Office &amp; Outpatient Consult</td><td>CPT</td><td>99241</td><td><span/>Office consultation</td><td>05-10-2010 10:00:00</td><td>Performed</td></tr><tr><td>Prenatal Visit</td><td>SNOMED-CT</td><td>424619006</td><td><span/>Prenatal visit</td><td>05-20-2010 10:00:00</td><td>Performed</td></tr><tr><td/><td>ICD-10-CM</td><td>Z34.9</td><td>Encounter for supervision of normal pregnancy, unspecified</td><td/><td/></tr><tr><td/><td>ICD-9-CM</td><td>V22.2</td><td>Pregnant state, incidental</td><td/><td/></tr><tr><td>Prenatal Visit</td><td>SNOMED-CT</td><td>424619006</td><td><span/>Prenatal visit</td><td>08-12-2010 10:00:00</td><td>Performed</td></tr><tr><td/><td>ICD-10-CM</td><td>Z34.9</td><td>Encounter for supervision of normal pregnancy, unspecified</td><td/><td/></tr><tr><td/><td>ICD-9-CM</td><td>V22.2</td><td>Pregnant state, incidental</td><td/><td/></tr><tr><td>Prenatal Visit</td><td>SNOMED-CT</td><td>424619006</td><td><span/>Prenatal visit</td><td>09-25-2010 10:00:00</td><td>Performed</td></tr><tr><td/><td>ICD-10-CM</td><td>Z34.9</td><td>Encounter for supervision of normal pregnancy, unspecified</td><td/><td/></tr><tr><td/><td>ICD-9-CM</td><td>V22.2</td><td>Pregnant state, incidental</td><td/><td/></tr><tr><td>Prenatal Visit</td><td>SNOMED-CT</td><td>424619006</td><td><span/>Prenatal visit</td><td>10-10-2010 10:00:00</td><td>Performed</td></tr><tr><td/><td>ICD-10-CM</td><td>Z34.9</td><td>Encounter for supervision of normal pregnancy, unspecified</td><td/><td/></tr><tr><td/><td>ICD-9-CM</td><td>V22.2</td><td>Pregnant state, incidental</td><td/><td/></tr><tr><td>Prenatal Visit</td><td>SNOMED-CT</td><td>424619006</td><td><span/>Prenatal visit</td><td>10-18-2010 10:00:00</td><td>Performed</td></tr><tr><td/><td>ICD-10-CM</td><td>Z34.9</td><td>Encounter for supervision of normal pregnancy, unspecified</td><td/><td/></tr><tr><td/><td>ICD-9-CM</td><td>V22.2</td><td>Pregnant state, incidental</td><td/><td/></tr><tr><td>Prenatal Visit</td><td>SNOMED-CT</td><td>424619006</td><td><span/>Prenatal visit</td><td>10-25-2010 10:00:00</td><td>Performed</td></tr><tr><td/><td>ICD-10-CM</td><td>Z34.9</td><td>Encounter for supervision of normal pregnancy, unspecified</td><td/><td/></tr><tr><td/><td>ICD-9-CM</td><td>V22.2</td><td>Pregnant state, incidental</td><td/><td/></tr><tr><td>Prenatal Visit</td><td>SNOMED-CT</td><td>424619006</td><td><span/>Prenatal visit</td><td>11-02-2010 10:00:00</td><td>Performed</td></tr><tr><td/><td>ICD-10-CM</td><td>Z34.9</td><td>Encounter for supervision of normal pregnancy, unspecified</td><td/><td/></tr><tr><td/><td>ICD-9-CM</td><td>V22.2</td><td>Pregnant state, incidental</td><td/><td/></tr><tr><td>Encounter Acute Inpt</td><td>CPT</td><td>99251</td><td><span/>Initial inpatient consult</td><td>11-06-2010 10:00:00</td><td>Performed</td></tr><tr><td>Encounter Inpatient Discharge</td><td>CPT</td><td>99238</td><td><span/>Hospital discharge day</td><td>11-09-2010 10:00:00</td><td>Performed</td></tr></tbody></table></div>"
        },
        "mode": "snapshot",
        "entry": [ {
          "reference": "Encounter/4b5e8986-308c-489b-9ef3-7e891ec3d9e0",
          "display": "Prenatal visit"
        }, {
          "reference": "Encounter/3bef6292-f03f-45c4-a844-58afea09f2d8",
          "display": "Prenatal visit"
        }, {
          "reference": "Encounter/22252feb-f390-43c5-9aa0-b1cfef69a994",
          "display": "Hospital discharge day"
        }, {
          "reference": "Encounter/c90bc87c-66c1-4096-869f-c16542f5ddfa",
          "display": "Initial inpatient consult"
        }, {
          "reference": "Encounter/c594196c-f461-40bc-aa78-a622380b273d",
          "display": "Prenatal visit"
        }, {
          "reference": "Encounter/209906d4-ce00-4da0-afa3-eab82400b36f",
          "display": "Office consultation"
        }, {
          "reference": "Encounter/75555f89-1bd1-4ae6-9965-b5ee5122d834",
          "display": "Prenatal visit"
        }, {
          "reference": "Encounter/85ce72a2-c4a7-427d-8f5e-38b39f2e151a",
          "display": "Office/outpatient visit, est"
        }, {
          "reference": "Encounter/5ef6d644-7a7b-4ad2-a88b-cc795862aa52",
          "display": "Prenatal visit"
        }, {
          "reference": "Encounter/53a6c781-074a-4bb4-a494-3c6df6c931a6",
          "display": "Prenatal visit"
        }, {
          "reference": "Encounter/92a6deb4-3223-413c-bdd6-0d672f61398e",
          "display": "Prenatal visit"
        }, {
          "reference": "Encounter/6109b8c7-3ef3-4cd9-9afb-366247aac342",
          "display": "Office consultation"
        } ]
      }, {
        "title": "Vital Signs",
        "code": {
          "coding": [ {
            "system": "http://loinc.org",
            "code": "8716-3",
            "display": "Vital Signs"
          } ]
        },
        "text": {
          "status": "additional",
          "div": "<div xmlns=\"http://www.w3.org/1999/xhtml\"><table><thead><tr><th>Group Description</th><th>Code System</th><th>Code</th><th>Code Description</th><th>Value</th><th>Unit</th><th>Date and Time</th><th>Status</th></tr></thead><tbody><tr><td>BMI</td><td>LOINC</td><td>39156-5</td><td><span/>BMI</td><td>22.1</td><td>kg/m2</td><td>04-06-2010 10:00:00</td><td>Finding</td></tr><tr><td>Diastolic Blood Pressure</td><td>LOINC</td><td>8462-4</td><td><span/>BP Diastolic</td><td>66</td><td>mm[Hg]</td><td>08-12-2010 10:00:00</td><td>Finding</td></tr><tr><td>Systolic Blood Pressure</td><td>LOINC</td><td>8480-6</td><td><span/>BP Systolic</td><td>122</td><td>mm[Hg]</td><td>08-12-2010 10:00:00</td><td>Finding</td></tr><tr><td>Diastolic Blood Pressure</td><td>LOINC</td><td>8462-4</td><td><span/>BP Diastolic</td><td>68</td><td>mm[Hg]</td><td>09-25-2010 10:00:00</td><td>Finding</td></tr><tr><td>Systolic Blood Pressure</td><td>LOINC</td><td>8480-6</td><td><span/>BP Systolic</td><td>124</td><td>mm[Hg]</td><td>09-25-2010 10:00:00</td><td>Finding</td></tr><tr><td>Diastolic Blood Pressure</td><td>LOINC</td><td>8462-4</td><td><span/>BP Diastolic</td><td>74</td><td>mm[Hg]</td><td>10-10-2010 10:00:00</td><td>Finding</td></tr><tr><td>Systolic Blood Pressure</td><td>LOINC</td><td>8480-6</td><td><span/>BP Systolic</td><td>130</td><td>mm[Hg]</td><td>10-10-2010 10:00:00</td><td>Finding</td></tr><tr><td>Diastolic Blood Pressure</td><td>LOINC</td><td>8462-4</td><td><span/>BP Diastolic</td><td>68</td><td>mm[Hg]</td><td>10-18-2010 10:00:00</td><td>Finding</td></tr><tr><td>Systolic Blood Pressure</td><td>LOINC</td><td>8480-6</td><td><span/>BP Systolic</td><td>128</td><td>mm[Hg]</td><td>10-18-2010 10:00:00</td><td>Finding</td></tr><tr><td>Diastolic Blood Pressure</td><td>LOINC</td><td>8462-4</td><td><span/>BP Diastolic</td><td>72</td><td>mm[Hg]</td><td>10-25-2010 10:00:00</td><td>Finding</td></tr><tr><td>Systolic Blood Pressure</td><td>LOINC</td><td>8480-6</td><td><span/>BP Systolic</td><td>132</td><td>mm[Hg]</td><td>10-25-2010 10:00:00</td><td>Finding</td></tr><tr><td>Diastolic Blood Pressure</td><td>LOINC</td><td>8462-4</td><td><span/>BP Diastolic</td><td>74</td><td>mm[Hg]</td><td>11-02-2010 10:00:00</td><td>Finding</td></tr><tr><td>Systolic Blood Pressure</td><td>LOINC</td><td>8480-6</td><td><span/>BP Systolic</td><td>130</td><td>mm[Hg]</td><td>11-02-2010 10:00:00</td><td>Finding</td></tr><tr><td>Diastolic Blood Pressure</td><td>LOINC</td><td>8462-4</td><td><span/>BP Diastolic</td><td>76</td><td>mm[Hg]</td><td>11-06-2010 10:00:00</td><td>Finding</td></tr><tr><td>Systolic Blood Pressure</td><td>LOINC</td><td>8480-6</td><td><span/>BP Systolic</td><td>136</td><td>mm[Hg]</td><td>11-06-2010 10:00:00</td><td>Finding</td></tr><tr><td>Diastolic Blood Pressure</td><td>LOINC</td><td>8462-4</td><td><span/>BP Diastolic</td><td>78</td><td>mm[Hg]</td><td>11-09-2010 10:00:00</td><td>Finding</td></tr><tr><td>Systolic Blood Pressure</td><td>LOINC</td><td>8480-6</td><td><span/>BP Systolic</td><td>138</td><td>mm[Hg]</td><td>11-09-2010 10:00:00</td><td>Finding</td></tr></tbody></table></div>"
        },
        "mode": "snapshot",
        "entry": [ {
          "reference": "Observation/664f982d-52ea-4937-ad86-977188844fb6",
          "display": "BP Diastolic"
        }, {
          "reference": "Observation/b4cb5d55-56e0-43fd-a5fc-6b7cafb3f294",
          "display": "BP Systolic"
        }, {
          "reference": "Observation/1f1f6779-c9e8-4617-8882-0efa92806296",
          "display": "BP Diastolic"
        }, {
          "reference": "Observation/a9e73695-53e4-4e32-8eb1-2505558af6e9",
          "display": "BP Systolic"
        }, {
          "reference": "Observation/b16e2f42-b677-4612-b7f7-718d2322ceff",
          "display": "BP Diastolic"
        }, {
          "reference": "Observation/eba18172-62e8-47f3-8c4a-598e5c566286",
          "display": "BP Systolic"
        }, {
          "reference": "Observation/29d22dd4-4e6a-4a2e-a0de-77ef8f87eff7",
          "display": "BMI"
        }, {
          "reference": "Observation/b0793850-c4b5-4707-b768-258a5d438a8b",
          "display": "BP Diastolic"
        }, {
          "reference": "Observation/bfa663f8-0075-4477-b884-e5510fbaec0c",
          "display": "BP Systolic"
        }, {
          "reference": "Observation/19c023b7-122f-42fa-bc04-da6c55fd4348",
          "display": "BP Systolic"
        }, {
          "reference": "Observation/378a4733-0ca9-49dc-a912-5140a6e647f2",
          "display": "BP Diastolic"
        }, {
          "reference": "Observation/8a8dc81b-74b5-4d16-a6a6-c225f4a30129",
          "display": "BP Diastolic"
        }, {
          "reference": "Observation/479e7ab8-cb9b-4f8e-a770-86a47e1b61e7",
          "display": "BP Systolic"
        }, {
          "reference": "Observation/e666f909-054c-4f8b-a91d-799e383f7751",
          "display": "BP Diastolic"
        }, {
          "reference": "Observation/6d5fa2d3-5664-4aa9-bba3-7fd231f3c845",
          "display": "BP Systolic"
        }, {
          "reference": "Observation/797440f1-635f-46ee-90f1-bc285405a2ad",
          "display": "BP Systolic"
        }, {
          "reference": "Observation/4a6f0963-9d47-4c71-9604-c3dcc125c806",
          "display": "BP Diastolic"
        } ]
      } ]
    }
  }, {
    "resource": {
      "resourceType": "Patient",
      "id": "c6f10457-cc24-4ccf-b0f3-4f0bcea4088f",
      "extension": [ {
        "url": "http://hl7.org/fhir/StructureDefinition/patient-religion",
        "valueCodeableConcept": {
          "coding": [ {
            "system": "urn:oid:2.16.840.1.113883.5.1076",
            "code": "1074",
            "display": "Native American"
          } ]
        }
      }, {
        "url": "http://hl7.org/fhir/us/core/StructureDefinition/us-core-race",
        "extension": [ {
          "url": "text",
          "valueString": "Asian"
        }, {
          "url": "ombCategory",
          "valueCoding": {
            "system": "urn:oid:2.16.840.1.113883.6.238",
            "code": "2028-9",
            "display": "Asian"
          }
        } ]
      }, {
        "url": "http://hl7.org/fhir/us/core/StructureDefinition/us-core-ethnicity",
        "extension": [ {
          "url": "text",
          "valueString": "Not Hispanic or Latino"
        }, {
          "url": "ombCategory",
          "valueCoding": {
            "system": "urn:oid:2.16.840.1.113883.6.238",
            "code": "2186-5",
            "display": "Not Hispanic or Latino"
          }
        } ]
      }, {
        "url": "http://hl7.org/fhir/StructureDefinition/patient-birthPlace",
        "valueAddress": {
          "city": "Duluth",
          "state": "GA",
          "postalCode": "30097",
          "country": "US"
        }
      } ],
      "identifier": [ {
        "use": "official",
        "system": "urn:oid:2.16.840.1.113883.19.5.99999.2",
        "value": "998991"
      }, {
        "use": "official",
        "system": "urn:oid:2.16.840.1.113883.4.1",
        "value": "111-00-2330"
      } ],
      "name": [ {
        "use": "usual",
        "family": "Rivera",
        "given": [ "Maria" ]
      } ],
      "telecom": [ {
        "system": "phone",
        "value": "(316)333-6759",
        "use": "mobile"
      } ],
      "gender": "female",
      "birthDate": "1991-12-25",
      "address": [ {
        "use": "home",
        "line": [ "2172 James Avenue" ],
        "city": "Fort Worth",
        "state": "KS",
        "postalCode": "76102",
        "country": "US"
      } ],
      "maritalStatus": {
        "coding": [ {
          "system": "http://terminology.hl7.org/CodeSystem/v3-MaritalStatus",
          "code": "M",
          "display": "Married"
        } ]
      },
      "contact": [ {
        "relationship": [ {
          "coding": [ {
            "system": "http://terminology.hl7.org/CodeSystem/v2-0131",
            "code": "C",
            "display": "Emergency Contact"
          } ]
        } ],
        "name": {
          "family": "Gillette",
          "given": [ "Rachel" ],
          "prefix": [ "Ms." ]
        },
        "telecom": [ {
          "system": "phone",
          "value": "(202)263-0183",
          "use": "home"
        }, {
          "system": "email",
          "value": "RachelBGillette@jourrapide.com",
          "use": "work"
        } ],
        "address": {
          "use": "home",
          "line": [ "4883 Passaic Street" ],
          "city": "Washington",
          "state": "DC",
          "postalCode": "20036",
          "country": "US"
        }
      } ],
      "communication": [ {
        "language": {
          "coding": [ {
            "system": "urn:ietf:bcp:47",
            "code": "spa"
          } ]
        },
        "preferred": true
      } ],
      "managingOrganization": {
        "reference": "Organization/646422c8-6aaf-4cbe-b984-541966213541",
        "display": "Community Health and Hospitals"
      }
    }
  }, {
    "resource": {
      "resourceType": "Organization",
      "id": "646422c8-6aaf-4cbe-b984-541966213541",
      "identifier": [ {
        "use": "official",
        "value": "2.16.840.1.113883.4.6"
      } ],
      "name": "Community Health and Hospitals",
      "telecom": [ {
        "system": "phone",
        "value": " 555-555-5000",
        "use": "work"
      } ],
      "address": [ {
        "line": [ "1001 Village Avenue" ],
        "city": "Portland",
        "state": "OR",
        "postalCode": "99123",
        "country": "US"
      } ]
    }
  }, {
    "resource": {
      "resourceType": "Practitioner",
      "id": "07ca6970-19b6-4fd3-85e4-a25b725da371",
      "identifier": [ {
        "use": "official",
        "system": "urn:oid:2.16.840.1.113883.4.6",
        "value": "99999999"
      } ],
      "name": [ {
        "family": "Seven",
        "given": [ "Henry" ],
        "suffix": [ "MD" ]
      } ],
      "telecom": [ {
        "system": "phone",
        "value": "555-555-1002",
        "use": "work"
      } ],
      "address": [ {
        "line": [ "1002 Healthcare Drive" ],
        "city": "Portland",
        "state": "OR",
        "postalCode": "99123",
        "country": "US"
      } ]
    }
  }, {
    "resource": {
      "resourceType": "Practitioner",
      "id": "6f954c0c-e9ba-4535-a52d-4b8b64c431b8",
      "identifier": [ {
        "use": "official",
        "system": "http://hl7.org/fhir/sid/us-npi",
        "value": "999999999"
      } ],
      "name": [ {
        "family": "Seven",
        "given": [ "Henry" ]
      } ],
      "telecom": [ {
        "system": "phone",
        "value": "555-555-1002",
        "use": "work"
      } ],
      "address": [ {
        "line": [ "1001 Village Avenue" ],
        "city": "Portland",
        "state": "OR",
        "postalCode": "99123",
        "country": "US"
      } ]
    }
  }, {
    "resource": {
      "resourceType": "Practitioner",
      "id": "92e8f633-fca1-4d14-a651-743c313dc256",
      "identifier": [ {
        "use": "official",
        "system": "http://hl7.org/fhir/sid/us-npi",
        "value": "PseudoMD-1"
      } ],
      "name": [ {
        "family": "Seven",
        "given": [ "Henry" ],
        "suffix": [ "MD" ]
      } ],
      "telecom": [ {
        "system": "phone",
        "value": "+1-555-555-5000",
        "use": "home"
      } ],
      "address": [ {
        "line": [ "1001 Village Avenue" ],
        "city": "Portland",
        "state": "OR",
        "postalCode": "99123",
        "country": "US"
      } ]
    }
  }, {
    "resource": {
      "resourceType": "Organization",
      "id": "72486a32-de13-4ddf-a0fd-7a97faa562ce",
      "identifier": [ {
        "use": "official",
        "system": "urn:oid:2.16.840.1.113883.4.6",
        "value": "99999999"
      } ],
      "name": "Community Health and Hospitals",
      "telecom": [ {
        "system": "phone",
        "value": " 555-555-1002",
        "use": "work"
      } ],
      "address": [ {
        "use": "work",
        "line": [ "1002 Healthcare Drive" ],
        "city": "Portland",
        "state": "OR",
        "postalCode": "99123",
        "country": "US"
      } ]
    }
  }, {
    "resource": {
      "resourceType": "DiagnosticReport",
      "id": "93c3a0c4-cd56-40db-959f-61d1a5196f33",
      "identifier": [ {
        "use": "official",
        "value": "7d5a02b0-67a4-11db-bd13-0800200c9a66"
      } ],
      "status": "final",
      "category": [ {
        "coding": [ {
          "system": "http://terminology.hl7.org/CodeSystem/v2-0074",
          "code": "LAB",
          "display": "Laboratory"
        } ]
      } ],
      "code": {
        "coding": [ {
          "system": "http://snomed.info/sct",
          "code": "275711006",
          "display": "Serology"
        } ]
      },
      "subject": {
        "reference": "Patient/c6f10457-cc24-4ccf-b0f3-4f0bcea4088f",
        "display": "Maria Rivera"
      },
      "result": [ {
        "reference": "Observation/e419ef1b-5f39-4d72-89b5-67e4804ad830",
        "display": "HIV1+2 IgG Bld Ql EIA.rapid"
      } ]
    }
  }, {
    "resource": {
      "resourceType": "Observation",
      "id": "e419ef1b-5f39-4d72-89b5-67e4804ad830",
      "identifier": [ {
        "use": "official",
        "value": "107c2dc0-67a5-11db-bd13-0800200c9a66"
      } ],
      "status": "final",
      "category": [ {
        "coding": [ {
          "system": "http://terminology.hl7.org/CodeSystem/observation-category",
          "code": "laboratory"
        } ]
      } ],
      "code": {
        "coding": [ {
          "system": "http://loinc.org",
          "code": "73906-0",
          "display": "HIV1+2 IgG Bld Ql EIA.rapid"
        }, {
          "system": "http://www.ama-assn.org/go/cpt",
          "code": "87389",
          "display": "Hiv-1 ag w/hiv-1 & hiv-2 ab"
        }, {
          "system": "http://snomed.info/sct",
          "code": "171121004",
          "display": "Human immunodeficiency virus screening"
        } ]
      },
      "subject": {
        "reference": "Patient/c6f10457-cc24-4ccf-b0f3-4f0bcea4088f",
        "display": "Maria Rivera"
      },
      "effectivePeriod": {
        "start": "2010-06-02T10:00:00+02:00"
      },
      "valueCodeableConcept": {
        "coding": [ {
          "system": "http://snomed.info/sct",
          "code": "131194007",
          "display": "non-reactive"
        } ]
      },
      "interpretation": [ {
        "coding": [ {
          "system": "http://terminology.hl7.org/CodeSystem/v3-ObservationInterpretation",
          "code": "N"
        } ]
      } ],
      "referenceRange": [ {
        "text": "NA"
      } ]
    }
  }, {
    "resource": {
      "resourceType": "DiagnosticReport",
      "id": "31b740b6-dd00-466b-bbc2-f51cbcff0761",
      "identifier": [ {
        "use": "official",
        "value": "7d5a02b0-67a4-11db-bd13-0800200c9a66"
      } ],
      "status": "final",
      "category": [ {
        "coding": [ {
          "system": "http://terminology.hl7.org/CodeSystem/v2-0074",
          "code": "LAB",
          "display": "Laboratory"
        } ]
      } ],
      "code": {
        "coding": [ {
          "system": "http://snomed.info/sct",
          "code": "275711006",
          "display": "Serology"
        } ]
      },
      "subject": {
        "reference": "Patient/c6f10457-cc24-4ccf-b0f3-4f0bcea4088f",
        "display": "Maria Rivera"
      },
      "result": [ {
        "reference": "Observation/dda8dfb5-bbc9-4a81-8407-b15653fd77fd",
        "display": "Rh Ig Scn Bld-Imp"
      } ]
    }
  }, {
    "resource": {
      "resourceType": "Observation",
      "id": "dda8dfb5-bbc9-4a81-8407-b15653fd77fd",
      "identifier": [ {
        "use": "official",
        "value": "107c2dc0-67a5-11db-bd13-0800200c9a66"
      } ],
      "status": "final",
      "category": [ {
        "coding": [ {
          "system": "http://terminology.hl7.org/CodeSystem/observation-category",
          "code": "laboratory"
        } ]
      } ],
      "code": {
        "coding": [ {
          "system": "http://loinc.org",
          "code": "1314-4",
          "display": "Rh Ig Scn Bld-Imp"
        } ]
      },
      "subject": {
        "reference": "Patient/c6f10457-cc24-4ccf-b0f3-4f0bcea4088f",
        "display": "Maria Rivera"
      },
      "effectivePeriod": {
        "start": "2010-09-25T10:00:00+02:00"
      },
      "valueCodeableConcept": {
        "coding": [ {
          "system": "http://snomed.info/sct",
          "code": "10828004",
          "display": "positive"
        } ]
      },
      "interpretation": [ {
        "coding": [ {
          "system": "http://terminology.hl7.org/CodeSystem/v3-ObservationInterpretation",
          "code": "N"
        } ]
      } ],
      "referenceRange": [ {
        "text": "NA"
      } ]
    }
  }, {
    "resource": {
      "resourceType": "DiagnosticReport",
      "id": "7b3e971a-60b7-417c-84be-f6064aaeb49d",
      "identifier": [ {
        "use": "official",
        "value": "7d5a02b0-67a4-11db-bd13-0800200c9a66"
      } ],
      "status": "final",
      "category": [ {
        "coding": [ {
          "system": "http://terminology.hl7.org/CodeSystem/v2-0074",
          "code": "LAB",
          "display": "Laboratory"
        } ]
      } ],
      "code": {
        "coding": [ {
          "system": "http://snomed.info/sct",
          "code": "275711006",
          "display": "Serology"
        } ]
      },
      "subject": {
        "reference": "Patient/c6f10457-cc24-4ccf-b0f3-4f0bcea4088f",
        "display": "Maria Rivera"
      },
      "result": [ {
        "reference": "Observation/59266164-0f07-4ec6-9076-9dba89dad7d1",
        "display": "HCG SerPl-sCnc"
      } ]
    }
  }, {
    "resource": {
      "resourceType": "Observation",
      "id": "59266164-0f07-4ec6-9076-9dba89dad7d1",
      "identifier": [ {
        "use": "official",
        "value": "107c2dc0-67a5-11db-bd13-0800200c9a66"
      } ],
      "status": "final",
      "category": [ {
        "coding": [ {
          "system": "http://terminology.hl7.org/CodeSystem/observation-category",
          "code": "laboratory"
        } ]
      } ],
      "code": {
        "coding": [ {
          "system": "http://loinc.org",
          "code": "2119-6",
          "display": "HCG SerPl-sCnc"
        }, {
          "system": "http://www.ama-assn.org/go/cpt",
          "code": "84702",
          "display": "Chorionic gonadotropin test"
        } ]
      },
      "subject": {
        "reference": "Patient/c6f10457-cc24-4ccf-b0f3-4f0bcea4088f",
        "display": "Maria Rivera"
      },
      "effectivePeriod": {
        "start": "2010-04-06T10:00:00+02:00"
      },
      "valueCodeableConcept": {
        "coding": [ {
          "system": "http://snomed.info/sct",
          "code": "10828004",
          "display": "positive"
        } ]
      },
      "interpretation": [ {
        "coding": [ {
          "system": "http://terminology.hl7.org/CodeSystem/v3-ObservationInterpretation",
          "code": "N"
        } ]
      } ],
      "referenceRange": [ {
        "text": "NA"
      } ]
    }
  }, {
    "resource": {
      "resourceType": "DiagnosticReport",
      "id": "539267fd-eff7-4b2b-8c1b-0e7ca69db5de",
      "identifier": [ {
        "use": "official",
        "value": "7d5a02b0-67a4-11db-bd13-0800200c9a66"
      } ],
      "status": "final",
      "category": [ {
        "coding": [ {
          "system": "http://terminology.hl7.org/CodeSystem/v2-0074",
          "code": "LAB",
          "display": "Laboratory"
        } ]
      } ],
      "code": {
        "coding": [ {
          "system": "http://snomed.info/sct",
          "code": "116147009",
          "display": "Cytology"
        } ]
      },
      "subject": {
        "reference": "Patient/c6f10457-cc24-4ccf-b0f3-4f0bcea4088f",
        "display": "Maria Rivera"
      },
      "result": [ {
        "reference": "Observation/8d007dda-243b-4b61-ba6a-ee3a9ec96591",
        "display": "Cyto Cervix"
      } ]
    }
  }, {
    "resource": {
      "resourceType": "Observation",
      "id": "8d007dda-243b-4b61-ba6a-ee3a9ec96591",
      "identifier": [ {
        "use": "official",
        "value": "107c2dc0-67a5-11db-bd13-0800200c9a66"
      } ],
      "status": "final",
      "category": [ {
        "coding": [ {
          "system": "http://terminology.hl7.org/CodeSystem/observation-category",
          "code": "laboratory"
        } ]
      } ],
      "code": {
        "coding": [ {
          "system": "http://loinc.org",
          "code": "10524-7",
          "display": "Cyto Cervix"
        }, {
          "system": "http://www.ama-assn.org/go/cpt",
          "code": "88174",
          "display": "Cytopath, c/v auto, in fluid"
        }, {
          "system": "urn:oid:2.16.840.1.113883.6.13",
          "code": "G0147",
          "display": "Scr c/v cyto, automated sys"
        }, {
          "system": "urn:oid:2.16.840.1.113883.6.90",
          "code": "Z12.4",
          "display": "Encounter for screening for malignant neoplasm of cervix"
        }, {
          "system": "urn:oid:2.16.840.1.113883.6.103",
          "code": "V72.32",
          "display": "Encounter for Papanicolaou cervical smear to confirm findings of recent normal smear following initial abnormal smear"
        }, {
          "system": "http://snomed.info/sct",
          "code": "440623000",
          "display": "Microscopic examination of cervical Papanicolaou smear"
        } ]
      },
      "subject": {
        "reference": "Patient/c6f10457-cc24-4ccf-b0f3-4f0bcea4088f",
        "display": "Maria Rivera"
      },
      "effectivePeriod": {
        "start": "2010-04-06T10:00:00+02:00"
      },
      "valueCodeableConcept": {
        "coding": [ {
          "system": "http://snomed.info/sct",
          "code": "17621005",
          "display": "normal"
        } ]
      },
      "interpretation": [ {
        "coding": [ {
          "system": "http://terminology.hl7.org/CodeSystem/v3-ObservationInterpretation",
          "code": "N"
        } ]
      } ],
      "referenceRange": [ {
        "text": "NA"
      } ]
    }
  }, {
    "resource": {
      "resourceType": "DiagnosticReport",
      "id": "8232f23a-18b8-4484-bcf3-d56afc8c4c6a",
      "identifier": [ {
        "use": "official",
        "value": "7d5a02b0-67a4-11db-bd13-0800200c9a66"
      } ],
      "status": "final",
      "category": [ {
        "coding": [ {
          "system": "http://terminology.hl7.org/CodeSystem/v2-0074",
          "code": "LAB",
          "display": "Laboratory"
        } ]
      } ],
      "code": {
        "coding": [ {
          "system": "http://snomed.info/sct",
          "code": "269934003",
          "display": "Microbiology"
        } ]
      },
      "subject": {
        "reference": "Patient/c6f10457-cc24-4ccf-b0f3-4f0bcea4088f",
        "display": "Maria Rivera"
      },
      "result": [ {
        "reference": "Observation/f8f561ed-e176-4a59-afc4-c48918015724",
        "display": "C trach Ag XXX Ql"
      } ]
    }
  }, {
    "resource": {
      "resourceType": "Observation",
      "id": "f8f561ed-e176-4a59-afc4-c48918015724",
      "identifier": [ {
        "use": "official",
        "value": "107c2dc0-67a5-11db-bd13-0800200c9a66"
      } ],
      "status": "final",
      "category": [ {
        "coding": [ {
          "system": "http://terminology.hl7.org/CodeSystem/observation-category",
          "code": "laboratory"
        } ]
      } ],
      "code": {
        "coding": [ {
          "system": "http://loinc.org",
          "code": "31777-6",
          "display": "C trach Ag XXX Ql"
        }, {
          "system": "http://www.ama-assn.org/go/cpt",
          "code": "87270",
          "display": "Chlamydia trachomatis ag if"
        }, {
          "system": "http://snomed.info/sct",
          "code": "121953005",
          "display": "Measurement of Chlamydia pneumoniae antibody"
        } ]
      },
      "subject": {
        "reference": "Patient/c6f10457-cc24-4ccf-b0f3-4f0bcea4088f",
        "display": "Maria Rivera"
      },
      "effectivePeriod": {
        "start": "2010-04-06T10:00:00+02:00"
      },
      "valueCodeableConcept": {
        "coding": [ {
          "system": "http://snomed.info/sct",
          "code": "260385009",
          "display": "negative"
        } ]
      },
      "interpretation": [ {
        "coding": [ {
          "system": "http://terminology.hl7.org/CodeSystem/v3-ObservationInterpretation",
          "code": "N"
        } ]
      } ],
      "referenceRange": [ {
        "text": "NA"
      } ]
    }
  }, {
    "resource": {
      "resourceType": "AllergyIntolerance",
      "id": "3593e9cd-0648-4218-a718-88c93f62ea7c",
      "identifier": [ {
        "use": "official",
        "value": "36e3e930-7b14-11db-9fe1-0800200c9a66"
      } ],
      "clinicalStatus": {
        "coding": [ {
          "system": "http://terminology.hl7.org/CodeSystem/allergyintolerance-clinical",
          "code": "active",
          "display": "Active"
        } ]
      },
      "verificationStatus": {
        "coding": [ {
          "system": "http://terminology.hl7.org/CodeSystem/allergyintolerance-verification",
          "code": "confirmed",
          "display": "Confirmed"
        } ]
      },
      "type": "allergy",
      "category": [ "food" ],
      "code": {
        "coding": [ {
          "system": "http://fdasis.nlm.nih.gov",
          "code": "291P45F896",
          "display": "Eggs"
        }, {
          "system": "urn:oid:2.16.840.1.113883.6.103",
          "code": "V15.03",
          "display": "Allergy to eggs"
        } ],
        "text": "Allergy to Eggs + Eggs"
      },
      "patient": {
        "reference": "Patient/c6f10457-cc24-4ccf-b0f3-4f0bcea4088f",
        "display": "Maria Rivera"
      },
      "recordedDate": "2010-03-31T10:00:00+02:00"
    }
  }, {
    "resource": {
      "resourceType": "AllergyIntolerance",
      "id": "4dae098d-4912-4f84-8ee8-2ebc05839a35",
      "identifier": [ {
        "use": "official",
        "value": "36e3e930-7b14-11db-9fe1-0800200c9a66"
      } ],
      "clinicalStatus": {
        "coding": [ {
          "system": "http://terminology.hl7.org/CodeSystem/allergyintolerance-clinical",
          "code": "active",
          "display": "Active"
        } ]
      },
      "verificationStatus": {
        "coding": [ {
          "system": "http://terminology.hl7.org/CodeSystem/allergyintolerance-verification",
          "code": "confirmed",
          "display": "Confirmed"
        } ]
      },
      "type": "allergy",
      "category": [ "medication" ],
      "code": {
        "coding": [ {
          "system": "urn:oid:2.16.840.1.113883.3.26.1.5",
          "code": "N0000011298",
          "display": "Penicillin V"
        } ],
        "text": "Penicillin V + Penicillin V"
      },
      "patient": {
        "reference": "Patient/c6f10457-cc24-4ccf-b0f3-4f0bcea4088f",
        "display": "Maria Rivera"
      },
      "recordedDate": "2010-03-31T10:00:00+02:00"
    }
  }, {
    "resource": {
      "resourceType": "AllergyIntolerance",
      "id": "4195b2c8-ec57-4c61-bafb-354ce103c6ff",
      "identifier": [ {
        "use": "official",
        "value": "36e3e930-7b14-11db-9fe1-0800200c9a66"
      } ],
      "clinicalStatus": {
        "coding": [ {
          "system": "http://terminology.hl7.org/CodeSystem/allergyintolerance-clinical",
          "code": "active",
          "display": "Active"
        } ]
      },
      "verificationStatus": {
        "coding": [ {
          "system": "http://terminology.hl7.org/CodeSystem/allergyintolerance-verification",
          "code": "confirmed",
          "display": "Confirmed"
        } ]
      },
      "type": "allergy",
      "category": [ "medication" ],
      "code": {
        "coding": [ {
          "system": "http://www.nlm.nih.gov/research/umls/rxnorm",
          "code": "892677",
          "display": "Baker's yeast allergenic extract 100 MG/ML Injectable Solution"
        } ],
        "text": "Bakers Yeast + Baker's yeast allergenic extract 100 MG/ML Injectable Solution"
      },
      "patient": {
        "reference": "Patient/c6f10457-cc24-4ccf-b0f3-4f0bcea4088f",
        "display": "Maria Rivera"
      },
      "recordedDate": "2010-03-31T10:00:00+02:00"
    }
  }, {
    "resource": {
      "resourceType": "Procedure",
      "id": "fae234ff-d586-4771-8d53-7c548694a6d6",
      "identifier": [ {
        "use": "official",
        "value": "e401f340-7be2-11db-9fe1-0800200c9a66"
      } ],
      "status": "completed",
      "code": {
        "coding": [ {
          "system": "http://www.ama-assn.org/go/cpt",
          "code": "59410",
          "display": "Obstetrical care"
        }, {
          "system": "http://snomed.info/sct",
          "code": "169961004",
          "display": "Normal birth"
        } ]
      },
      "subject": {
        "reference": "Patient/c6f10457-cc24-4ccf-b0f3-4f0bcea4088f",
        "display": "Maria Rivera"
      },
      "performedPeriod": {
        "start": "2010-11-07T10:00:00+01:00"
      }
    }
  }, {
    "resource": {
      "resourceType": "Condition",
      "id": "ef76e695-9a8f-445a-b15a-9ec7a48f1f73",
      "identifier": [ {
        "use": "official",
        "value": "9d3d416d-45ab-4da1-912f-4583e0632000"
      } ],
      "clinicalStatus": {
        "coding": [ {
          "system": "http://terminology.hl7.org/CodeSystem/condition-clinical",
          "code": "active",
          "display": "Active"
        } ]
      },
      "verificationStatus": {
        "coding": [ {
          "system": "http://terminology.hl7.org/CodeSystem/condition-ver-status",
          "code": "confirmed",
          "display": "Confirmed"
        } ]
      },
      "category": [ {
        "coding": [ {
          "system": "http://terminology.hl7.org/CodeSystem/condition-category",
          "code": "problem-list-item",
          "display": "Problem List Item"
        } ]
      } ],
      "code": {
        "coding": [ {
          "system": "http://snomed.info/sct",
          "code": "248986005",
          "display": "Estimated date of conception"
        } ]
      },
      "subject": {
        "reference": "Patient/c6f10457-cc24-4ccf-b0f3-4f0bcea4088f",
        "display": "Maria Rivera"
      },
      "onsetDateTime": "2010-02-01T10:00:00+01:00"
    }
  }, {
    "resource": {
      "resourceType": "Observation",
      "id": "1bf72270-f66f-4e41-98ac-91c2445fd4cb",
      "identifier": [ {
        "use": "official",
        "value": "9b56c25d-9104-45ee-9fa4-e0f3afaa01c1"
      } ],
      "status": "final",
      "code": {
        "coding": [ {
          "system": "http://snomed.info/sct",
          "code": "228272008",
          "display": "Health-related behavior"
        } ]
      },
      "subject": {
        "reference": "Patient/c6f10457-cc24-4ccf-b0f3-4f0bcea4088f",
        "display": "Maria Rivera"
      },
      "valueCodeableConcept": {
        "coding": [ {
          "system": "http://snomed.info/sct",
          "code": "8098009",
          "display": "Sexually transmitted infectious disease"
        }, {
          "system": "urn:oid:2.16.840.1.113883.6.90",
          "code": "A64",
          "display": "Unspecified sexually transmitted disease"
        }, {
          "system": "urn:oid:2.16.840.1.113883.6.103",
          "code": "099.9",
          "display": "Venereal disease, unspecified"
        } ]
      }
    }
  }, {
    "resource": {
      "resourceType": "Observation",
      "id": "00ad9cfb-798c-4bcb-bf9b-3e73d21fbb18",
      "identifier": [ {
        "use": "official",
        "system": "urn:oid:2.16.840.1.113883.19",
        "value": "123456789"
      } ],
      "status": "final",
      "code": {
        "coding": [ {
          "system": "urn:oid:2.16.840.1.113883.5.4",
          "code": "ASSERTION"
        } ]
      },
      "subject": {
        "reference": "Patient/c6f10457-cc24-4ccf-b0f3-4f0bcea4088f",
        "display": "Maria Rivera"
      },
      "effectivePeriod": {
        "start": "2010-03-31T10:00:00+02:00"
      },
      "valueCodeableConcept": {
        "coding": [ {
          "system": "http://snomed.info/sct",
          "code": "266919005",
          "display": "Never smoker (Never Smoked)"
        }, {
          "system": "http://snomed.info/sct",
          "code": "449868002",
          "display": "Current every day smoker"
        } ]
      }
    }
  }, {
    "resource": {
      "resourceType": "MedicationStatement",
      "id": "a5160639-be1f-40d5-bc67-5c98b5b0fddd",
      "extension": [ {
        "url": "http://hl7.org/fhir/3.0/StructureDefinition/extension-MedicationStatement.status",
        "valueCode": "UNKNOWN"
      } ],
      "identifier": [ {
        "use": "official",
        "value": "cdbd33f0-6cde-11db-9fe1-0800200c9a66"
      } ],
      "status": "completed",
      "medicationReference": {
        "reference": "Medication/21fcccb6-0565-485a-a03e-668369484c6b",
        "display": "1 ML Rho(D) Immune Globulin 0.05 MG/ML Prefilled Syringe"
      },
      "subject": {
        "reference": "Patient/c6f10457-cc24-4ccf-b0f3-4f0bcea4088f",
        "display": "Maria Rivera"
      },
      "effectivePeriod": {
        "start": "2010-08-12T10:00:00+02:00"
      }
    }
  }, {
    "resource": {
      "resourceType": "Medication",
      "id": "21fcccb6-0565-485a-a03e-668369484c6b",
      "code": {
        "coding": [ {
          "system": "http://www.nlm.nih.gov/research/umls/rxnorm",
          "code": "731378",
          "display": "1 ML Rho(D) Immune Globulin 0.05 MG/ML Prefilled Syringe"
        } ]
      }
    }
  }, {
    "resource": {
      "resourceType": "MedicationStatement",
      "id": "f6b9d6e4-102e-413c-a39f-26f1ffa670aa",
      "extension": [ {
        "url": "http://hl7.org/fhir/3.0/StructureDefinition/extension-MedicationStatement.status",
        "valueCode": "UNKNOWN"
      } ],
      "identifier": [ {
        "use": "official",
        "value": "cdbd33f0-6cde-11db-9fe1-0800200c9a66"
      } ],
      "status": "completed",
      "medicationReference": {
        "reference": "Medication/0ca2b764-433f-4446-9d01-d78c27c1975d",
        "display": "Dyphylline 100 MG / Guaifenesin 100 MG Oral Tablet"
      },
      "subject": {
        "reference": "Patient/c6f10457-cc24-4ccf-b0f3-4f0bcea4088f",
        "display": "Maria Rivera"
      },
      "effectivePeriod": {
        "start": "2010-03-16T10:00:00+01:00"
      }
    }
  }, {
    "resource": {
      "resourceType": "Medication",
      "id": "0ca2b764-433f-4446-9d01-d78c27c1975d",
      "code": {
        "coding": [ {
          "system": "http://www.nlm.nih.gov/research/umls/rxnorm",
          "code": "388681",
          "display": "Dyphylline 100 MG / Guaifenesin 100 MG Oral Tablet"
        } ]
      }
    }
  }, {
    "resource": {
      "resourceType": "MedicationStatement",
      "id": "c1999cc4-1bb2-4c6b-b43d-8402a97a1505",
      "extension": [ {
        "url": "http://hl7.org/fhir/3.0/StructureDefinition/extension-MedicationStatement.status",
        "valueCode": "UNKNOWN"
      } ],
      "identifier": [ {
        "use": "official",
        "value": "cdbd33f0-6cde-11db-9fe1-0800200c9a66"
      } ],
      "status": "completed",
      "medicationReference": {
        "reference": "Medication/0ca2b764-433f-4446-9d01-d78c27c1975d",
        "display": "Dyphylline 100 MG / Guaifenesin 100 MG Oral Tablet"
      },
      "subject": {
        "reference": "Patient/c6f10457-cc24-4ccf-b0f3-4f0bcea4088f",
        "display": "Maria Rivera"
      },
      "effectivePeriod": {
        "start": "2010-05-10T10:00:00+02:00"
      }
    }
  }, {
    "resource": {
      "resourceType": "Encounter",
      "id": "4b5e8986-308c-489b-9ef3-7e891ec3d9e0",
      "identifier": [ {
        "use": "official",
        "value": "2a620155-9d11-439e-92b3-5d9815ff4de8"
      } ],
      "status": "finished",
      "type": [ {
        "coding": [ {
          "system": "http://snomed.info/sct",
          "code": "424619006",
          "display": "Prenatal visit"
        }, {
          "system": "urn:oid:2.16.840.1.113883.6.90",
          "code": "Z34.9",
          "display": "Encounter for supervision of normal pregnancy, unspecified"
        }, {
          "system": "urn:oid:2.16.840.1.113883.6.103",
          "code": "V22.2",
          "display": "Pregnant state, incidental"
        } ]
      } ],
      "subject": {
        "reference": "Patient/c6f10457-cc24-4ccf-b0f3-4f0bcea4088f",
        "display": "Maria Rivera"
      },
      "period": {
        "start": "2010-09-25T10:00:00+02:00"
      },
      "reasonCode": [ {
        "coding": [ {
          "system": "http://snomed.info/sct",
          "code": "165746003",
          "display": "D(Rh) Negative"
        } ]
      } ],
      "reasonReference": [ {
        "reference": "Condition/c70506c8-9eed-4b09-82a4-43c691fc7921",
        "display": "D(Rh) Negative"
      } ]
    }
  }, {
    "resource": {
      "resourceType": "Condition",
      "id": "c70506c8-9eed-4b09-82a4-43c691fc7921",
      "identifier": [ {
        "use": "official",
        "system": "urn:uuid:db734647-fc99-424c-a864-7e3cda82e703",
        "value": "45665"
      } ],
      "clinicalStatus": {
        "coding": [ {
          "system": "http://terminology.hl7.org/CodeSystem/condition-clinical",
          "code": "active",
          "display": "Active"
        } ]
      },
      "category": [ {
        "coding": [ {
          "system": "http://hl7.org/fhir/condition-category",
          "code": "encounter-diagnosis",
          "display": "Encounter Diagnosis"
        } ]
      } ],
      "code": {
        "coding": [ {
          "system": "http://snomed.info/sct",
          "code": "165746003",
          "display": "D(Rh) Negative"
        }, {
          "system": "urn:oid:2.16.840.1.113883.6.90",
          "code": "O36.0120",
          "display": "Maternal care for anti-D [Rh] antibodies, second trimester, not applicable or unspecified"
        }, {
          "system": "urn:oid:2.16.840.1.113883.6.103",
          "code": "656.10",
          "display": "Rhesus isoimmunization, unspecified as to episode of care or not applicable"
        } ]
      },
      "subject": {
        "reference": "Patient/c6f10457-cc24-4ccf-b0f3-4f0bcea4088f",
        "display": "Maria Rivera"
      },
      "onsetDateTime": "2010-09-25T10:00:00+02:00"
    }
  }, {
    "resource": {
      "resourceType": "Encounter",
      "id": "3bef6292-f03f-45c4-a844-58afea09f2d8",
      "identifier": [ {
        "use": "official",
        "value": "2a620155-9d11-439e-92b3-5d9815ff4de8"
      } ],
      "status": "finished",
      "type": [ {
        "coding": [ {
          "system": "http://snomed.info/sct",
          "code": "424619006",
          "display": "Prenatal visit"
        }, {
          "system": "urn:oid:2.16.840.1.113883.6.90",
          "code": "Z34.9",
          "display": "Encounter for supervision of normal pregnancy, unspecified"
        }, {
          "system": "urn:oid:2.16.840.1.113883.6.103",
          "code": "V22.2",
          "display": "Pregnant state, incidental"
        } ]
      } ],
      "subject": {
        "reference": "Patient/c6f10457-cc24-4ccf-b0f3-4f0bcea4088f",
        "display": "Maria Rivera"
      },
      "period": {
        "start": "2010-10-18T10:00:00+02:00"
      }
    }
  }, {
    "resource": {
      "resourceType": "Encounter",
      "id": "22252feb-f390-43c5-9aa0-b1cfef69a994",
      "identifier": [ {
        "use": "official",
        "value": "2a620155-9d11-439e-92b3-5d9815ff4de8"
      } ],
      "status": "finished",
      "type": [ {
        "coding": [ {
          "system": "http://www.ama-assn.org/go/cpt",
          "code": "99238",
          "display": "Hospital discharge day"
        } ]
      } ],
      "subject": {
        "reference": "Patient/c6f10457-cc24-4ccf-b0f3-4f0bcea4088f",
        "display": "Maria Rivera"
      },
      "period": {
        "start": "2010-11-09T10:00:00+01:00"
      }
    }
  }, {
    "resource": {
      "resourceType": "Encounter",
      "id": "c90bc87c-66c1-4096-869f-c16542f5ddfa",
      "identifier": [ {
        "use": "official",
        "value": "2a620155-9d11-439e-92b3-5d9815ff4de8"
      } ],
      "status": "finished",
      "type": [ {
        "coding": [ {
          "system": "http://www.ama-assn.org/go/cpt",
          "code": "99251",
          "display": "Initial inpatient consult"
        } ]
      } ],
      "subject": {
        "reference": "Patient/c6f10457-cc24-4ccf-b0f3-4f0bcea4088f",
        "display": "Maria Rivera"
      },
      "period": {
        "start": "2010-11-06T10:00:00+01:00"
      }
    }
  }, {
    "resource": {
      "resourceType": "Encounter",
      "id": "c594196c-f461-40bc-aa78-a622380b273d",
      "identifier": [ {
        "use": "official",
        "value": "2a620155-9d11-439e-92b3-5d9815ff4de8"
      } ],
      "status": "finished",
      "type": [ {
        "coding": [ {
          "system": "http://snomed.info/sct",
          "code": "424619006",
          "display": "Prenatal visit"
        }, {
          "system": "urn:oid:2.16.840.1.113883.6.90",
          "code": "Z34.9",
          "display": "Encounter for supervision of normal pregnancy, unspecified"
        }, {
          "system": "urn:oid:2.16.840.1.113883.6.103",
          "code": "V22.2",
          "display": "Pregnant state, incidental"
        } ]
      } ],
      "subject": {
        "reference": "Patient/c6f10457-cc24-4ccf-b0f3-4f0bcea4088f",
        "display": "Maria Rivera"
      },
      "period": {
        "start": "2010-11-02T10:00:00+01:00"
      }
    }
  }, {
    "resource": {
      "resourceType": "Encounter",
      "id": "209906d4-ce00-4da0-afa3-eab82400b36f",
      "identifier": [ {
        "use": "official",
        "value": "2a620155-9d11-439e-92b3-5d9815ff4de8"
      } ],
      "status": "finished",
      "type": [ {
        "coding": [ {
          "system": "http://www.ama-assn.org/go/cpt",
          "code": "99241",
          "display": "Office consultation"
        } ]
      } ],
      "subject": {
        "reference": "Patient/c6f10457-cc24-4ccf-b0f3-4f0bcea4088f",
        "display": "Maria Rivera"
      },
      "period": {
        "start": "2010-03-31T10:00:00+02:00"
      },
      "reasonCode": [ {
        "coding": [ {
          "system": "http://snomed.info/sct",
          "code": "195979001",
          "display": "Asthma"
        } ]
      }, {
        "coding": [ {
          "system": "http://snomed.info/sct",
          "code": "373899003",
          "display": "Asthma Daytime Symptoms"
        } ]
      }, {
        "coding": [ {
          "system": "http://snomed.info/sct",
          "code": "395022009",
          "display": "Asthma Nighttime Symptoms"
        } ]
      } ],
      "reasonReference": [ {
        "reference": "Condition/c70506c8-9eed-4b09-82a4-43c691fc7921",
        "display": "D(Rh) Negative"
      }, {
        "reference": "Condition/c70506c8-9eed-4b09-82a4-43c691fc7921",
        "display": "D(Rh) Negative"
      }, {
        "reference": "Condition/c70506c8-9eed-4b09-82a4-43c691fc7921",
        "display": "D(Rh) Negative"
      } ]
    }
  }, {
    "resource": {
      "resourceType": "Encounter",
      "id": "75555f89-1bd1-4ae6-9965-b5ee5122d834",
      "identifier": [ {
        "use": "official",
        "value": "2a620155-9d11-439e-92b3-5d9815ff4de8"
      } ],
      "status": "finished",
      "type": [ {
        "coding": [ {
          "system": "http://snomed.info/sct",
          "code": "424619006",
          "display": "Prenatal visit"
        }, {
          "system": "urn:oid:2.16.840.1.113883.6.90",
          "code": "Z34.9",
          "display": "Encounter for supervision of normal pregnancy, unspecified"
        }, {
          "system": "urn:oid:2.16.840.1.113883.6.103",
          "code": "V22.2",
          "display": "Pregnant state, incidental"
        } ]
      } ],
      "subject": {
        "reference": "Patient/c6f10457-cc24-4ccf-b0f3-4f0bcea4088f",
        "display": "Maria Rivera"
      },
      "period": {
        "start": "2010-08-12T10:00:00+02:00"
      }
    }
  }, {
    "resource": {
      "resourceType": "Encounter",
      "id": "85ce72a2-c4a7-427d-8f5e-38b39f2e151a",
      "identifier": [ {
        "use": "official",
        "value": "2a620155-9d11-439e-92b3-5d9815ff4de8"
      } ],
      "status": "finished",
      "type": [ {
        "coding": [ {
          "system": "http://www.ama-assn.org/go/cpt",
          "code": "99213",
          "display": "Office/outpatient visit, est"
        }, {
          "system": "urn:oid:2.16.840.1.113883.6.103",
          "code": "V70.0",
          "display": "Routine general medical examination at a health care facility"
        } ]
      } ],
      "subject": {
        "reference": "Patient/c6f10457-cc24-4ccf-b0f3-4f0bcea4088f",
        "display": "Maria Rivera"
      },
      "period": {
        "start": "2010-04-06T10:00:00+02:00"
      },
      "reasonCode": [ {
        "coding": [ {
          "system": "http://snomed.info/sct",
          "code": "127364007",
          "display": "Primagravida"
        } ]
      } ],
      "reasonReference": [ {
        "reference": "Condition/c70506c8-9eed-4b09-82a4-43c691fc7921",
        "display": "D(Rh) Negative"
      } ]
    }
  }, {
    "resource": {
      "resourceType": "Encounter",
      "id": "5ef6d644-7a7b-4ad2-a88b-cc795862aa52",
      "identifier": [ {
        "use": "official",
        "value": "2a620155-9d11-439e-92b3-5d9815ff4de8"
      } ],
      "status": "finished",
      "type": [ {
        "coding": [ {
          "system": "http://snomed.info/sct",
          "code": "424619006",
          "display": "Prenatal visit"
        }, {
          "system": "urn:oid:2.16.840.1.113883.6.90",
          "code": "Z34.9",
          "display": "Encounter for supervision of normal pregnancy, unspecified"
        }, {
          "system": "urn:oid:2.16.840.1.113883.6.103",
          "code": "V22.2",
          "display": "Pregnant state, incidental"
        } ]
      } ],
      "subject": {
        "reference": "Patient/c6f10457-cc24-4ccf-b0f3-4f0bcea4088f",
        "display": "Maria Rivera"
      },
      "period": {
        "start": "2010-10-10T10:00:00+02:00"
      }
    }
  }, {
    "resource": {
      "resourceType": "Encounter",
      "id": "53a6c781-074a-4bb4-a494-3c6df6c931a6",
      "identifier": [ {
        "use": "official",
        "value": "2a620155-9d11-439e-92b3-5d9815ff4de8"
      } ],
      "status": "finished",
      "type": [ {
        "coding": [ {
          "system": "http://snomed.info/sct",
          "code": "424619006",
          "display": "Prenatal visit"
        }, {
          "system": "urn:oid:2.16.840.1.113883.6.90",
          "code": "Z34.9",
          "display": "Encounter for supervision of normal pregnancy, unspecified"
        }, {
          "system": "urn:oid:2.16.840.1.113883.6.103",
          "code": "V22.2",
          "display": "Pregnant state, incidental"
        } ]
      } ],
      "subject": {
        "reference": "Patient/c6f10457-cc24-4ccf-b0f3-4f0bcea4088f",
        "display": "Maria Rivera"
      },
      "period": {
        "start": "2010-10-25T10:00:00+02:00"
      }
    }
  }, {
    "resource": {
      "resourceType": "Encounter",
      "id": "92a6deb4-3223-413c-bdd6-0d672f61398e",
      "identifier": [ {
        "use": "official",
        "value": "2a620155-9d11-439e-92b3-5d9815ff4de8"
      } ],
      "status": "finished",
      "type": [ {
        "coding": [ {
          "system": "http://snomed.info/sct",
          "code": "424619006",
          "display": "Prenatal visit"
        }, {
          "system": "urn:oid:2.16.840.1.113883.6.90",
          "code": "Z34.9",
          "display": "Encounter for supervision of normal pregnancy, unspecified"
        }, {
          "system": "urn:oid:2.16.840.1.113883.6.103",
          "code": "V22.2",
          "display": "Pregnant state, incidental"
        } ]
      } ],
      "subject": {
        "reference": "Patient/c6f10457-cc24-4ccf-b0f3-4f0bcea4088f",
        "display": "Maria Rivera"
      },
      "period": {
        "start": "2010-05-20T10:00:00+02:00"
      }
    }
  }, {
    "resource": {
      "resourceType": "Encounter",
      "id": "6109b8c7-3ef3-4cd9-9afb-366247aac342",
      "identifier": [ {
        "use": "official",
        "value": "2a620155-9d11-439e-92b3-5d9815ff4de8"
      } ],
      "status": "finished",
      "type": [ {
        "coding": [ {
          "system": "http://www.ama-assn.org/go/cpt",
          "code": "99241",
          "display": "Office consultation"
        } ]
      } ],
      "subject": {
        "reference": "Patient/c6f10457-cc24-4ccf-b0f3-4f0bcea4088f",
        "display": "Maria Rivera"
      },
      "period": {
        "start": "2010-05-10T10:00:00+02:00"
      }
    }
  }, {
    "resource": {
      "resourceType": "Observation",
      "id": "664f982d-52ea-4937-ad86-977188844fb6",
      "identifier": [ {
        "use": "official",
        "value": "c6f88321-67ad-11db-bd13-0800200c9a66"
      } ],
      "status": "final",
      "category": [ {
        "coding": [ {
          "system": "http://terminology.hl7.org/CodeSystem/observation-category",
          "code": "vital-signs",
          "display": "Vital Signs"
        } ]
      } ],
      "code": {
        "coding": [ {
          "system": "http://loinc.org",
          "code": "8462-4",
          "display": "BP Diastolic"
        } ]
      },
      "subject": {
        "reference": "Patient/c6f10457-cc24-4ccf-b0f3-4f0bcea4088f",
        "display": "Maria Rivera"
      },
      "effectivePeriod": {
        "start": "2010-11-02T10:00:00+01:00"
      },
      "valueQuantity": {
        "value": 74,
        "unit": "mm[Hg]",
        "system": "http://unitsofmeasure.org",
        "code": "mm[Hg]"
      }
    }
  }, {
    "resource": {
      "resourceType": "Observation",
      "id": "b4cb5d55-56e0-43fd-a5fc-6b7cafb3f294",
      "identifier": [ {
        "use": "official",
        "value": "c6f88321-67ad-11db-bd13-0800200c9a66"
      } ],
      "status": "final",
      "category": [ {
        "coding": [ {
          "system": "http://terminology.hl7.org/CodeSystem/observation-category",
          "code": "vital-signs",
          "display": "Vital Signs"
        } ]
      } ],
      "code": {
        "coding": [ {
          "system": "http://loinc.org",
          "code": "8480-6",
          "display": "BP Systolic"
        } ]
      },
      "subject": {
        "reference": "Patient/c6f10457-cc24-4ccf-b0f3-4f0bcea4088f",
        "display": "Maria Rivera"
      },
      "effectivePeriod": {
        "start": "2010-11-02T10:00:00+01:00"
      },
      "valueQuantity": {
        "value": 130,
        "unit": "mm[Hg]",
        "system": "http://unitsofmeasure.org",
        "code": "mm[Hg]"
      }
    }
  }, {
    "resource": {
      "resourceType": "Observation",
      "id": "1f1f6779-c9e8-4617-8882-0efa92806296",
      "identifier": [ {
        "use": "official",
        "value": "c6f88321-67ad-11db-bd13-0800200c9a66"
      } ],
      "status": "final",
      "category": [ {
        "coding": [ {
          "system": "http://terminology.hl7.org/CodeSystem/observation-category",
          "code": "vital-signs",
          "display": "Vital Signs"
        } ]
      } ],
      "code": {
        "coding": [ {
          "system": "http://loinc.org",
          "code": "8462-4",
          "display": "BP Diastolic"
        } ]
      },
      "subject": {
        "reference": "Patient/c6f10457-cc24-4ccf-b0f3-4f0bcea4088f",
        "display": "Maria Rivera"
      },
      "effectivePeriod": {
        "start": "2010-10-25T10:00:00+02:00"
      },
      "valueQuantity": {
        "value": 72,
        "unit": "mm[Hg]",
        "system": "http://unitsofmeasure.org",
        "code": "mm[Hg]"
      }
    }
  }, {
    "resource": {
      "resourceType": "Observation",
      "id": "a9e73695-53e4-4e32-8eb1-2505558af6e9",
      "identifier": [ {
        "use": "official",
        "value": "c6f88321-67ad-11db-bd13-0800200c9a66"
      } ],
      "status": "final",
      "category": [ {
        "coding": [ {
          "system": "http://terminology.hl7.org/CodeSystem/observation-category",
          "code": "vital-signs",
          "display": "Vital Signs"
        } ]
      } ],
      "code": {
        "coding": [ {
          "system": "http://loinc.org",
          "code": "8480-6",
          "display": "BP Systolic"
        } ]
      },
      "subject": {
        "reference": "Patient/c6f10457-cc24-4ccf-b0f3-4f0bcea4088f",
        "display": "Maria Rivera"
      },
      "effectivePeriod": {
        "start": "2010-10-25T10:00:00+02:00"
      },
      "valueQuantity": {
        "value": 132,
        "unit": "mm[Hg]",
        "system": "http://unitsofmeasure.org",
        "code": "mm[Hg]"
      }
    }
  }, {
    "resource": {
      "resourceType": "Observation",
      "id": "b16e2f42-b677-4612-b7f7-718d2322ceff",
      "identifier": [ {
        "use": "official",
        "value": "c6f88321-67ad-11db-bd13-0800200c9a66"
      } ],
      "status": "final",
      "category": [ {
        "coding": [ {
          "system": "http://terminology.hl7.org/CodeSystem/observation-category",
          "code": "vital-signs",
          "display": "Vital Signs"
        } ]
      } ],
      "code": {
        "coding": [ {
          "system": "http://loinc.org",
          "code": "8462-4",
          "display": "BP Diastolic"
        } ]
      },
      "subject": {
        "reference": "Patient/c6f10457-cc24-4ccf-b0f3-4f0bcea4088f",
        "display": "Maria Rivera"
      },
      "effectivePeriod": {
        "start": "2010-10-18T10:00:00+02:00"
      },
      "valueQuantity": {
        "value": 68,
        "unit": "mm[Hg]",
        "system": "http://unitsofmeasure.org",
        "code": "mm[Hg]"
      }
    }
  }, {
    "resource": {
      "resourceType": "Observation",
      "id": "eba18172-62e8-47f3-8c4a-598e5c566286",
      "identifier": [ {
        "use": "official",
        "value": "c6f88321-67ad-11db-bd13-0800200c9a66"
      } ],
      "status": "final",
      "category": [ {
        "coding": [ {
          "system": "http://terminology.hl7.org/CodeSystem/observation-category",
          "code": "vital-signs",
          "display": "Vital Signs"
        } ]
      } ],
      "code": {
        "coding": [ {
          "system": "http://loinc.org",
          "code": "8480-6",
          "display": "BP Systolic"
        } ]
      },
      "subject": {
        "reference": "Patient/c6f10457-cc24-4ccf-b0f3-4f0bcea4088f",
        "display": "Maria Rivera"
      },
      "effectivePeriod": {
        "start": "2010-10-18T10:00:00+02:00"
      },
      "valueQuantity": {
        "value": 128,
        "unit": "mm[Hg]",
        "system": "http://unitsofmeasure.org",
        "code": "mm[Hg]"
      }
    }
  }, {
    "resource": {
      "resourceType": "Observation",
      "id": "29d22dd4-4e6a-4a2e-a0de-77ef8f87eff7",
      "identifier": [ {
        "use": "official",
        "value": "c6f88321-67ad-11db-bd13-0800200c9a66"
      } ],
      "status": "final",
      "category": [ {
        "coding": [ {
          "system": "http://terminology.hl7.org/CodeSystem/observation-category",
          "code": "vital-signs",
          "display": "Vital Signs"
        } ]
      } ],
      "code": {
        "coding": [ {
          "system": "http://loinc.org",
          "code": "39156-5",
          "display": "BMI"
        } ]
      },
      "subject": {
        "reference": "Patient/c6f10457-cc24-4ccf-b0f3-4f0bcea4088f",
        "display": "Maria Rivera"
      },
      "effectivePeriod": {
        "start": "2010-04-06T10:00:00+02:00"
      },
      "valueQuantity": {
        "value": 22.1,
        "unit": "kg/m2",
        "system": "http://unitsofmeasure.org",
        "code": "kg/m2"
      }
    }
  }, {
    "resource": {
      "resourceType": "Observation",
      "id": "b0793850-c4b5-4707-b768-258a5d438a8b",
      "identifier": [ {
        "use": "official",
        "value": "c6f88321-67ad-11db-bd13-0800200c9a66"
      } ],
      "status": "final",
      "category": [ {
        "coding": [ {
          "system": "http://terminology.hl7.org/CodeSystem/observation-category",
          "code": "vital-signs",
          "display": "Vital Signs"
        } ]
      } ],
      "code": {
        "coding": [ {
          "system": "http://loinc.org",
          "code": "8462-4",
          "display": "BP Diastolic"
        } ]
      },
      "subject": {
        "reference": "Patient/c6f10457-cc24-4ccf-b0f3-4f0bcea4088f",
        "display": "Maria Rivera"
      },
      "effectivePeriod": {
        "start": "2010-11-09T10:00:00+01:00"
      },
      "valueQuantity": {
        "value": 78,
        "unit": "mm[Hg]",
        "system": "http://unitsofmeasure.org",
        "code": "mm[Hg]"
      }
    }
  }, {
    "resource": {
      "resourceType": "Observation",
      "id": "bfa663f8-0075-4477-b884-e5510fbaec0c",
      "identifier": [ {
        "use": "official",
        "value": "c6f88321-67ad-11db-bd13-0800200c9a66"
      } ],
      "status": "final",
      "category": [ {
        "coding": [ {
          "system": "http://terminology.hl7.org/CodeSystem/observation-category",
          "code": "vital-signs",
          "display": "Vital Signs"
        } ]
      } ],
      "code": {
        "coding": [ {
          "system": "http://loinc.org",
          "code": "8480-6",
          "display": "BP Systolic"
        } ]
      },
      "subject": {
        "reference": "Patient/c6f10457-cc24-4ccf-b0f3-4f0bcea4088f",
        "display": "Maria Rivera"
      },
      "effectivePeriod": {
        "start": "2010-11-09T10:00:00+01:00"
      },
      "valueQuantity": {
        "value": 138,
        "unit": "mm[Hg]",
        "system": "http://unitsofmeasure.org",
        "code": "mm[Hg]"
      }
    }
  }, {
    "resource": {
      "resourceType": "Observation",
      "id": "19c023b7-122f-42fa-bc04-da6c55fd4348",
      "identifier": [ {
        "use": "official",
        "value": "c6f88321-67ad-11db-bd13-0800200c9a66"
      } ],
      "status": "final",
      "category": [ {
        "coding": [ {
          "system": "http://terminology.hl7.org/CodeSystem/observation-category",
          "code": "vital-signs",
          "display": "Vital Signs"
        } ]
      } ],
      "code": {
        "coding": [ {
          "system": "http://loinc.org",
          "code": "8480-6",
          "display": "BP Systolic"
        } ]
      },
      "subject": {
        "reference": "Patient/c6f10457-cc24-4ccf-b0f3-4f0bcea4088f",
        "display": "Maria Rivera"
      },
      "effectivePeriod": {
        "start": "2010-08-12T10:00:00+02:00"
      },
      "valueQuantity": {
        "value": 122,
        "unit": "mm[Hg]",
        "system": "http://unitsofmeasure.org",
        "code": "mm[Hg]"
      }
    }
  }, {
    "resource": {
      "resourceType": "Observation",
      "id": "378a4733-0ca9-49dc-a912-5140a6e647f2",
      "identifier": [ {
        "use": "official",
        "value": "c6f88321-67ad-11db-bd13-0800200c9a66"
      } ],
      "status": "final",
      "category": [ {
        "coding": [ {
          "system": "http://terminology.hl7.org/CodeSystem/observation-category",
          "code": "vital-signs",
          "display": "Vital Signs"
        } ]
      } ],
      "code": {
        "coding": [ {
          "system": "http://loinc.org",
          "code": "8462-4",
          "display": "BP Diastolic"
        } ]
      },
      "subject": {
        "reference": "Patient/c6f10457-cc24-4ccf-b0f3-4f0bcea4088f",
        "display": "Maria Rivera"
      },
      "effectivePeriod": {
        "start": "2010-08-12T10:00:00+02:00"
      },
      "valueQuantity": {
        "value": 66,
        "unit": "mm[Hg]",
        "system": "http://unitsofmeasure.org",
        "code": "mm[Hg]"
      }
    }
  }, {
    "resource": {
      "resourceType": "Observation",
      "id": "8a8dc81b-74b5-4d16-a6a6-c225f4a30129",
      "identifier": [ {
        "use": "official",
        "value": "c6f88321-67ad-11db-bd13-0800200c9a66"
      } ],
      "status": "final",
      "category": [ {
        "coding": [ {
          "system": "http://terminology.hl7.org/CodeSystem/observation-category",
          "code": "vital-signs",
          "display": "Vital Signs"
        } ]
      } ],
      "code": {
        "coding": [ {
          "system": "http://loinc.org",
          "code": "8462-4",
          "display": "BP Diastolic"
        } ]
      },
      "subject": {
        "reference": "Patient/c6f10457-cc24-4ccf-b0f3-4f0bcea4088f",
        "display": "Maria Rivera"
      },
      "effectivePeriod": {
        "start": "2010-11-06T10:00:00+01:00"
      },
      "valueQuantity": {
        "value": 76,
        "unit": "mm[Hg]",
        "system": "http://unitsofmeasure.org",
        "code": "mm[Hg]"
      }
    }
  }, {
    "resource": {
      "resourceType": "Observation",
      "id": "479e7ab8-cb9b-4f8e-a770-86a47e1b61e7",
      "identifier": [ {
        "use": "official",
        "value": "c6f88321-67ad-11db-bd13-0800200c9a66"
      } ],
      "status": "final",
      "category": [ {
        "coding": [ {
          "system": "http://terminology.hl7.org/CodeSystem/observation-category",
          "code": "vital-signs",
          "display": "Vital Signs"
        } ]
      } ],
      "code": {
        "coding": [ {
          "system": "http://loinc.org",
          "code": "8480-6",
          "display": "BP Systolic"
        } ]
      },
      "subject": {
        "reference": "Patient/c6f10457-cc24-4ccf-b0f3-4f0bcea4088f",
        "display": "Maria Rivera"
      },
      "effectivePeriod": {
        "start": "2010-11-06T10:00:00+01:00"
      },
      "valueQuantity": {
        "value": 136,
        "unit": "mm[Hg]",
        "system": "http://unitsofmeasure.org",
        "code": "mm[Hg]"
      }
    }
  }, {
    "resource": {
      "resourceType": "Observation",
      "id": "e666f909-054c-4f8b-a91d-799e383f7751",
      "identifier": [ {
        "use": "official",
        "value": "c6f88321-67ad-11db-bd13-0800200c9a66"
      } ],
      "status": "final",
      "category": [ {
        "coding": [ {
          "system": "http://terminology.hl7.org/CodeSystem/observation-category",
          "code": "vital-signs",
          "display": "Vital Signs"
        } ]
      } ],
      "code": {
        "coding": [ {
          "system": "http://loinc.org",
          "code": "8462-4",
          "display": "BP Diastolic"
        } ]
      },
      "subject": {
        "reference": "Patient/c6f10457-cc24-4ccf-b0f3-4f0bcea4088f",
        "display": "Maria Rivera"
      },
      "effectivePeriod": {
        "start": "2010-10-10T10:00:00+02:00"
      },
      "valueQuantity": {
        "value": 74,
        "unit": "mm[Hg]",
        "system": "http://unitsofmeasure.org",
        "code": "mm[Hg]"
      }
    }
  }, {
    "resource": {
      "resourceType": "Observation",
      "id": "6d5fa2d3-5664-4aa9-bba3-7fd231f3c845",
      "identifier": [ {
        "use": "official",
        "value": "c6f88321-67ad-11db-bd13-0800200c9a66"
      } ],
      "status": "final",
      "category": [ {
        "coding": [ {
          "system": "http://terminology.hl7.org/CodeSystem/observation-category",
          "code": "vital-signs",
          "display": "Vital Signs"
        } ]
      } ],
      "code": {
        "coding": [ {
          "system": "http://loinc.org",
          "code": "8480-6",
          "display": "BP Systolic"
        } ]
      },
      "subject": {
        "reference": "Patient/c6f10457-cc24-4ccf-b0f3-4f0bcea4088f",
        "display": "Maria Rivera"
      },
      "effectivePeriod": {
        "start": "2010-10-10T10:00:00+02:00"
      },
      "valueQuantity": {
        "value": 130,
        "unit": "mm[Hg]",
        "system": "http://unitsofmeasure.org",
        "code": "mm[Hg]"
      }
    }
  }, {
    "resource": {
      "resourceType": "Observation",
      "id": "797440f1-635f-46ee-90f1-bc285405a2ad",
      "identifier": [ {
        "use": "official",
        "value": "c6f88321-67ad-11db-bd13-0800200c9a66"
      } ],
      "status": "final",
      "category": [ {
        "coding": [ {
          "system": "http://terminology.hl7.org/CodeSystem/observation-category",
          "code": "vital-signs",
          "display": "Vital Signs"
        } ]
      } ],
      "code": {
        "coding": [ {
          "system": "http://loinc.org",
          "code": "8480-6",
          "display": "BP Systolic"
        } ]
      },
      "subject": {
        "reference": "Patient/c6f10457-cc24-4ccf-b0f3-4f0bcea4088f",
        "display": "Maria Rivera"
      },
      "effectivePeriod": {
        "start": "2010-09-25T10:00:00+02:00"
      },
      "valueQuantity": {
        "value": 124,
        "unit": "mm[Hg]",
        "system": "http://unitsofmeasure.org",
        "code": "mm[Hg]"
      }
    }
  }, {
    "resource": {
      "resourceType": "Observation",
      "id": "4a6f0963-9d47-4c71-9604-c3dcc125c806",
      "identifier": [ {
        "use": "official",
        "value": "c6f88321-67ad-11db-bd13-0800200c9a66"
      } ],
      "status": "final",
      "category": [ {
        "coding": [ {
          "system": "http://terminology.hl7.org/CodeSystem/observation-category",
          "code": "vital-signs",
          "display": "Vital Signs"
        } ]
      } ],
      "code": {
        "coding": [ {
          "system": "http://loinc.org",
          "code": "8462-4",
          "display": "BP Diastolic"
        } ]
      },
      "subject": {
        "reference": "Patient/c6f10457-cc24-4ccf-b0f3-4f0bcea4088f",
        "display": "Maria Rivera"
      },
      "effectivePeriod": {
        "start": "2010-09-25T10:00:00+02:00"
      },
      "valueQuantity": {
        "value": 68,
        "unit": "mm[Hg]",
        "system": "http://unitsofmeasure.org",
        "code": "mm[Hg]"
      }
    }
  } ]
}