{
  "resourceType": "Bundle",
  "entry": [ {
    "resource": {
      "resourceType": "Composition",
      "id": "8c1a233c-190d-40d0-b10c-7834afbc23ca",
      "identifier": {
        "use": "official",
        "value": "db734647-fc99-424c-a864-7e3cda82e703"
      },
      "status": "preliminary",
      "type": {
        "coding": [ {
          "system": "http://loinc.org",
          "code": "34133-9",
          "display": "Summarization of Episode Note"
        } ]
      },
      "category": [ {
        "coding": [ {
          "system": "http://hl7.org/fhir/ValueSet/doc-classcodes",
          "code": "LP173421-7",
          "display": "Note"
        } ]
      } ],
      "subject": {
        "reference": "Patient/cb991abd-9ceb-4c93-aa9c-9d1d92074e5a",
        "display": "Pedro Briggs"
      },
      "date": "2014-04-16T11:55:05+02:00",
      "author": [ {
        "reference": "Practitioner/794bdc14-dbf9-4bf8-b18f-14be057b8e42",
        "display": "Henry Seven MD"
      } ],
      "title": "Community Health and Hospitals: Health Summary",
      "confidentiality": "N",
      "attester": [ {
        "mode": "legal",
        "time": "2013-04-18T09:00:00+05:00",
        "party": {
          "reference": "Practitioner/1febcceb-ea66-4fa5-a0ac-3f7f36960c86",
          "display": "Henry Seven"
        }
      }, {
        "mode": "professional",
        "time": "2014-04-16T11:55:05+02:00",
        "party": {
          "reference": "Practitioner/1febcceb-ea66-4fa5-a0ac-3f7f36960c86",
          "display": "Henry Seven"
        }
      } ],
      "custodian": {
        "reference": "Organization/e60944c1-204e-40cc-88ae-5b25fad4de31",
        "display": "Community Health and Hospitals"
      },
      "event": [ {
        "period": {
          "start": "2009-06-15T10:00:00+02:00",
          "end": "2010-10-04T10:00:00+02:00"
        },
        "detail": [ {
          "reference": "Practitioner/1a00a6a9-d7a2-4eeb-b6a4-3ccb3853b4ca",
          "display": "Henry Seven MD"
        } ]
      } ],
      "section": [ {
        "title": "Allergies,  Adverse Reactions & Alerts",
        "code": {
          "coding": [ {
            "system": "http://loinc.org",
            "code": "48765-2",
            "display": "Allergies, adverse reactions, alerts"
          } ]
        },
        "text": {
          "status": "additional",
          "div": "<div xmlns=\"http://www.w3.org/1999/xhtml\"><table><thead><tr><th>Group Description</th><th>Code System</th><th>Code</th><th>Code Description</th><th>Severity</th><th>Susceptibility</th><th>Date and Time</th><th>Status</th></tr></thead><tbody><tr><td>Allergy to Eggs</td><td>UNII</td><td>291P45F896</td><td><span/>Eggs</td><td><span/>Moderate</td><td>Very susceptible</td><td>04-01-2010 10:00:00</td><td>Active</td></tr><tr><td/><td>ICD-9-CM</td><td>V15.03</td><td>Allergy to eggs</td><td/><td/><td/><td/></tr><tr><td>Amikacin</td><td>RxNorm</td><td>905148</td><td><span/>Amikacin Sulfate 50 MG/ML Injectable Solution</td><td><span/>Fatal</td><td>Moderately Susceptible</td><td>04-01-2010 10:00:00</td><td>Active</td></tr><tr><td>Penicillin V</td><td>NDF-RT</td><td>N0000011298</td><td><span/>Penicillin V</td><td><span/>Fatal</td><td>Moderately Susceptible</td><td>04-01-2010 10:00:00</td><td>Active</td></tr></tbody></table></div>"
        },
        "mode": "snapshot",
        "entry": [ {
          "reference": "AllergyIntolerance/4f8aa834-c4f9-41f4-afdc-9e1160f69012",
          "display": "Penicillin V + Penicillin V"
        }, {
          "reference": "AllergyIntolerance/c2b6806e-525e-44a8-bd93-00bba11dc70c",
          "display": "Allergy to Eggs + Eggs"
        }, {
          "reference": "AllergyIntolerance/776d1252-4cab-43f6-93cc-a09a5afb303a",
          "display": "Amikacin + Amikacin Sulfate 50 MG/ML Injectable Solution"
        } ]
      }, {
        "title": "Problems",
        "code": {
          "coding": [ {
            "system": "http://loinc.org",
            "code": "11450-4",
            "display": "PROBLEM LIST"
          } ]
        },
        "text": {
          "status": "additional",
          "div": "<div xmlns=\"http://www.w3.org/1999/xhtml\"><table><thead><tr><th>Group Description</th><th>Code System</th><th>Code</th><th>Code Description</th><th>Date and Time</th><th>Status</th></tr></thead><tbody><tr><td>Hypertension</td><td>SNOMED-CT</td><td>59621000</td><td><span/>Essential hypertension</td><td>06-15-2009 10:00:00</td><td>Active</td></tr><tr><td/><td>ICD-10-CM</td><td>I10</td><td>Essential (primary) hypertension</td><td/><td/></tr><tr><td/><td>ICD-9-CM</td><td>401.9</td><td>Unspecified essential hypertension</td><td/><td/></tr><tr><td>Myocardial Infarction</td><td>SNOMED-CT</td><td>304914007</td><td><span/>Acute Q wave myocardial infarction</td><td>08-24-2009 10:00:00</td><td>Active</td></tr><tr><td/><td>ICD-10-CM</td><td>I21.3</td><td>ST elevation (STEMI) myocardial infarction of unspecified site</td><td/><td/></tr><tr><td/><td>ICD-9-CM</td><td>410.90</td><td>Acute myocardial infarction of unspecified site, episode of care unspecified</td><td/><td/></tr><tr><td>Coronary Artery Disease includes MI</td><td>SNOMED-CT</td><td>57054005</td><td><span/>Acute myocardial infarction</td><td>04-13-2010 10:00:00</td><td>Active</td></tr><tr><td/><td>ICD-10-CM</td><td>I21.3</td><td>ST elevation (STEMI) myocardial infarction of unspecified site</td><td/><td/></tr><tr><td/><td>ICD-9-CM</td><td>410.90</td><td>Acute myocardial infarction of unspecified site, episode of care unspecified</td><td/><td/></tr></tbody></table></div>"
        },
        "mode": "snapshot",
        "entry": [ {
          "reference": "Condition/6737435a-b1db-4dc7-9f98-21e271ca4a2a",
          "display": "Acute Q wave myocardial infarction"
        } ]
      }, {
        "title": "Medications",
        "code": {
          "coding": [ {
            "system": "http://loinc.org",
            "code": "10160-0",
            "display": "History of Medication Use"
          } ]
        },
        "text": {
          "status": "additional",
          "div": "<div xmlns=\"http://www.w3.org/1999/xhtml\"><table><thead><tr><th>Group Description</th><th>Code System</th><th>Code</th><th>Code Description</th><th>Date and Time</th><th>Status</th></tr></thead><tbody><tr><td>Antihypertensive combinations</td><td>RxNorm</td><td>858828</td><td><span/>Enalapril Maleate 10 MG / Hydrochlorothiazide 25 MG Oral Tablet</td><td>08-24-2009 10:00:00</td><td>Active</td></tr><tr><td>Antiplatelets</td><td>RxNorm</td><td>243670</td><td><span/>Aspirin 81 MG Oral Tablet</td><td>08-24-2009 10:00:00</td><td>Active</td></tr><tr><td>Beta Blocker Therapy</td><td>RxNorm</td><td>866924</td><td><span/>Metoprolol Tartrate 25 MG Oral Tablet</td><td>08-24-2009 10:00:00</td><td>Active</td></tr><tr><td>Antihypertensive combinations</td><td>RxNorm</td><td>858828</td><td><span/>Enalapril Maleate 10 MG / Hydrochlorothiazide 25 MG Oral Tablet</td><td>04-13-2010 10:00:00</td><td>Active</td></tr><tr><td>Antiplatelets</td><td>RxNorm</td><td>243670</td><td><span/>Aspirin 81 MG Oral Tablet</td><td>04-13-2010 10:00:00</td><td>Active</td></tr><tr><td>Beta Blocker Therapy</td><td>RxNorm</td><td>866924</td><td><span/>Metoprolol Tartrate 25 MG Oral Tablet</td><td>04-13-2010 10:00:00</td><td>Active</td></tr><tr><td>Statins</td><td>RxNorm</td><td>617314</td><td><span/>atorvastatin 10 MG Oral Tablet [Lipitor]</td><td>04-13-2010 10:00:00</td><td>Active</td></tr></tbody></table></div>"
        },
        "mode": "snapshot",
        "entry": [ {
          "reference": "MedicationStatement/f07019d0-0ee8-4e0c-94e3-ba94f4f2478f",
          "display": "Enalapril Maleate 10 MG / Hydrochlorothiazide 25 MG Oral Tablet"
        }, {
          "reference": "MedicationStatement/5809c41a-7df4-4a5c-af23-2c4cd6514ba4",
          "display": "atorvastatin 10 MG Oral Tablet [Lipitor]"
        }, {
          "reference": "MedicationStatement/4a49551b-9a79-495f-a04f-d93e841282fb",
          "display": "Aspirin 81 MG Oral Tablet"
        }, {
          "reference": "MedicationStatement/fa774762-574b-43ac-ade7-f0d4fa69aa5c",
          "display": "Metoprolol Tartrate 25 MG Oral Tablet"
        }, {
          "reference": "MedicationStatement/2df28bc0-bcd6-4ab5-87a6-dc9bc7caceda",
          "display": "Enalapril Maleate 10 MG / Hydrochlorothiazide 25 MG Oral Tablet"
        }, {
          "reference": "MedicationStatement/75104931-834a-4031-a985-0684dc92fb80",
          "display": "Metoprolol Tartrate 25 MG Oral Tablet"
        }, {
          "reference": "MedicationStatement/90c7aad3-7473-4edb-8f0b-ff9436981c23",
          "display": "Aspirin 81 MG Oral Tablet"
        } ]
      }, {
        "title": "Encounters",
        "code": {
          "coding": [ {
            "system": "http://loinc.org",
            "code": "46240-8",
            "display": "History of encounters"
          } ]
        },
        "text": {
          "status": "additional",
          "div": "<div xmlns=\"http://www.w3.org/1999/xhtml\"><table><thead><tr><th>Group Description</th><th>Code System</th><th>Code</th><th>Code Description</th><th>Date and Time</th><th>Status</th></tr></thead><tbody><tr><td>Encounter Acute Inpt</td><td>CPT</td><td>99251</td><td><span/>Initial inpatient consult</td><td>04-01-2010 10:00:00</td><td>Performed</td></tr><tr><td>Encounter Inpatient Discharge</td><td>CPT</td><td>99238</td><td><span/>Hospital discharge day</td><td>04-04-2010 10:00:00</td><td>Performed</td></tr><tr><td>Encounter Outpatient</td><td>CPT</td><td>99213</td><td><span/>Office/outpatient visit, est</td><td>04-13-2010 10:00:00</td><td>Performed</td></tr><tr><td/><td>ICD-9-CM</td><td>V70.0</td><td>Routine general medical examination at a health care facility</td><td/><td/></tr><tr><td>Encounter Outpatient</td><td>CPT</td><td>99213</td><td><span/>Office/outpatient visit, est</td><td>05-16-2010 10:00:00</td><td>Performed</td></tr><tr><td/><td>ICD-9-CM</td><td>V70.0</td><td>Routine general medical examination at a health care facility</td><td/><td/></tr><tr><td>Encounter Outpatient</td><td>CPT</td><td>99213</td><td><span/>Office/outpatient visit, est</td><td>10-04-2010 10:00:00</td><td>Performed</td></tr><tr><td/><td>ICD-9-CM</td><td>V70.0</td><td>Routine general medical examination at a health care facility</td><td/><td/></tr></tbody></table></div>"
        },
        "mode": "snapshot",
        "entry": [ {
          "reference": "Encounter/12e13ac0-8b1d-42ee-b195-1a4945218532",
          "display": "Office/outpatient visit, est"
        }, {
          "reference": "Encounter/e153b79c-8255-4f7c-bf29-fa8fa0d46dda",
          "display": "Office/outpatient visit, est"
        }, {
          "reference": "Encounter/659565ae-1771-4ac3-a957-3f42fc1984d3",
          "display": "Office/outpatient visit, est"
        }, {
          "reference": "Encounter/1d2e2545-0a94-4ff7-a597-4b7ca95865ae",
          "display": "Hospital discharge day"
        }, {
          "reference": "Encounter/0fee7ac2-e9f1-4191-99e0-3e0ba2f1ed60",
          "display": "Initial inpatient consult"
        } ]
      }, {
        "title": "Vital Signs",
        "code": {
          "coding": [ {
            "system": "http://loinc.org",
            "code": "8716-3",
            "display": "Vital Signs"
          } ]
        },
        "text": {
          "status": "additional",
          "div": "<div xmlns=\"http://www.w3.org/1999/xhtml\"><table><thead><tr><th>Group Description</th><th>Code System</th><th>Code</th><th>Code Description</th><th>Value</th><th>Unit</th><th>Date and Time</th><th>Status</th></tr></thead><tbody><tr><td>Diastolic Blood Pressure</td><td>LOINC</td><td>8462-4</td><td><span/>BP Diastolic</td><td>70</td><td>mm[Hg]</td><td>08-28-2009 10:00:00</td><td>Finding</td></tr><tr><td>Systolic Blood Pressure</td><td>LOINC</td><td>8480-6</td><td><span/>BP Systolic</td><td>122</td><td>mm[Hg]</td><td>08-28-2009 10:00:00</td><td>Finding</td></tr><tr><td>BMI</td><td>LOINC</td><td>39156-5</td><td><span/>BMI</td><td>28.3</td><td>kg/m2</td><td>04-13-2010 10:00:00</td><td>Finding</td></tr><tr><td>Diastolic Blood Pressure</td><td>LOINC</td><td>8462-4</td><td><span/>BP Diastolic</td><td>68</td><td>mm[Hg]</td><td>04-13-2010 10:00:00</td><td>Finding</td></tr><tr><td>Systolic Blood Pressure</td><td>LOINC</td><td>8480-6</td><td><span/>BP Systolic</td><td>116</td><td>mm[Hg]</td><td>04-13-2010 10:00:00</td><td>Finding</td></tr><tr><td>BMI</td><td>LOINC</td><td>39156-5</td><td><span/>BMI</td><td>28</td><td>kg/m2</td><td>05-16-2010 10:00:00</td><td>Finding</td></tr><tr><td>Diastolic Blood Pressure</td><td>LOINC</td><td>8462-4</td><td><span/>BP Diastolic</td><td>65</td><td>mm[Hg]</td><td>05-16-2010 10:00:00</td><td>Finding</td></tr><tr><td>Systolic Blood Pressure</td><td>LOINC</td><td>8480-6</td><td><span/>BP Systolic</td><td>110</td><td>mm[Hg]</td><td>05-16-2010 10:00:00</td><td>Finding</td></tr><tr><td>BMI</td><td>LOINC</td><td>39156-5</td><td><span/>BMI</td><td>27.1</td><td>kg/m2</td><td>10-04-2010 10:00:00</td><td>Finding</td></tr></tbody></table></div>"
        },
        "mode": "snapshot",
        "entry": [ {
          "reference": "Observation/64165d2a-af3d-4358-a4ce-0f8330a9bf47",
          "display": "BP Systolic"
        }, {
          "reference": "Observation/75e0bf3f-7f19-477c-843a-eb583640902a",
          "display": "BP Diastolic"
        }, {
          "reference": "Observation/300c6e0b-b5ab-41ae-9d29-69c965fdcea5",
          "display": "BMI"
        }, {
          "reference": "Observation/43642562-845b-4179-a5f2-cce8a394c660",
          "display": "BP Systolic"
        }, {
          "reference": "Observation/c9dce6ba-e275-49d3-a0da-7a27dd6f4466",
          "display": "BP Diastolic"
        }, {
          "reference": "Observation/9c67f49b-5568-4efd-8bb0-fe1fca87174f",
          "display": "BMI"
        }, {
          "reference": "Observation/a21960f1-6a90-4706-946c-4cd9fd4e261d",
          "display": "BP Diastolic"
        }, {
          "reference": "Observation/1fc8789a-716e-420f-a403-88eefb52d87e",
          "display": "BP Systolic"
        }, {
          "reference": "Observation/de46bf0d-64c9-42c0-8f7f-60de1000daab",
          "display": "BMI"
        } ]
      }, {
        "title": "Results",
        "code": {
          "coding": [ {
            "system": "http://loinc.org",
            "code": "30954-2",
            "display": "Results"
          } ]
        },
        "text": {
          "status": "additional",
          "div": "<div xmlns=\"http://www.w3.org/1999/xhtml\"><table><thead><tr><th>Group Description</th><th>Code System</th><th>Code</th><th>Code Description</th><th>Value</th><th>Unit</th><th>Reference Range</th><th>Date and Time</th><th>Status</th></tr></thead><tbody><tr><td>High Density Lipoprotein (HDL)</td><td>LOINC</td><td>14646-4</td><td><span/>HDLc SerPl-sCnc</td><td>54</td><td>mg/dL</td><td>&amp;gt;=40 mg/dL</td><td>08-28-2009 10:00:00</td><td>Completed</td></tr><tr><td/><td>CPT</td><td>83701</td><td>Lipoprotein bld, hr fraction</td><td/><td/><td/><td/><td/></tr><tr><td/><td>SNOMED-CT</td><td>28036006</td><td>High density lipoprotein cholesterol measurement</td><td/><td/><td/><td/><td/></tr><tr><td>Low Density Lipoprotein (LDL)</td><td>LOINC</td><td>2089-1</td><td><span/>LDLc SerPl-mCnc</td><td>108</td><td>mg/dL</td><td>&amp;lt;130 mg/dL (calc)</td><td>08-28-2009 10:00:00</td><td>Completed</td></tr><tr><td/><td>CPT</td><td>83721</td><td>Assay of blood lipoprotein</td><td/><td/><td/><td/><td/></tr><tr><td/><td>SNOMED-CT</td><td>113079009</td><td>Low density lipoprotein cholesterol measurement</td><td/><td/><td/><td/><td/></tr><tr><td>Total Cholesterol</td><td>LOINC</td><td>2093-3</td><td><span/>Cholest SerPl-mCnc</td><td>196</td><td>mg/dL</td><td>125-200 mg/dL</td><td>08-28-2009 10:00:00</td><td>Completed</td></tr><tr><td/><td>CPT</td><td>82465</td><td>Assay, bld/serum cholesterol</td><td/><td/><td/><td/><td/></tr><tr><td/><td>SNOMED-CT</td><td>121868005</td><td>Total cholesterol measurement</td><td/><td/><td/><td/><td/></tr><tr><td>Triglycerides</td><td>LOINC</td><td>12951-0</td><td><span/>Trigl SerPl Calc-mCnc</td><td>170</td><td>mg/dL</td><td>10-39 years: 55-110 mg/dL | 40-59 years: 70-150 mg/dL | &amp;gt;60 years: 80-150 mg/dL | Therapeutic Target: &amp;lt;100 mg/dL </td><td>08-28-2009 10:00:00</td><td>Completed</td></tr><tr><td/><td>CPT</td><td>84478</td><td>Assay of triglycerides</td><td/><td/><td/><td/><td/></tr><tr><td/><td>SNOMED-CT</td><td>14740000</td><td>Triglycerides measurement</td><td/><td/><td/><td/><td/></tr><tr><td>High Density Lipoprotein (HDL)</td><td>LOINC</td><td>14646-4</td><td><span/>HDLc SerPl-sCnc</td><td>50</td><td>mg/dL</td><td>&amp;gt;=40 mg/dL</td><td>04-13-2010 10:00:00</td><td>Completed</td></tr><tr><td/><td>CPT</td><td>83701</td><td>Lipoprotein bld, hr fraction</td><td/><td/><td/><td/><td/></tr><tr><td/><td>SNOMED-CT</td><td>28036006</td><td>High density lipoprotein cholesterol measurement</td><td/><td/><td/><td/><td/></tr><tr><td>Low Density Lipoprotein (LDL)</td><td>LOINC</td><td>2089-1</td><td><span/>LDLc SerPl-mCnc</td><td>87</td><td>mg/dL</td><td>&amp;lt;130 mg/dL (calc)</td><td>04-13-2010 10:00:00</td><td>Completed</td></tr><tr><td/><td>CPT</td><td>83721</td><td>Assay of blood lipoprotein</td><td/><td/><td/><td/><td/></tr><tr><td/><td>SNOMED-CT</td><td>113079009</td><td>Low density lipoprotein cholesterol measurement</td><td/><td/><td/><td/><td/></tr><tr><td>Total Cholesterol</td><td>LOINC</td><td>2093-3</td><td><span/>Cholest SerPl-mCnc</td><td>170</td><td>mg/dL</td><td>125-200 mg/dL</td><td>04-13-2010 10:00:00</td><td>Completed</td></tr><tr><td/><td>CPT</td><td>82465</td><td>Assay, bld/serum cholesterol</td><td/><td/><td/><td/><td/></tr><tr><td/><td>SNOMED-CT</td><td>121868005</td><td>Total cholesterol measurement</td><td/><td/><td/><td/><td/></tr><tr><td>Triglycerides</td><td>LOINC</td><td>12951-0</td><td><span/>Trigl SerPl Calc-mCnc</td><td>157</td><td>mg/dL</td><td>10-39 years: 55-110 mg/dL | 40-59 years: 70-150 mg/dL | &amp;gt;60 years: 80-150 mg/dL | Therapeutic Target: &amp;lt;100 mg/dL </td><td>04-13-2010 10:00:00</td><td>Completed</td></tr><tr><td/><td>CPT</td><td>84478</td><td>Assay of triglycerides</td><td/><td/><td/><td/><td/></tr><tr><td/><td>SNOMED-CT</td><td>14740000</td><td>Triglycerides measurement</td><td/><td/><td/><td/><td/></tr></tbody></table></div>"
        },
        "mode": "snapshot",
        "entry": [ {
          "reference": "DiagnosticReport/42ed83e0-24cf-4828-b8c8-79ce97b284d2",
          "display": "Lipid Panel"
        }, {
          "reference": "DiagnosticReport/e26a615a-0090-4ad2-91d2-e50bd3cec36c",
          "display": "Lipid Panel"
        } ]
      }, {
        "title": "Social History",
        "code": {
          "coding": [ {
            "system": "http://loinc.org",
            "code": "29762-2",
            "display": "Social History"
          } ]
        },
        "text": {
          "status": "additional",
          "div": "<div xmlns=\"http://www.w3.org/1999/xhtml\"><table><thead><tr><th>Group Description</th><th>Code System</th><th>Code</th><th>Code Description</th><th>Date and Time</th><th>Status</th></tr></thead><tbody><tr><td>Tobacco Use</td><td>SNOMED-CT</td><td>266919005</td><td><span/>Never smoker (Never Smoked)</td><td>04-01-2010 10:00:00</td><td>Active</td></tr><tr><td/><td>SNOMED-CT</td><td>449868002</td><td>Current every day smoker</td><td/><td/></tr></tbody></table></div>"
        },
        "mode": "snapshot",
        "entry": [ {
          "reference": "Observation/951ebdd8-b28d-48ed-a1bf-e3578ad810bd"
        } ]
      }, {
        "title": "Procedures",
        "code": {
          "coding": [ {
            "system": "http://loinc.org",
            "code": "47519-4",
            "display": "HISTORY OF PROCEDURES"
          } ]
        },
        "text": {
          "status": "additional",
          "div": "<div xmlns=\"http://www.w3.org/1999/xhtml\"><table><thead><tr><th>Group Description</th><th>Code System</th><th>Code</th><th>Code Description</th><th>Date and Time</th><th>Status</th></tr></thead><tbody><tr><td>Cardiac Surgery</td><td>CPT</td><td>33535</td><td><span/>CABG, arterial, three</td><td>08-24-2009 10:00:00</td><td>Performed</td></tr><tr><td/><td>SNOMED-CT</td><td>10326007</td><td>Coronary artery bypass with autogenous graft, three grafts</td><td/><td/></tr><tr><td>dietary consultation order</td><td>SNOMED-CT</td><td>103699006</td><td><span/>Patient referral to dietitian</td><td>04-13-2010 10:00:00</td><td>Performed</td></tr></tbody></table></div>"
        },
        "mode": "snapshot",
        "entry": [ {
          "reference": "Procedure/56eae1f2-54ba-44ee-bcea-9a2990693819",
          "display": "CABG, arterial, three"
        } ]
      } ]
    }
  }, {
    "resource": {
      "resourceType": "Patient",
      "id": "cb991abd-9ceb-4c93-aa9c-9d1d92074e5a",
      "extension": [ {
        "url": "http://hl7.org/fhir/StructureDefinition/patient-religion",
        "valueCodeableConcept": {
          "coding": [ {
            "system": "urn:oid:2.16.840.1.113883.5.1076",
            "code": "1007",
            "display": "Atheism"
          } ]
        }
      }, {
        "url": "http://hl7.org/fhir/us/core/StructureDefinition/us-core-race",
        "extension": [ {
          "url": "text",
          "valueString": "Other Race"
        }, {
          "url": "ombCategory",
          "valueCoding": {
            "system": "urn:oid:2.16.840.1.113883.6.238",
            "code": "2131-1",
            "display": "Other Race"
          }
        } ]
      }, {
        "url": "http://hl7.org/fhir/us/core/StructureDefinition/us-core-ethnicity",
        "extension": [ {
          "url": "text",
          "valueString": "Hispanic or Latino"
        }, {
          "url": "ombCategory",
          "valueCoding": {
            "system": "urn:oid:2.16.840.1.113883.6.238",
            "code": "2135-2",
            "display": "Hispanic or Latino"
          }
        } ]
      }, {
        "url": "http://hl7.org/fhir/StructureDefinition/patient-birthPlace",
        "valueAddress": {
          "city": "Bakersfield",
          "state": "CA",
          "postalCode": "93301",
          "country": "US"
        }
      } ],
      "identifier": [ {
        "use": "official",
        "system": "urn:oid:2.16.840.1.113883.19.5.99999.2",
        "value": "998991"
      }, {
        "use": "official",
        "system": "urn:oid:2.16.840.1.113883.4.1",
        "value": "111-00-2330"
      } ],
      "name": [ {
        "use": "usual",
        "family": "Briggs",
        "given": [ "Pedro" ]
      } ],
      "telecom": [ {
        "system": "phone",
        "value": "(504)431-8438",
        "use": "mobile"
      } ],
      "gender": "male",
      "birthDate": "1940-11-07",
      "address": [ {
        "use": "home",
        "line": [ "3681 Paul Wayne Haggerty Road" ],
        "city": "Avondale",
        "state": "LA",
        "postalCode": "70094",
        "country": "US"
      } ],
      "maritalStatus": {
        "coding": [ {
          "system": "http://terminology.hl7.org/CodeSystem/v3-MaritalStatus",
          "code": "M",
          "display": "Married"
        } ]
      },
      "contact": [ {
        "relationship": [ {
          "coding": [ {
            "system": "http://terminology.hl7.org/CodeSystem/v2-0131",
            "code": "C",
            "display": "Emergency Contact"
          } ]
        } ],
        "name": {
          "family": "Choy",
          "given": [ "Madeleine" ],
          "prefix": [ "Mrs." ]
        },
        "telecom": [ {
          "system": "phone",
          "value": "(603)327-2634",
          "use": "home"
        }, {
          "system": "email",
          "value": "MadeleineDChoy@rhyta.com",
          "use": "work"
        } ],
        "address": {
          "use": "home",
          "line": [ "71 Shearwood Forest Drive" ],
          "city": "Manchester",
          "state": "NH",
          "postalCode": "3101",
          "country": "US"
        }
      } ],
      "communication": [ {
        "language": {
          "coding": [ {
            "system": "urn:ietf:bcp:47",
            "code": "spa"
          } ]
        },
        "preferred": true
      } ],
      "managingOrganization": {
        "reference": "Organization/3db73bd0-6a9d-4f48-9de9-3c7af5c894b4",
        "display": "Community Health and Hospitals"
      }
    }
  }, {
    "resource": {
      "resourceType": "Organization",
      "id": "3db73bd0-6a9d-4f48-9de9-3c7af5c894b4",
      "identifier": [ {
        "use": "official",
        "value": "2.16.840.1.113883.4.6"
      } ],
      "name": "Community Health and Hospitals",
      "telecom": [ {
        "system": "phone",
        "value": " 555-555-5000",
        "use": "work"
      } ],
      "address": [ {
        "line": [ "1001 Village Avenue" ],
        "city": "Portland",
        "state": "OR",
        "postalCode": "99123",
        "country": "US"
      } ]
    }
  }, {
    "resource": {
      "resourceType": "Practitioner",
      "id": "794bdc14-dbf9-4bf8-b18f-14be057b8e42",
      "identifier": [ {
        "use": "official",
        "system": "urn:oid:2.16.840.1.113883.4.6",
        "value": "99999999"
      } ],
      "name": [ {
        "family": "Seven",
        "given": [ "Henry" ],
        "suffix": [ "MD" ]
      } ],
      "telecom": [ {
        "system": "phone",
        "value": "555-555-1002",
        "use": "work"
      } ],
      "address": [ {
        "line": [ "1002 Healthcare Drive" ],
        "city": "Portland",
        "state": "OR",
        "postalCode": "99123",
        "country": "US"
      } ]
    }
  }, {
    "resource": {
      "resourceType": "Practitioner",
      "id": "1febcceb-ea66-4fa5-a0ac-3f7f36960c86",
      "identifier": [ {
        "use": "official",
        "system": "http://hl7.org/fhir/sid/us-npi",
        "value": "999999999"
      } ],
      "name": [ {
        "family": "Seven",
        "given": [ "Henry" ]
      } ],
      "telecom": [ {
        "system": "phone",
        "value": "555-555-1002",
        "use": "work"
      } ],
      "address": [ {
        "line": [ "1001 Village Avenue" ],
        "city": "Portland",
        "state": "OR",
        "postalCode": "99123",
        "country": "US"
      } ]
    }
  }, {
    "resource": {
      "resourceType": "Practitioner",
      "id": "1a00a6a9-d7a2-4eeb-b6a4-3ccb3853b4ca",
      "identifier": [ {
        "use": "official",
        "system": "http://hl7.org/fhir/sid/us-npi",
        "value": "PseudoMD-1"
      } ],
      "name": [ {
        "family": "Seven",
        "given": [ "Henry" ],
        "suffix": [ "MD" ]
      } ],
      "telecom": [ {
        "system": "phone",
        "value": "+1-555-555-5000",
        "use": "home"
      } ],
      "address": [ {
        "line": [ "1001 Village Avenue" ],
        "city": "Portland",
        "state": "OR",
        "postalCode": "99123",
        "country": "US"
      } ]
    }
  }, {
    "resource": {
      "resourceType": "Organization",
      "id": "e60944c1-204e-40cc-88ae-5b25fad4de31",
      "identifier": [ {
        "use": "official",
        "system": "urn:oid:2.16.840.1.113883.4.6",
        "value": "99999999"
      } ],
      "name": "Community Health and Hospitals",
      "telecom": [ {
        "system": "phone",
        "value": " 555-555-1002",
        "use": "work"
      } ],
      "address": [ {
        "use": "work",
        "line": [ "1002 Healthcare Drive" ],
        "city": "Portland",
        "state": "OR",
        "postalCode": "99123",
        "country": "US"
      } ]
    }
  }, {
    "resource": {
      "resourceType": "AllergyIntolerance",
      "id": "4f8aa834-c4f9-41f4-afdc-9e1160f69012",
      "identifier": [ {
        "use": "official",
        "value": "36e3e930-7b14-11db-9fe1-0800200c9a66"
      } ],
      "clinicalStatus": {
        "coding": [ {
          "system": "http://terminology.hl7.org/CodeSystem/allergyintolerance-clinical",
          "code": "active",
          "display": "Active"
        } ]
      },
      "verificationStatus": {
        "coding": [ {
          "system": "http://terminology.hl7.org/CodeSystem/allergyintolerance-verification",
          "code": "confirmed",
          "display": "Confirmed"
        } ]
      },
      "type": "allergy",
      "category": [ "medication" ],
      "code": {
        "coding": [ {
          "system": "urn:oid:2.16.840.1.113883.3.26.1.5",
          "code": "N0000011298",
          "display": "Penicillin V"
        } ],
        "text": "Penicillin V + Penicillin V"
      },
      "patient": {
        "reference": "Patient/cb991abd-9ceb-4c93-aa9c-9d1d92074e5a",
        "display": "Pedro Briggs"
      },
      "recordedDate": "2010-04-01T10:00:00+02:00"
    }
  }, {
    "resource": {
      "resourceType": "AllergyIntolerance",
      "id": "c2b6806e-525e-44a8-bd93-00bba11dc70c",
      "identifier": [ {
        "use": "official",
        "value": "36e3e930-7b14-11db-9fe1-0800200c9a66"
      } ],
      "clinicalStatus": {
        "coding": [ {
          "system": "http://terminology.hl7.org/CodeSystem/allergyintolerance-clinical",
          "code": "active",
          "display": "Active"
        } ]
      },
      "verificationStatus": {
        "coding": [ {
          "system": "http://terminology.hl7.org/CodeSystem/allergyintolerance-verification",
          "code": "confirmed",
          "display": "Confirmed"
        } ]
      },
      "type": "allergy",
      "category": [ "food" ],
      "code": {
        "coding": [ {
          "system": "http://fdasis.nlm.nih.gov",
          "code": "291P45F896",
          "display": "Eggs"
        }, {
          "system": "urn:oid:2.16.840.1.113883.6.103",
          "code": "V15.03",
          "display": "Allergy to eggs"
        } ],
        "text": "Allergy to Eggs + Eggs"
      },
      "patient": {
        "reference": "Patient/cb991abd-9ceb-4c93-aa9c-9d1d92074e5a",
        "display": "Pedro Briggs"
      },
      "recordedDate": "2010-04-01T10:00:00+02:00"
    }
  }, {
    "resource": {
      "resourceType": "AllergyIntolerance",
      "id": "776d1252-4cab-43f6-93cc-a09a5afb303a",
      "identifier": [ {
        "use": "official",
        "value": "36e3e930-7b14-11db-9fe1-0800200c9a66"
      } ],
      "clinicalStatus": {
        "coding": [ {
          "system": "http://terminology.hl7.org/CodeSystem/allergyintolerance-clinical",
          "code": "active",
          "display": "Active"
        } ]
      },
      "verificationStatus": {
        "coding": [ {
          "system": "http://terminology.hl7.org/CodeSystem/allergyintolerance-verification",
          "code": "confirmed",
          "display": "Confirmed"
        } ]
      },
      "type": "allergy",
      "category": [ "medication" ],
      "code": {
        "coding": [ {
          "system": "http://www.nlm.nih.gov/research/umls/rxnorm",
          "code": "905148",
          "display": "Amikacin Sulfate 50 MG/ML Injectable Solution"
        } ],
        "text": "Amikacin + Amikacin Sulfate 50 MG/ML Injectable Solution"
      },
      "patient": {
        "reference": "Patient/cb991abd-9ceb-4c93-aa9c-9d1d92074e5a",
        "display": "Pedro Briggs"
      },
      "recordedDate": "2010-04-01T10:00:00+02:00"
    }
  }, {
    "resource": {
      "resourceType": "Condition",
      "id": "6737435a-b1db-4dc7-9f98-21e271ca4a2a",
      "identifier": [ {
        "use": "official",
        "value": "9d3d416d-45ab-4da1-912f-4583e0632000"
      } ],
      "clinicalStatus": {
        "coding": [ {
          "system": "http://terminology.hl7.org/CodeSystem/condition-clinical",
          "code": "active",
          "display": "Active"
        } ]
      },
      "verificationStatus": {
        "coding": [ {
          "system": "http://terminology.hl7.org/CodeSystem/condition-ver-status",
          "code": "confirmed",
          "display": "Confirmed"
        } ]
      },
      "category": [ {
        "coding": [ {
          "system": "http://terminology.hl7.org/CodeSystem/condition-category",
          "code": "problem-list-item",
          "display": "Problem List Item"
        } ]
      } ],
      "code": {
        "coding": [ {
          "system": "http://snomed.info/sct",
          "code": "304914007",
          "display": "Acute Q wave myocardial infarction"
        }, {
          "system": "urn:oid:2.16.840.1.113883.6.90",
          "code": "I21.3",
          "display": "ST elevation (STEMI) myocardial infarction of unspecified site"
        }, {
          "system": "urn:oid:2.16.840.1.113883.6.103",
          "code": "410.90",
          "display": "Acute myocardial infarction of unspecified site, episode of care unspecified"
        } ]
      },
      "subject": {
        "reference": "Patient/cb991abd-9ceb-4c93-aa9c-9d1d92074e5a",
        "display": "Pedro Briggs"
      },
      "onsetDateTime": "2009-08-24T10:00:00+02:00"
    }
  }, {
    "resource": {
      "resourceType": "MedicationStatement",
      "id": "f07019d0-0ee8-4e0c-94e3-ba94f4f2478f",
      "extension": [ {
        "url": "http://hl7.org/fhir/3.0/StructureDefinition/extension-MedicationStatement.status",
        "valueCode": "UNKNOWN"
      } ],
      "identifier": [ {
        "use": "official",
        "value": "cdbd33f0-6cde-11db-9fe1-0800200c9a66"
      } ],
      "status": "completed",
      "medicationReference": {
        "reference": "Medication/1757f1b4-f15c-4828-a2a9-12fbd7684812",
        "display": "Enalapril Maleate 10 MG / Hydrochlorothiazide 25 MG Oral Tablet"
      },
      "subject": {
        "reference": "Patient/cb991abd-9ceb-4c93-aa9c-9d1d92074e5a",
        "display": "Pedro Briggs"
      },
      "effectivePeriod": {
        "start": "2009-08-24T10:00:00+02:00"
      }
    }
  }, {
    "resource": {
      "resourceType": "Medication",
      "id": "1757f1b4-f15c-4828-a2a9-12fbd7684812",
      "code": {
        "coding": [ {
          "system": "http://www.nlm.nih.gov/research/umls/rxnorm",
          "code": "858828",
          "display": "Enalapril Maleate 10 MG / Hydrochlorothiazide 25 MG Oral Tablet"
        } ]
      }
    }
  }, {
    "resource": {
      "resourceType": "MedicationStatement",
      "id": "5809c41a-7df4-4a5c-af23-2c4cd6514ba4",
      "extension": [ {
        "url": "http://hl7.org/fhir/3.0/StructureDefinition/extension-MedicationStatement.status",
        "valueCode": "UNKNOWN"
      } ],
      "identifier": [ {
        "use": "official",
        "value": "cdbd33f0-6cde-11db-9fe1-0800200c9a66"
      } ],
      "status": "completed",
      "medicationReference": {
        "reference": "Medication/9a092f45-8620-4db8-8d9f-b33038d0a479",
        "display": "atorvastatin 10 MG Oral Tablet [Lipitor]"
      },
      "subject": {
        "reference": "Patient/cb991abd-9ceb-4c93-aa9c-9d1d92074e5a",
        "display": "Pedro Briggs"
      },
      "effectivePeriod": {
        "start": "2010-04-13T10:00:00+02:00"
      }
    }
  }, {
    "resource": {
      "resourceType": "Medication",
      "id": "9a092f45-8620-4db8-8d9f-b33038d0a479",
      "code": {
        "coding": [ {
          "system": "http://www.nlm.nih.gov/research/umls/rxnorm",
          "code": "617314",
          "display": "atorvastatin 10 MG Oral Tablet [Lipitor]"
        } ]
      }
    }
  }, {
    "resource": {
      "resourceType": "MedicationStatement",
      "id": "4a49551b-9a79-495f-a04f-d93e841282fb",
      "extension": [ {
        "url": "http://hl7.org/fhir/3.0/StructureDefinition/extension-MedicationStatement.status",
        "valueCode": "UNKNOWN"
      } ],
      "identifier": [ {
        "use": "official",
        "value": "cdbd33f0-6cde-11db-9fe1-0800200c9a66"
      } ],
      "status": "completed",
      "medicationReference": {
        "reference": "Medication/0adf9bf9-d814-490c-8147-57b584316f06",
        "display": "Aspirin 81 MG Oral Tablet"
      },
      "subject": {
        "reference": "Patient/cb991abd-9ceb-4c93-aa9c-9d1d92074e5a",
        "display": "Pedro Briggs"
      },
      "effectivePeriod": {
        "start": "2010-04-13T10:00:00+02:00"
      }
    }
  }, {
    "resource": {
      "resourceType": "Medication",
      "id": "0adf9bf9-d814-490c-8147-57b584316f06",
      "code": {
        "coding": [ {
          "system": "http://www.nlm.nih.gov/research/umls/rxnorm",
          "code": "243670",
          "display": "Aspirin 81 MG Oral Tablet"
        } ]
      }
    }
  }, {
    "resource": {
      "resourceType": "MedicationStatement",
      "id": "fa774762-574b-43ac-ade7-f0d4fa69aa5c",
      "extension": [ {
        "url": "http://hl7.org/fhir/3.0/StructureDefinition/extension-MedicationStatement.status",
        "valueCode": "UNKNOWN"
      } ],
      "identifier": [ {
        "use": "official",
        "value": "cdbd33f0-6cde-11db-9fe1-0800200c9a66"
      } ],
      "status": "completed",
      "medicationReference": {
        "reference": "Medication/ab06708c-9cf1-4038-94e4-c4db9f068ded",
        "display": "Metoprolol Tartrate 25 MG Oral Tablet"
      },
      "subject": {
        "reference": "Patient/cb991abd-9ceb-4c93-aa9c-9d1d92074e5a",
        "display": "Pedro Briggs"
      },
      "effectivePeriod": {
        "start": "2010-04-13T10:00:00+02:00"
      }
    }
  }, {
    "resource": {
      "resourceType": "Medication",
      "id": "ab06708c-9cf1-4038-94e4-c4db9f068ded",
      "code": {
        "coding": [ {
          "system": "http://www.nlm.nih.gov/research/umls/rxnorm",
          "code": "866924",
          "display": "Metoprolol Tartrate 25 MG Oral Tablet"
        } ]
      }
    }
  }, {
    "resource": {
      "resourceType": "MedicationStatement",
      "id": "2df28bc0-bcd6-4ab5-87a6-dc9bc7caceda",
      "extension": [ {
        "url": "http://hl7.org/fhir/3.0/StructureDefinition/extension-MedicationStatement.status",
        "valueCode": "UNKNOWN"
      } ],
      "identifier": [ {
        "use": "official",
        "value": "cdbd33f0-6cde-11db-9fe1-0800200c9a66"
      } ],
      "status": "completed",
      "medicationReference": {
        "reference": "Medication/1757f1b4-f15c-4828-a2a9-12fbd7684812",
        "display": "Enalapril Maleate 10 MG / Hydrochlorothiazide 25 MG Oral Tablet"
      },
      "subject": {
        "reference": "Patient/cb991abd-9ceb-4c93-aa9c-9d1d92074e5a",
        "display": "Pedro Briggs"
      },
      "effectivePeriod": {
        "start": "2010-04-13T10:00:00+02:00"
      }
    }
  }, {
    "resource": {
      "resourceType": "MedicationStatement",
      "id": "75104931-834a-4031-a985-0684dc92fb80",
      "extension": [ {
        "url": "http://hl7.org/fhir/3.0/StructureDefinition/extension-MedicationStatement.status",
        "valueCode": "UNKNOWN"
      } ],
      "identifier": [ {
        "use": "official",
        "value": "cdbd33f0-6cde-11db-9fe1-0800200c9a66"
      } ],
      "status": "completed",
      "medicationReference": {
        "reference": "Medication/ab06708c-9cf1-4038-94e4-c4db9f068ded",
        "display": "Metoprolol Tartrate 25 MG Oral Tablet"
      },
      "subject": {
        "reference": "Patient/cb991abd-9ceb-4c93-aa9c-9d1d92074e5a",
        "display": "Pedro Briggs"
      },
      "effectivePeriod": {
        "start": "2009-08-24T10:00:00+02:00"
      }
    }
  }, {
    "resource": {
      "resourceType": "MedicationStatement",
      "id": "90c7aad3-7473-4edb-8f0b-ff9436981c23",
      "extension": [ {
        "url": "http://hl7.org/fhir/3.0/StructureDefinition/extension-MedicationStatement.status",
        "valueCode": "UNKNOWN"
      } ],
      "identifier": [ {
        "use": "official",
        "value": "cdbd33f0-6cde-11db-9fe1-0800200c9a66"
      } ],
      "status": "completed",
      "medicationReference": {
        "reference": "Medication/0adf9bf9-d814-490c-8147-57b584316f06",
        "display": "Aspirin 81 MG Oral Tablet"
      },
      "subject": {
        "reference": "Patient/cb991abd-9ceb-4c93-aa9c-9d1d92074e5a",
        "display": "Pedro Briggs"
      },
      "effectivePeriod": {
        "start": "2009-08-24T10:00:00+02:00"
      }
    }
  }, {
    "resource": {
      "resourceType": "Encounter",
      "id": "12e13ac0-8b1d-42ee-b195-1a4945218532",
      "identifier": [ {
        "use": "official",
        "value": "2a620155-9d11-439e-92b3-5d9815ff4de8"
      } ],
      "status": "finished",
      "type": [ {
        "coding": [ {
          "system": "http://www.ama-assn.org/go/cpt",
          "code": "99213",
          "display": "Office/outpatient visit, est"
        }, {
          "system": "urn:oid:2.16.840.1.113883.6.103",
          "code": "V70.0",
          "display": "Routine general medical examination at a health care facility"
        } ]
      } ],
      "subject": {
        "reference": "Patient/cb991abd-9ceb-4c93-aa9c-9d1d92074e5a",
        "display": "Pedro Briggs"
      },
      "period": {
        "start": "2010-05-16T10:00:00+02:00"
      }
    }
  }, {
    "resource": {
      "resourceType": "Encounter",
      "id": "e153b79c-8255-4f7c-bf29-fa8fa0d46dda",
      "identifier": [ {
        "use": "official",
        "value": "2a620155-9d11-439e-92b3-5d9815ff4de8"
      } ],
      "status": "finished",
      "type": [ {
        "coding": [ {
          "system": "http://www.ama-assn.org/go/cpt",
          "code": "99213",
          "display": "Office/outpatient visit, est"
        }, {
          "system": "urn:oid:2.16.840.1.113883.6.103",
          "code": "V70.0",
          "display": "Routine general medical examination at a health care facility"
        } ]
      } ],
      "subject": {
        "reference": "Patient/cb991abd-9ceb-4c93-aa9c-9d1d92074e5a",
        "display": "Pedro Briggs"
      },
      "period": {
        "start": "2010-10-04T10:00:00+02:00"
      }
    }
  }, {
    "resource": {
      "resourceType": "Encounter",
      "id": "659565ae-1771-4ac3-a957-3f42fc1984d3",
      "identifier": [ {
        "use": "official",
        "value": "2a620155-9d11-439e-92b3-5d9815ff4de8"
      } ],
      "status": "finished",
      "type": [ {
        "coding": [ {
          "system": "http://www.ama-assn.org/go/cpt",
          "code": "99213",
          "display": "Office/outpatient visit, est"
        }, {
          "system": "urn:oid:2.16.840.1.113883.6.103",
          "code": "V70.0",
          "display": "Routine general medical examination at a health care facility"
        } ]
      } ],
      "subject": {
        "reference": "Patient/cb991abd-9ceb-4c93-aa9c-9d1d92074e5a",
        "display": "Pedro Briggs"
      },
      "period": {
        "start": "2010-04-13T10:00:00+02:00"
      },
      "reasonCode": [ {
        "coding": [ {
          "system": "http://snomed.info/sct",
          "code": "57054005",
          "display": "Coronary Artery Disease includes MI"
        } ]
      } ],
      "reasonReference": [ {
        "reference": "Condition/abbb297e-257c-482a-b57b-17081692796a",
        "display": "Coronary Artery Disease includes MI"
      } ]
    }
  }, {
    "resource": {
      "resourceType": "Condition",
      "id": "abbb297e-257c-482a-b57b-17081692796a",
      "identifier": [ {
        "use": "official",
        "system": "urn:uuid:db734647-fc99-424c-a864-7e3cda82e703",
        "value": "45665"
      } ],
      "clinicalStatus": {
        "coding": [ {
          "system": "http://terminology.hl7.org/CodeSystem/condition-clinical",
          "code": "active",
          "display": "Active"
        } ]
      },
      "category": [ {
        "coding": [ {
          "system": "http://hl7.org/fhir/condition-category",
          "code": "encounter-diagnosis",
          "display": "Encounter Diagnosis"
        } ]
      } ],
      "code": {
        "coding": [ {
          "system": "http://snomed.info/sct",
          "code": "57054005",
          "display": "Coronary Artery Disease includes MI"
        }, {
          "system": "urn:oid:2.16.840.1.113883.6.90",
          "code": "I21.3",
          "display": "ST elevation (STEMI) myocardial infarction of unspecified site"
        }, {
          "system": "urn:oid:2.16.840.1.113883.6.103",
          "code": "410.90",
          "display": "Acute myocardial infarction of unspecified site, episode of care unspecified"
        } ]
      },
      "subject": {
        "reference": "Patient/cb991abd-9ceb-4c93-aa9c-9d1d92074e5a",
        "display": "Pedro Briggs"
      },
      "onsetDateTime": "2010-04-13T10:00:00+02:00"
    }
  }, {
    "resource": {
      "resourceType": "Encounter",
      "id": "1d2e2545-0a94-4ff7-a597-4b7ca95865ae",
      "identifier": [ {
        "use": "official",
        "value": "2a620155-9d11-439e-92b3-5d9815ff4de8"
      } ],
      "status": "finished",
      "type": [ {
        "coding": [ {
          "system": "http://www.ama-assn.org/go/cpt",
          "code": "99238",
          "display": "Hospital discharge day"
        } ]
      } ],
      "subject": {
        "reference": "Patient/cb991abd-9ceb-4c93-aa9c-9d1d92074e5a",
        "display": "Pedro Briggs"
      },
      "period": {
        "start": "2010-04-04T10:00:00+02:00"
      }
    }
  }, {
    "resource": {
      "resourceType": "Encounter",
      "id": "0fee7ac2-e9f1-4191-99e0-3e0ba2f1ed60",
      "identifier": [ {
        "use": "official",
        "value": "2a620155-9d11-439e-92b3-5d9815ff4de8"
      } ],
      "status": "finished",
      "type": [ {
        "coding": [ {
          "system": "http://www.ama-assn.org/go/cpt",
          "code": "99251",
          "display": "Initial inpatient consult"
        } ]
      } ],
      "subject": {
        "reference": "Patient/cb991abd-9ceb-4c93-aa9c-9d1d92074e5a",
        "display": "Pedro Briggs"
      },
      "period": {
        "start": "2010-04-01T10:00:00+02:00"
      }
    }
  }, {
    "resource": {
      "resourceType": "Observation",
      "id": "64165d2a-af3d-4358-a4ce-0f8330a9bf47",
      "identifier": [ {
        "use": "official",
        "value": "c6f88321-67ad-11db-bd13-0800200c9a66"
      } ],
      "status": "final",
      "category": [ {
        "coding": [ {
          "system": "http://terminology.hl7.org/CodeSystem/observation-category",
          "code": "vital-signs",
          "display": "Vital Signs"
        } ]
      } ],
      "code": {
        "coding": [ {
          "system": "http://loinc.org",
          "code": "8480-6",
          "display": "BP Systolic"
        } ]
      },
      "subject": {
        "reference": "Patient/cb991abd-9ceb-4c93-aa9c-9d1d92074e5a",
        "display": "Pedro Briggs"
      },
      "effectivePeriod": {
        "start": "2009-08-28T10:00:00+02:00"
      },
      "valueQuantity": {
        "value": 122,
        "unit": "mm[Hg]",
        "system": "http://unitsofmeasure.org",
        "code": "mm[Hg]"
      }
    }
  }, {
    "resource": {
      "resourceType": "Observation",
      "id": "75e0bf3f-7f19-477c-843a-eb583640902a",
      "identifier": [ {
        "use": "official",
        "value": "c6f88321-67ad-11db-bd13-0800200c9a66"
      } ],
      "status": "final",
      "category": [ {
        "coding": [ {
          "system": "http://terminology.hl7.org/CodeSystem/observation-category",
          "code": "vital-signs",
          "display": "Vital Signs"
        } ]
      } ],
      "code": {
        "coding": [ {
          "system": "http://loinc.org",
          "code": "8462-4",
          "display": "BP Diastolic"
        } ]
      },
      "subject": {
        "reference": "Patient/cb991abd-9ceb-4c93-aa9c-9d1d92074e5a",
        "display": "Pedro Briggs"
      },
      "effectivePeriod": {
        "start": "2009-08-28T10:00:00+02:00"
      },
      "valueQuantity": {
        "value": 70,
        "unit": "mm[Hg]",
        "system": "http://unitsofmeasure.org",
        "code": "mm[Hg]"
      }
    }
  }, {
    "resource": {
      "resourceType": "Observation",
      "id": "300c6e0b-b5ab-41ae-9d29-69c965fdcea5",
      "identifier": [ {
        "use": "official",
        "value": "c6f88321-67ad-11db-bd13-0800200c9a66"
      } ],
      "status": "final",
      "category": [ {
        "coding": [ {
          "system": "http://terminology.hl7.org/CodeSystem/observation-category",
          "code": "vital-signs",
          "display": "Vital Signs"
        } ]
      } ],
      "code": {
        "coding": [ {
          "system": "http://loinc.org",
          "code": "39156-5",
          "display": "BMI"
        } ]
      },
      "subject": {
        "reference": "Patient/cb991abd-9ceb-4c93-aa9c-9d1d92074e5a",
        "display": "Pedro Briggs"
      },
      "effectivePeriod": {
        "start": "2010-05-16T10:00:00+02:00"
      },
      "valueQuantity": {
        "value": 28,
        "unit": "kg/m2",
        "system": "http://unitsofmeasure.org",
        "code": "kg/m2"
      }
    }
  }, {
    "resource": {
      "resourceType": "Observation",
      "id": "43642562-845b-4179-a5f2-cce8a394c660",
      "identifier": [ {
        "use": "official",
        "value": "c6f88321-67ad-11db-bd13-0800200c9a66"
      } ],
      "status": "final",
      "category": [ {
        "coding": [ {
          "system": "http://terminology.hl7.org/CodeSystem/observation-category",
          "code": "vital-signs",
          "display": "Vital Signs"
        } ]
      } ],
      "code": {
        "coding": [ {
          "system": "http://loinc.org",
          "code": "8480-6",
          "display": "BP Systolic"
        } ]
      },
      "subject": {
        "reference": "Patient/cb991abd-9ceb-4c93-aa9c-9d1d92074e5a",
        "display": "Pedro Briggs"
      },
      "effectivePeriod": {
        "start": "2010-05-16T10:00:00+02:00"
      },
      "valueQuantity": {
        "value": 110,
        "unit": "mm[Hg]",
        "system": "http://unitsofmeasure.org",
        "code": "mm[Hg]"
      }
    }
  }, {
    "resource": {
      "resourceType": "Observation",
      "id": "c9dce6ba-e275-49d3-a0da-7a27dd6f4466",
      "identifier": [ {
        "use": "official",
        "value": "c6f88321-67ad-11db-bd13-0800200c9a66"
      } ],
      "status": "final",
      "category": [ {
        "coding": [ {
          "system": "http://terminology.hl7.org/CodeSystem/observation-category",
          "code": "vital-signs",
          "display": "Vital Signs"
        } ]
      } ],
      "code": {
        "coding": [ {
          "system": "http://loinc.org",
          "code": "8462-4",
          "display": "BP Diastolic"
        } ]
      },
      "subject": {
        "reference": "Patient/cb991abd-9ceb-4c93-aa9c-9d1d92074e5a",
        "display": "Pedro Briggs"
      },
      "effectivePeriod": {
        "start": "2010-05-16T10:00:00+02:00"
      },
      "valueQuantity": {
        "value": 65,
        "unit": "mm[Hg]",
        "system": "http://unitsofmeasure.org",
        "code": "mm[Hg]"
      }
    }
  }, {
    "resource": {
      "resourceType": "Observation",
      "id": "9c67f49b-5568-4efd-8bb0-fe1fca87174f",
      "identifier": [ {
        "use": "official",
        "value": "c6f88321-67ad-11db-bd13-0800200c9a66"
      } ],
      "status": "final",
      "category": [ {
        "coding": [ {
          "system": "http://terminology.hl7.org/CodeSystem/observation-category",
          "code": "vital-signs",
          "display": "Vital Signs"
        } ]
      } ],
      "code": {
        "coding": [ {
          "system": "http://loinc.org",
          "code": "39156-5",
          "display": "BMI"
        } ]
      },
      "subject": {
        "reference": "Patient/cb991abd-9ceb-4c93-aa9c-9d1d92074e5a",
        "display": "Pedro Briggs"
      },
      "effectivePeriod": {
        "start": "2010-10-04T10:00:00+02:00"
      },
      "valueQuantity": {
        "value": 27.1,
        "unit": "kg/m2",
        "system": "http://unitsofmeasure.org",
        "code": "kg/m2"
      }
    }
  }, {
    "resource": {
      "resourceType": "Observation",
      "id": "a21960f1-6a90-4706-946c-4cd9fd4e261d",
      "identifier": [ {
        "use": "official",
        "value": "c6f88321-67ad-11db-bd13-0800200c9a66"
      } ],
      "status": "final",
      "category": [ {
        "coding": [ {
          "system": "http://terminology.hl7.org/CodeSystem/observation-category",
          "code": "vital-signs",
          "display": "Vital Signs"
        } ]
      } ],
      "code": {
        "coding": [ {
          "system": "http://loinc.org",
          "code": "8462-4",
          "display": "BP Diastolic"
        } ]
      },
      "subject": {
        "reference": "Patient/cb991abd-9ceb-4c93-aa9c-9d1d92074e5a",
        "display": "Pedro Briggs"
      },
      "effectivePeriod": {
        "start": "2010-04-13T10:00:00+02:00"
      },
      "valueQuantity": {
        "value": 68,
        "unit": "mm[Hg]",
        "system": "http://unitsofmeasure.org",
        "code": "mm[Hg]"
      }
    }
  }, {
    "resource": {
      "resourceType": "Observation",
      "id": "1fc8789a-716e-420f-a403-88eefb52d87e",
      "identifier": [ {
        "use": "official",
        "value": "c6f88321-67ad-11db-bd13-0800200c9a66"
      } ],
      "status": "final",
      "category": [ {
        "coding": [ {
          "system": "http://terminology.hl7.org/CodeSystem/observation-category",
          "code": "vital-signs",
          "display": "Vital Signs"
        } ]
      } ],
      "code": {
        "coding": [ {
          "system": "http://loinc.org",
          "code": "8480-6",
          "display": "BP Systolic"
        } ]
      },
      "subject": {
        "reference": "Patient/cb991abd-9ceb-4c93-aa9c-9d1d92074e5a",
        "display": "Pedro Briggs"
      },
      "effectivePeriod": {
        "start": "2010-04-13T10:00:00+02:00"
      },
      "valueQuantity": {
        "value": 116,
        "unit": "mm[Hg]",
        "system": "http://unitsofmeasure.org",
        "code": "mm[Hg]"
      }
    }
  }, {
    "resource": {
      "resourceType": "Observation",
      "id": "de46bf0d-64c9-42c0-8f7f-60de1000daab",
      "identifier": [ {
        "use": "official",
        "value": "c6f88321-67ad-11db-bd13-0800200c9a66"
      } ],
      "status": "final",
      "category": [ {
        "coding": [ {
          "system": "http://terminology.hl7.org/CodeSystem/observation-category",
          "code": "vital-signs",
          "display": "Vital Signs"
        } ]
      } ],
      "code": {
        "coding": [ {
          "system": "http://loinc.org",
          "code": "39156-5",
          "display": "BMI"
        } ]
      },
      "subject": {
        "reference": "Patient/cb991abd-9ceb-4c93-aa9c-9d1d92074e5a",
        "display": "Pedro Briggs"
      },
      "effectivePeriod": {
        "start": "2010-04-13T10:00:00+02:00"
      },
      "valueQuantity": {
        "value": 28.3,
        "unit": "kg/m2",
        "system": "http://unitsofmeasure.org",
        "code": "kg/m2"
      }
    }
  }, {
    "resource": {
      "resourceType": "DiagnosticReport",
      "id": "42ed83e0-24cf-4828-b8c8-79ce97b284d2",
      "identifier": [ {
        "use": "official",
        "value": "7d5a02b0-67a4-11db-bd13-0800200c9a66"
      } ],
      "status": "final",
      "category": [ {
        "coding": [ {
          "system": "http://terminology.hl7.org/CodeSystem/v2-0074",
          "code": "LAB",
          "display": "Laboratory"
        } ]
      } ],
      "code": {
        "coding": [ {
          "system": "http://snomed.info/sct",
          "code": "16254007",
          "display": "Lipid Panel"
        } ]
      },
      "subject": {
        "reference": "Patient/cb991abd-9ceb-4c93-aa9c-9d1d92074e5a",
        "display": "Pedro Briggs"
      },
      "result": [ {
        "reference": "Observation/fbd39761-0f36-4426-bf61-541d3e7f70fa",
        "display": "Cholest SerPl-mCnc"
      }, {
        "reference": "Observation/82fbf554-8f4c-4e8c-892b-a252cb85d124",
        "display": "LDLc SerPl-mCnc"
      }, {
        "reference": "Observation/d98c098a-4a3a-472e-a684-15bf3ae58480",
        "display": "HDLc SerPl-sCnc"
      }, {
        "reference": "Observation/ff94e347-b8e7-43df-9dda-fbdc716628ba",
        "display": "Trigl SerPl Calc-mCnc"
      } ]
    }
  }, {
    "resource": {
      "resourceType": "Observation",
      "id": "fbd39761-0f36-4426-bf61-541d3e7f70fa",
      "identifier": [ {
        "use": "official",
        "value": "107c2dc0-67a5-11db-bd13-0800200c9a66"
      } ],
      "status": "final",
      "category": [ {
        "coding": [ {
          "system": "http://terminology.hl7.org/CodeSystem/observation-category",
          "code": "laboratory"
        } ]
      } ],
      "code": {
        "coding": [ {
          "system": "http://loinc.org",
          "code": "2093-3",
          "display": "Cholest SerPl-mCnc"
        }, {
          "system": "http://www.ama-assn.org/go/cpt",
          "code": "82465",
          "display": "Assay, bld/serum cholesterol"
        }, {
          "system": "http://snomed.info/sct",
          "code": "121868005",
          "display": "Total cholesterol measurement"
        } ]
      },
      "subject": {
        "reference": "Patient/cb991abd-9ceb-4c93-aa9c-9d1d92074e5a",
        "display": "Pedro Briggs"
      },
      "effectivePeriod": {
        "start": "2009-08-28T10:00:00+02:00"
      },
      "valueQuantity": {
        "value": 196,
        "unit": "mg/dL",
        "system": "http://unitsofmeasure.org",
        "code": "mg/dL"
      },
      "interpretation": [ {
        "coding": [ {
          "system": "http://terminology.hl7.org/CodeSystem/v3-ObservationInterpretation",
          "code": "N"
        } ]
      } ],
      "referenceRange": [ {
        "text": "125-200 mg/dL"
      } ]
    }
  }, {
    "resource": {
      "resourceType": "Observation",
      "id": "82fbf554-8f4c-4e8c-892b-a252cb85d124",
      "identifier": [ {
        "use": "official",
        "value": "107c2dc0-67a5-11db-bd13-0800200c9a66"
      } ],
      "status": "final",
      "category": [ {
        "coding": [ {
          "system": "http://terminology.hl7.org/CodeSystem/observation-category",
          "code": "laboratory"
        } ]
      } ],
      "code": {
        "coding": [ {
          "system": "http://loinc.org",
          "code": "2089-1",
          "display": "LDLc SerPl-mCnc"
        }, {
          "system": "http://www.ama-assn.org/go/cpt",
          "code": "83721",
          "display": "Assay of blood lipoprotein"
        }, {
          "system": "http://snomed.info/sct",
          "code": "113079009",
          "display": "Low density lipoprotein cholesterol measurement"
        } ]
      },
      "subject": {
        "reference": "Patient/cb991abd-9ceb-4c93-aa9c-9d1d92074e5a",
        "display": "Pedro Briggs"
      },
      "effectivePeriod": {
        "start": "2009-08-28T10:00:00+02:00"
      },
      "valueQuantity": {
        "value": 108,
        "unit": "mg/dL",
        "system": "http://unitsofmeasure.org",
        "code": "mg/dL"
      },
      "interpretation": [ {
        "coding": [ {
          "system": "http://terminology.hl7.org/CodeSystem/v3-ObservationInterpretation",
          "code": "N"
        } ]
      } ],
      "referenceRange": [ {
        "text": "<130 mg/dL (calc)"
      } ]
    }
  }, {
    "resource": {
      "resourceType": "Observation",
      "id": "d98c098a-4a3a-472e-a684-15bf3ae58480",
      "identifier": [ {
        "use": "official",
        "value": "107c2dc0-67a5-11db-bd13-0800200c9a66"
      } ],
      "status": "final",
      "category": [ {
        "coding": [ {
          "system": "http://terminology.hl7.org/CodeSystem/observation-category",
          "code": "laboratory"
        } ]
      } ],
      "code": {
        "coding": [ {
          "system": "http://loinc.org",
          "code": "14646-4",
          "display": "HDLc SerPl-sCnc"
        }, {
          "system": "http://www.ama-assn.org/go/cpt",
          "code": "83701",
          "display": "Lipoprotein bld, hr fraction"
        }, {
          "system": "http://snomed.info/sct",
          "code": "28036006",
          "display": "High density lipoprotein cholesterol measurement"
        } ]
      },
      "subject": {
        "reference": "Patient/cb991abd-9ceb-4c93-aa9c-9d1d92074e5a",
        "display": "Pedro Briggs"
      },
      "effectivePeriod": {
        "start": "2009-08-28T10:00:00+02:00"
      },
      "valueQuantity": {
        "value": 54,
        "unit": "mg/dL",
        "system": "http://unitsofmeasure.org",
        "code": "mg/dL"
      },
      "interpretation": [ {
        "coding": [ {
          "system": "http://terminology.hl7.org/CodeSystem/v3-ObservationInterpretation",
          "code": "N"
        } ]
      } ],
      "referenceRange": [ {
        "text": ">=40 mg/dL"
      } ]
    }
  }, {
    "resource": {
      "resourceType": "Observation",
      "id": "ff94e347-b8e7-43df-9dda-fbdc716628ba",
      "identifier": [ {
        "use": "official",
        "value": "107c2dc0-67a5-11db-bd13-0800200c9a66"
      } ],
      "status": "final",
      "category": [ {
        "coding": [ {
          "system": "http://terminology.hl7.org/CodeSystem/observation-category",
          "code": "laboratory"
        } ]
      } ],
      "code": {
        "coding": [ {
          "system": "http://loinc.org",
          "code": "12951-0",
          "display": "Trigl SerPl Calc-mCnc"
        }, {
          "system": "http://www.ama-assn.org/go/cpt",
          "code": "84478",
          "display": "Assay of triglycerides"
        }, {
          "system": "http://snomed.info/sct",
          "code": "14740000",
          "display": "Triglycerides measurement"
        } ]
      },
      "subject": {
        "reference": "Patient/cb991abd-9ceb-4c93-aa9c-9d1d92074e5a",
        "display": "Pedro Briggs"
      },
      "effectivePeriod": {
        "start": "2009-08-28T10:00:00+02:00"
      },
      "valueQuantity": {
        "value": 170,
        "unit": "mg/dL",
        "system": "http://unitsofmeasure.org",
        "code": "mg/dL"
      },
      "interpretation": [ {
        "coding": [ {
          "system": "http://terminology.hl7.org/CodeSystem/v3-ObservationInterpretation",
          "code": "N"
        } ]
      } ],
      "referenceRange": [ {
        "text": "10-39 years: 55-110 mg/dL | 40-59 years: 70-150 mg/dL | >60 years: 80-150 mg/dL | Therapeutic Target: <100 mg/dL "
      } ]
    }
  }, {
    "resource": {
      "resourceType": "DiagnosticReport",
      "id": "e26a615a-0090-4ad2-91d2-e50bd3cec36c",
      "identifier": [ {
        "use": "official",
        "value": "7d5a02b0-67a4-11db-bd13-0800200c9a66"
      } ],
      "status": "final",
      "category": [ {
        "coding": [ {
          "system": "http://terminology.hl7.org/CodeSystem/v2-0074",
          "code": "LAB",
          "display": "Laboratory"
        } ]
      } ],
      "code": {
        "coding": [ {
          "system": "http://snomed.info/sct",
          "code": "16254007",
          "display": "Lipid Panel"
        } ]
      },
      "subject": {
        "reference": "Patient/cb991abd-9ceb-4c93-aa9c-9d1d92074e5a",
        "display": "Pedro Briggs"
      },
      "result": [ {
        "reference": "Observation/b39d45c1-7777-4dd9-b90c-73e91cb5914e",
        "display": "HDLc SerPl-sCnc"
      }, {
        "reference": "Observation/1f3cf141-7a6d-4036-8889-bf7b82722cab",
        "display": "Trigl SerPl Calc-mCnc"
      }, {
        "reference": "Observation/5fd92576-c4b3-4f3e-80ac-6c44a74dfb32",
        "display": "Cholest SerPl-mCnc"
      }, {
        "reference": "Observation/f9a96ea1-e7ce-4fb2-a386-e50f31e67d2b",
        "display": "LDLc SerPl-mCnc"
      } ]
    }
  }, {
    "resource": {
      "resourceType": "Observation",
      "id": "b39d45c1-7777-4dd9-b90c-73e91cb5914e",
      "identifier": [ {
        "use": "official",
        "value": "107c2dc0-67a5-11db-bd13-0800200c9a66"
      } ],
      "status": "final",
      "category": [ {
        "coding": [ {
          "system": "http://terminology.hl7.org/CodeSystem/observation-category",
          "code": "laboratory"
        } ]
      } ],
      "code": {
        "coding": [ {
          "system": "http://loinc.org",
          "code": "14646-4",
          "display": "HDLc SerPl-sCnc"
        }, {
          "system": "http://www.ama-assn.org/go/cpt",
          "code": "83701",
          "display": "Lipoprotein bld, hr fraction"
        }, {
          "system": "http://snomed.info/sct",
          "code": "28036006",
          "display": "High density lipoprotein cholesterol measurement"
        } ]
      },
      "subject": {
        "reference": "Patient/cb991abd-9ceb-4c93-aa9c-9d1d92074e5a",
        "display": "Pedro Briggs"
      },
      "effectivePeriod": {
        "start": "2010-04-13T10:00:00+02:00"
      },
      "valueQuantity": {
        "value": 50,
        "unit": "mg/dL",
        "system": "http://unitsofmeasure.org",
        "code": "mg/dL"
      },
      "interpretation": [ {
        "coding": [ {
          "system": "http://terminology.hl7.org/CodeSystem/v3-ObservationInterpretation",
          "code": "N"
        } ]
      } ],
      "referenceRange": [ {
        "text": ">=40 mg/dL"
      } ]
    }
  }, {
    "resource": {
      "resourceType": "Observation",
      "id": "1f3cf141-7a6d-4036-8889-bf7b82722cab",
      "identifier": [ {
        "use": "official",
        "value": "107c2dc0-67a5-11db-bd13-0800200c9a66"
      } ],
      "status": "final",
      "category": [ {
        "coding": [ {
          "system": "http://terminology.hl7.org/CodeSystem/observation-category",
          "code": "laboratory"
        } ]
      } ],
      "code": {
        "coding": [ {
          "system": "http://loinc.org",
          "code": "12951-0",
          "display": "Trigl SerPl Calc-mCnc"
        }, {
          "system": "http://www.ama-assn.org/go/cpt",
          "code": "84478",
          "display": "Assay of triglycerides"
        }, {
          "system": "http://snomed.info/sct",
          "code": "14740000",
          "display": "Triglycerides measurement"
        } ]
      },
      "subject": {
        "reference": "Patient/cb991abd-9ceb-4c93-aa9c-9d1d92074e5a",
        "display": "Pedro Briggs"
      },
      "effectivePeriod": {
        "start": "2010-04-13T10:00:00+02:00"
      },
      "valueQuantity": {
        "value": 157,
        "unit": "mg/dL",
        "system": "http://unitsofmeasure.org",
        "code": "mg/dL"
      },
      "interpretation": [ {
        "coding": [ {
          "system": "http://terminology.hl7.org/CodeSystem/v3-ObservationInterpretation",
          "code": "N"
        } ]
      } ],
      "referenceRange": [ {
        "text": "10-39 years: 55-110 mg/dL | 40-59 years: 70-150 mg/dL | >60 years: 80-150 mg/dL | Therapeutic Target: <100 mg/dL "
      } ]
    }
  }, {
    "resource": {
      "resourceType": "Observation",
      "id": "5fd92576-c4b3-4f3e-80ac-6c44a74dfb32",
      "identifier": [ {
        "use": "official",
        "value": "107c2dc0-67a5-11db-bd13-0800200c9a66"
      } ],
      "status": "final",
      "category": [ {
        "coding": [ {
          "system": "http://terminology.hl7.org/CodeSystem/observation-category",
          "code": "laboratory"
        } ]
      } ],
      "code": {
        "coding": [ {
          "system": "http://loinc.org",
          "code": "2093-3",
          "display": "Cholest SerPl-mCnc"
        }, {
          "system": "http://www.ama-assn.org/go/cpt",
          "code": "82465",
          "display": "Assay, bld/serum cholesterol"
        }, {
          "system": "http://snomed.info/sct",
          "code": "121868005",
          "display": "Total cholesterol measurement"
        } ]
      },
      "subject": {
        "reference": "Patient/cb991abd-9ceb-4c93-aa9c-9d1d92074e5a",
        "display": "Pedro Briggs"
      },
      "effectivePeriod": {
        "start": "2010-04-13T10:00:00+02:00"
      },
      "valueQuantity": {
        "value": 170,
        "unit": "mg/dL",
        "system": "http://unitsofmeasure.org",
        "code": "mg/dL"
      },
      "interpretation": [ {
        "coding": [ {
          "system": "http://terminology.hl7.org/CodeSystem/v3-ObservationInterpretation",
          "code": "N"
        } ]
      } ],
      "referenceRange": [ {
        "text": "125-200 mg/dL"
      } ]
    }
  }, {
    "resource": {
      "resourceType": "Observation",
      "id": "f9a96ea1-e7ce-4fb2-a386-e50f31e67d2b",
      "identifier": [ {
        "use": "official",
        "value": "107c2dc0-67a5-11db-bd13-0800200c9a66"
      } ],
      "status": "final",
      "category": [ {
        "coding": [ {
          "system": "http://terminology.hl7.org/CodeSystem/observation-category",
          "code": "laboratory"
        } ]
      } ],
      "code": {
        "coding": [ {
          "system": "http://loinc.org",
          "code": "2089-1",
          "display": "LDLc SerPl-mCnc"
        }, {
          "system": "http://www.ama-assn.org/go/cpt",
          "code": "83721",
          "display": "Assay of blood lipoprotein"
        }, {
          "system": "http://snomed.info/sct",
          "code": "113079009",
          "display": "Low density lipoprotein cholesterol measurement"
        } ]
      },
      "subject": {
        "reference": "Patient/cb991abd-9ceb-4c93-aa9c-9d1d92074e5a",
        "display": "Pedro Briggs"
      },
      "effectivePeriod": {
        "start": "2010-04-13T10:00:00+02:00"
      },
      "valueQuantity": {
        "value": 87,
        "unit": "mg/dL",
        "system": "http://unitsofmeasure.org",
        "code": "mg/dL"
      },
      "interpretation": [ {
        "coding": [ {
          "system": "http://terminology.hl7.org/CodeSystem/v3-ObservationInterpretation",
          "code": "N"
        } ]
      } ],
      "referenceRange": [ {
        "text": "<130 mg/dL (calc)"
      } ]
    }
  }, {
    "resource": {
      "resourceType": "Observation",
      "id": "951ebdd8-b28d-48ed-a1bf-e3578ad810bd",
      "identifier": [ {
        "use": "official",
        "system": "urn:oid:2.16.840.1.113883.19",
        "value": "123456789"
      } ],
      "status": "final",
      "code": {
        "coding": [ {
          "system": "urn:oid:2.16.840.1.113883.5.4",
          "code": "ASSERTION"
        } ]
      },
      "subject": {
        "reference": "Patient/cb991abd-9ceb-4c93-aa9c-9d1d92074e5a",
        "display": "Pedro Briggs"
      },
      "effectivePeriod": {
        "start": "2010-04-01T10:00:00+02:00"
      },
      "valueCodeableConcept": {
        "coding": [ {
          "system": "http://snomed.info/sct",
          "code": "266919005",
          "display": "Never smoker (Never Smoked)"
        }, {
          "system": "http://snomed.info/sct",
          "code": "449868002",
          "display": "Current every day smoker"
        } ]
      }
    }
  }, {
    "resource": {
      "resourceType": "Procedure",
      "id": "56eae1f2-54ba-44ee-bcea-9a2990693819",
      "identifier": [ {
        "use": "official",
        "value": "e401f340-7be2-11db-9fe1-0800200c9a66"
      } ],
      "status": "completed",
      "code": {
        "coding": [ {
          "system": "http://www.ama-assn.org/go/cpt",
          "code": "33535",
          "display": "CABG, arterial, three"
        }, {
          "system": "http://snomed.info/sct",
          "code": "10326007",
          "display": "Coronary artery bypass with autogenous graft, three grafts"
        } ]
      },
      "subject": {
        "reference": "Patient/cb991abd-9ceb-4c93-aa9c-9d1d92074e5a",
        "display": "Pedro Briggs"
      },
      "performedPeriod": {
        "start": "2009-08-24T10:00:00+02:00"
      }
    }
  } ]
}