{
  "resourceType": "Bundle",
  "entry": [ {
    "resource": {
      "resourceType": "Composition",
      "id": "4e309f3e-3618-453e-b503-569d298266f9",
      "identifier": {
        "use": "official",
        "value": "db734647-fc99-424c-a864-7e3cda82e703"
      },
      "status": "preliminary",
      "type": {
        "coding": [ {
          "system": "http://loinc.org",
          "code": "34133-9",
          "display": "Summarization of Episode Note"
        } ]
      },
      "category": [ {
        "coding": [ {
          "system": "http://hl7.org/fhir/ValueSet/doc-classcodes",
          "code": "LP173421-7",
          "display": "Note"
        } ]
      } ],
      "subject": {
        "reference": "Patient/25f88128-2799-4884-aceb-1394cf91e8fe",
        "display": "Cory Jacobs"
      },
      "date": "2014-04-16T11:55:28+02:00",
      "author": [ {
        "reference": "Practitioner/c3cb8d80-9751-420d-befc-d88e0f73f610",
        "display": "Henry Seven MD"
      } ],
      "title": "Community Health and Hospitals: Health Summary",
      "confidentiality": "N",
      "attester": [ {
        "mode": "legal",
        "time": "2013-04-18T09:00:00+05:00",
        "party": {
          "reference": "Practitioner/4554566e-0f1f-4730-b291-38f4c720edbc",
          "display": "Henry Seven"
        }
      }, {
        "mode": "professional",
        "time": "2014-04-16T11:55:28+02:00",
        "party": {
          "reference": "Practitioner/4554566e-0f1f-4730-b291-38f4c720edbc",
          "display": "Henry Seven"
        }
      } ],
      "custodian": {
        "reference": "Organization/65eaa017-6fb3-4a60-b6ae-4cd1cc7016d2",
        "display": "Community Health and Hospitals"
      },
      "event": [ {
        "period": {
          "start": "2010-05-30T10:00:00+02:00",
          "end": "2010-12-01T10:00:00+01:00"
        },
        "detail": [ {
          "reference": "Practitioner/cae7effc-6b01-46d4-b82d-ca3423fe8f2b",
          "display": "Henry Seven MD"
        } ]
      } ],
      "section": [ {
        "title": "Allergies,  Adverse Reactions & Alerts",
        "code": {
          "coding": [ {
            "system": "http://loinc.org",
            "code": "48765-2",
            "display": "Allergies, adverse reactions, alerts"
          } ]
        },
        "text": {
          "status": "additional",
          "div": "<div xmlns=\"http://www.w3.org/1999/xhtml\"><table><thead><tr><th>Group Description</th><th>Code System</th><th>Code</th><th>Code Description</th><th>Severity</th><th>Susceptibility</th><th>Date and Time</th><th>Status</th></tr></thead><tbody><tr><td>Allergy to Eggs</td><td>UNII</td><td>291P45F896</td><td><span/>Eggs</td><td><span/>Severe</td><td>Susceptible</td><td>05-30-2010 10:00:00</td><td>Active</td></tr><tr><td/><td>ICD-9-CM</td><td>V15.03</td><td>Allergy to eggs</td><td/><td/><td/><td/></tr><tr><td>Neomycin</td><td>RxNorm</td><td>866041</td><td><span/>Neomycin Sulfate 500 MG</td><td><span/>Moderate</td><td>Very susceptible</td><td>05-30-2010 10:00:00</td><td>Active</td></tr><tr><td>Tetracyclines</td><td>RxNorm</td><td>406524</td><td><span/>Doxycycline 75 MG Enteric Coated Tablet</td><td><span/>Mild to moderate</td><td>Susceptible</td><td>05-30-2010 10:00:00</td><td>Active</td></tr><tr><td/><td>NDF-RT</td><td>N0000006275</td><td>Tetracycline</td><td/><td/><td/><td/></tr></tbody></table></div>"
        },
        "mode": "snapshot",
        "entry": [ {
          "reference": "AllergyIntolerance/d844e4f7-d1b1-4857-96fb-f0873b7bb178",
          "display": "Allergy to Eggs + Eggs"
        }, {
          "reference": "AllergyIntolerance/d1bd50e0-c3fc-446a-b585-ff2035f48a8a",
          "display": "Tetracyclines + Doxycycline 75 MG Enteric Coated Tablet"
        }, {
          "reference": "AllergyIntolerance/80160909-ddf0-427f-9e65-f2182e322b27",
          "display": "Neomycin + Neomycin Sulfate 500 MG"
        } ]
      }, {
        "title": "Vital Signs",
        "code": {
          "coding": [ {
            "system": "http://loinc.org",
            "code": "8716-3",
            "display": "Vital Signs"
          } ]
        },
        "text": {
          "status": "additional",
          "div": "<div xmlns=\"http://www.w3.org/1999/xhtml\"><table><thead><tr><th>Group Description</th><th>Code System</th><th>Code</th><th>Code Description</th><th>Value</th><th>Unit</th><th>Date and Time</th><th>Status</th></tr></thead><tbody><tr><td>BMI</td><td>LOINC</td><td>39156-5</td><td><span/>BMI</td><td>18.3</td><td>kg/m2</td><td>05-30-2010 10:00:00</td><td>Finding</td></tr><tr><td>Diastolic Blood Pressure</td><td>LOINC</td><td>8462-4</td><td><span/>BP Diastolic</td><td>78</td><td>mm[Hg]</td><td>05-30-2010 10:00:00</td><td>Finding</td></tr><tr><td>Heart Rate</td><td>LOINC</td><td>8867-4</td><td><span/>Heart Rate</td><td>82</td><td>/min</td><td>05-30-2010 10:00:00</td><td>Finding</td></tr><tr><td>Systolic Blood Pressure</td><td>LOINC</td><td>8480-6</td><td><span/>BP Systolic</td><td>128</td><td>mm[Hg]</td><td>05-30-2010 10:00:00</td><td>Finding</td></tr><tr><td>BMI</td><td>LOINC</td><td>39156-5</td><td><span/>BMI</td><td>18.8</td><td>kg/m2</td><td>09-02-2010 10:00:00</td><td>Finding</td></tr><tr><td>Diastolic Blood Pressure</td><td>LOINC</td><td>8462-4</td><td><span/>BP Diastolic</td><td>86</td><td>mm[Hg]</td><td>09-02-2010 10:00:00</td><td>Finding</td></tr><tr><td>Heart Rate</td><td>LOINC</td><td>8867-4</td><td><span/>Heart Rate</td><td>82</td><td>/min</td><td>09-02-2010 10:00:00</td><td>Finding</td></tr><tr><td>Systolic Blood Pressure</td><td>LOINC</td><td>8480-6</td><td><span/>BP Systolic</td><td>130</td><td>mm[Hg]</td><td>09-02-2010 10:00:00</td><td>Finding</td></tr><tr><td>BMI</td><td>LOINC</td><td>39156-5</td><td><span/>BMI</td><td>19.6</td><td>kg/m2</td><td>12-01-2010 10:00:00</td><td>Finding</td></tr><tr><td>Diastolic Blood Pressure</td><td>LOINC</td><td>8462-4</td><td><span/>BP Diastolic</td><td>76</td><td>mm[Hg]</td><td>12-01-2010 10:00:00</td><td>Finding</td></tr><tr><td>Heart Rate</td><td>LOINC</td><td>8867-4</td><td><span/>Heart Rate</td><td>84</td><td>/min</td><td>12-01-2010 10:00:00</td><td>Finding</td></tr><tr><td>Systolic Blood Pressure</td><td>LOINC</td><td>8480-6</td><td><span/>BP Systolic</td><td>126</td><td>mm[Hg]</td><td>12-01-2010 10:00:00</td><td>Finding</td></tr></tbody></table></div>"
        },
        "mode": "snapshot",
        "entry": [ {
          "reference": "Observation/e5baba91-5296-4f9f-b2db-978bbe80e65e",
          "display": "BP Diastolic"
        }, {
          "reference": "Observation/9c094086-a911-4241-8943-96c41f6b3b6d",
          "display": "Heart Rate"
        }, {
          "reference": "Observation/a345ac6f-5d58-46da-af01-2b18cfeee131",
          "display": "BP Systolic"
        }, {
          "reference": "Observation/2b86e66a-383e-4008-8f9a-140f0da43100",
          "display": "BMI"
        }, {
          "reference": "Observation/1efb0bc2-e01e-4386-a99c-0dc12c4167bf",
          "display": "BMI"
        }, {
          "reference": "Observation/3e403e2f-5a1f-4775-a98f-7bb4a49c8ce5",
          "display": "BP Systolic"
        }, {
          "reference": "Observation/282d803e-6153-476b-b381-dbcc0d4f4315",
          "display": "Heart Rate"
        }, {
          "reference": "Observation/4670fb92-c8e1-4940-be05-cf78d085c9a0",
          "display": "BP Diastolic"
        }, {
          "reference": "Observation/326445fc-4d3e-4c3a-98a0-c84eba8ee742",
          "display": "Heart Rate"
        }, {
          "reference": "Observation/d3e4d5af-3222-470e-9542-80aee5b613e2",
          "display": "BP Systolic"
        }, {
          "reference": "Observation/1be17420-0fd1-4f1e-90f7-37894543917a",
          "display": "BP Diastolic"
        }, {
          "reference": "Observation/f287e1f1-4138-440a-b9e8-a0178610a0d7",
          "display": "BMI"
        } ]
      }, {
        "title": "Problems",
        "code": {
          "coding": [ {
            "system": "http://loinc.org",
            "code": "11450-4",
            "display": "PROBLEM LIST"
          } ]
        },
        "text": {
          "status": "additional",
          "div": "<div xmlns=\"http://www.w3.org/1999/xhtml\"><table><thead><tr><th>Group Description</th><th>Code System</th><th>Code</th><th>Code Description</th><th>Date and Time</th><th>Status</th></tr></thead><tbody><tr><td>Hypertension</td><td>SNOMED-CT</td><td>59621000</td><td><span/>Essential hypertension</td><td>05-30-2010 10:00:00</td><td>Active</td></tr><tr><td/><td>ICD-10-CM</td><td>I10</td><td>Essential (primary) hypertension</td><td/><td/></tr><tr><td/><td>ICD-9-CM</td><td>401.9</td><td>Unspecified essential hypertension</td><td/><td/></tr><tr><td>Major Depression</td><td>SNOMED-CT</td><td>268621008</td><td><span/>Recurrent major depressive episodes</td><td>06-01-2010 10:00:00</td><td>Active</td></tr><tr><td/><td>ICD-10-CM</td><td>F33.9</td><td>Major depressive disorder, recurrent, unspecified</td><td/><td/></tr><tr><td/><td>ICD-9-CM</td><td>296.30</td><td>Major depressive affective disorder, recurrent episode, unspecified</td><td/><td/></tr></tbody></table></div>"
        },
        "mode": "snapshot",
        "entry": [ {
          "reference": "Condition/6e879de5-f7f3-480f-9f84-76aed6c4f327",
          "display": "Essential hypertension"
        } ]
      }, {
        "title": "Results",
        "code": {
          "coding": [ {
            "system": "http://loinc.org",
            "code": "30954-2",
            "display": "Results"
          } ]
        },
        "text": {
          "status": "additional",
          "div": "<div xmlns=\"http://www.w3.org/1999/xhtml\"><table><thead><tr><th>Group Description</th><th>Code System</th><th>Code</th><th>Code Description</th><th>Value</th><th>Unit</th><th>Date and Time</th><th>Status</th></tr></thead><tbody><tr><td>No data</td></tr></tbody></table></div>"
        },
        "mode": "snapshot"
      }, {
        "title": "Medications",
        "code": {
          "coding": [ {
            "system": "http://loinc.org",
            "code": "10160-0",
            "display": "History of Medication Use"
          } ]
        },
        "text": {
          "status": "additional",
          "div": "<div xmlns=\"http://www.w3.org/1999/xhtml\"><table><thead><tr><th>Group Description</th><th>Code System</th><th>Code</th><th>Code Description</th><th>Date and Time</th><th>Status</th></tr></thead><tbody><tr><td>Antihypertensive combinations</td><td>RxNorm</td><td>858828</td><td><span/>Enalapril Maleate 10 MG / Hydrochlorothiazide 25 MG Oral Tablet</td><td>05-30-2010 10:00:00</td><td>Active</td></tr><tr><td>Tetracyclic antidepressants</td><td>RxNorm</td><td>311725</td><td><span/>Mirtazapine 15 MG Oral Tablet</td><td>06-01-2010 10:00:00</td><td>Active</td></tr><tr><td>Tetracyclic antidepressants</td><td>RxNorm</td><td>311725</td><td><span/>Mirtazapine 15 MG Oral Tablet</td><td>06-15-2010 10:00:00</td><td>Active</td></tr><tr><td>Tetracyclic antidepressants</td><td>RxNorm</td><td>311725</td><td><span/>Mirtazapine 15 MG Oral Tablet</td><td>10-01-2010 10:00:00</td><td>Active</td></tr></tbody></table></div>"
        },
        "mode": "snapshot",
        "entry": [ {
          "reference": "MedicationStatement/d36fbb10-6722-496c-ba77-78bae1c93ca9",
          "display": "Mirtazapine 15 MG Oral Tablet"
        }, {
          "reference": "MedicationStatement/1256ae0d-ac5e-4f44-8fd2-e47e83c657d8",
          "display": "Enalapril Maleate 10 MG / Hydrochlorothiazide 25 MG Oral Tablet"
        }, {
          "reference": "MedicationStatement/ec29b652-759d-41a9-b2f8-c8c1bcf3f9be",
          "display": "Mirtazapine 15 MG Oral Tablet"
        }, {
          "reference": "MedicationStatement/73ee3f88-f8ab-4ac7-9d32-9354289f21c7",
          "display": "Mirtazapine 15 MG Oral Tablet"
        } ]
      }, {
        "title": "Social History",
        "code": {
          "coding": [ {
            "system": "http://loinc.org",
            "code": "29762-2",
            "display": "Social History"
          } ]
        },
        "text": {
          "status": "additional",
          "div": "<div xmlns=\"http://www.w3.org/1999/xhtml\"><table><thead><tr><th>Group Description</th><th>Code System</th><th>Code</th><th>Code Description</th><th>Date and Time</th><th>Status</th></tr></thead><tbody><tr><td>No data</td></tr></tbody></table></div>"
        },
        "mode": "snapshot"
      }, {
        "title": "Procedures",
        "code": {
          "coding": [ {
            "system": "http://loinc.org",
            "code": "47519-4",
            "display": "HISTORY OF PROCEDURES"
          } ]
        },
        "text": {
          "status": "additional",
          "div": "<div xmlns=\"http://www.w3.org/1999/xhtml\"><table><thead><tr><th>Group Description</th><th>Code System</th><th>Code</th><th>Code Description</th><th>Date and Time</th><th>Status</th></tr></thead><tbody><tr><td>dietary consultation order</td><td>SNOMED-CT</td><td>103699006</td><td><span/>Patient referral to dietitian</td><td>06-30-2010 10:00:00</td><td>Performed</td></tr><tr><td>Colonoscopy</td><td>CPT</td><td>45378</td><td><span/>Diagnostic colonoscopy</td><td>11-16-2010 10:00:00</td><td>Performed</td></tr><tr><td/><td>HCPCS</td><td>G0121</td><td>Colon ca scrn not hi rsk ind</td><td/><td/></tr><tr><td/><td>ICD-10-CM</td><td>Z12.11</td><td>Encounter for screening for malignant neoplasm of colon</td><td/><td/></tr><tr><td/><td>ICD-9-CM</td><td>45.23</td><td>Colonoscopy</td><td/><td/></tr><tr><td/><td>SNOMED-CT</td><td>174184006</td><td>Diagnostic endoscopic examination on colon</td><td/><td/></tr></tbody></table></div>"
        },
        "mode": "snapshot"
      }, {
        "title": "Encounters",
        "code": {
          "coding": [ {
            "system": "http://loinc.org",
            "code": "46240-8",
            "display": "History of encounters"
          } ]
        },
        "text": {
          "status": "additional",
          "div": "<div xmlns=\"http://www.w3.org/1999/xhtml\"><table><thead><tr><th>Group Description</th><th>Code System</th><th>Code</th><th>Code Description</th><th>Date and Time</th><th>Status</th></tr></thead><tbody><tr><td>Encounter ED</td><td>CPT</td><td>99281</td><td><span/>Emergency dept visit</td><td>05-30-2010 10:00:00</td><td>Performed</td></tr><tr><td>Encounter Outpatient BH</td><td>CPT</td><td>99241</td><td><span/>Office consultation</td><td>06-01-2010 10:00:00</td><td>Performed</td></tr><tr><td>Encounter Outpatient</td><td>CPT</td><td>99213</td><td><span/>Office/outpatient visit, est</td><td>09-02-2010 10:00:00</td><td>Performed</td></tr><tr><td/><td>ICD-9-CM</td><td>V70.0</td><td>Routine general medical examination at a health care facility</td><td/><td/></tr><tr><td>Encounter Outpatient</td><td>CPT</td><td>99213</td><td><span/>Office/outpatient visit, est</td><td>12-01-2010 10:00:00</td><td>Performed</td></tr><tr><td/><td>ICD-9-CM</td><td>V70.0</td><td>Routine general medical examination at a health care facility</td><td/><td/></tr></tbody></table></div>"
        },
        "mode": "snapshot",
        "entry": [ {
          "reference": "Encounter/5085d208-a575-4508-9376-b607c3ac6100",
          "display": "Office consultation"
        }, {
          "reference": "Encounter/89fbab9a-840c-4e2c-bc21-947a3ce4ca40",
          "display": "Office/outpatient visit, est"
        }, {
          "reference": "Encounter/0c626b52-3140-4d17-9371-722449447ac1",
          "display": "Office/outpatient visit, est"
        }, {
          "reference": "Encounter/2a9f04e8-9e91-42bf-b4fa-73a02fbd97fc",
          "display": "Emergency dept visit"
        } ]
      } ]
    }
  }, {
    "resource": {
      "resourceType": "Patient",
      "id": "25f88128-2799-4884-aceb-1394cf91e8fe",
      "extension": [ {
        "url": "http://hl7.org/fhir/StructureDefinition/patient-religion",
        "valueCodeableConcept": {
          "coding": [ {
            "system": "urn:oid:2.16.840.1.113883.5.1076",
            "code": "1059",
            "display": "Zen Buddhism"
          } ]
        }
      }, {
        "url": "http://hl7.org/fhir/us/core/StructureDefinition/us-core-race",
        "extension": [ {
          "url": "text",
          "valueString": "White"
        }, {
          "url": "ombCategory",
          "valueCoding": {
            "system": "urn:oid:2.16.840.1.113883.6.238",
            "code": "2106-3",
            "display": "White"
          }
        } ]
      }, {
        "url": "http://hl7.org/fhir/us/core/StructureDefinition/us-core-ethnicity",
        "extension": [ {
          "url": "text",
          "valueString": "Not Hispanic or Latino"
        }, {
          "url": "ombCategory",
          "valueCoding": {
            "system": "urn:oid:2.16.840.1.113883.6.238",
            "code": "2186-5",
            "display": "Not Hispanic or Latino"
          }
        } ]
      }, {
        "url": "http://hl7.org/fhir/StructureDefinition/patient-birthPlace",
        "valueAddress": {
          "city": "West Valley City",
          "state": "UT",
          "postalCode": "84119",
          "country": "US"
        }
      } ],
      "identifier": [ {
        "use": "official",
        "system": "urn:oid:2.16.840.1.113883.19.5.99999.2",
        "value": "998991"
      }, {
        "use": "official",
        "system": "urn:oid:2.16.840.1.113883.4.1",
        "value": "111-00-2330"
      } ],
      "name": [ {
        "use": "usual",
        "family": "Jacobs",
        "given": [ "Cory" ]
      } ],
      "telecom": [ {
        "system": "phone",
        "value": "(919)628-9354",
        "use": "mobile"
      } ],
      "gender": "male",
      "birthDate": "1955-02-12",
      "address": [ {
        "use": "home",
        "line": [ "2441 Nancy Street" ],
        "city": "Fayetteville",
        "state": "NC",
        "postalCode": "28301",
        "country": "US"
      } ],
      "maritalStatus": {
        "coding": [ {
          "system": "http://terminology.hl7.org/CodeSystem/v3-MaritalStatus",
          "code": "M",
          "display": "Married"
        } ]
      },
      "contact": [ {
        "relationship": [ {
          "coding": [ {
            "system": "http://terminology.hl7.org/CodeSystem/v2-0131",
            "code": "C",
            "display": "Emergency Contact"
          } ]
        } ],
        "name": {
          "family": "Applegate",
          "given": [ "Mark" ],
          "prefix": [ "Dr." ]
        },
        "telecom": [ {
          "system": "phone",
          "value": "(703)254-7430",
          "use": "home"
        }, {
          "system": "email",
          "value": "MarkJApplegate@einrot.com",
          "use": "work"
        } ],
        "address": {
          "use": "home",
          "line": [ "1534 Lawman Avenue" ],
          "city": "Washington",
          "state": "VA",
          "postalCode": "20011",
          "country": "US"
        }
      } ],
      "communication": [ {
        "language": {
          "coding": [ {
            "system": "urn:ietf:bcp:47",
            "code": "spa"
          } ]
        },
        "preferred": true
      } ],
      "managingOrganization": {
        "reference": "Organization/af59644e-e062-4bfb-8124-78e9ac7d9d3b",
        "display": "Community Health and Hospitals"
      }
    }
  }, {
    "resource": {
      "resourceType": "Organization",
      "id": "af59644e-e062-4bfb-8124-78e9ac7d9d3b",
      "identifier": [ {
        "use": "official",
        "value": "2.16.840.1.113883.4.6"
      } ],
      "name": "Community Health and Hospitals",
      "telecom": [ {
        "system": "phone",
        "value": " 555-555-5000",
        "use": "work"
      } ],
      "address": [ {
        "line": [ "1001 Village Avenue" ],
        "city": "Portland",
        "state": "OR",
        "postalCode": "99123",
        "country": "US"
      } ]
    }
  }, {
    "resource": {
      "resourceType": "Practitioner",
      "id": "c3cb8d80-9751-420d-befc-d88e0f73f610",
      "identifier": [ {
        "use": "official",
        "system": "urn:oid:2.16.840.1.113883.4.6",
        "value": "99999999"
      } ],
      "name": [ {
        "family": "Seven",
        "given": [ "Henry" ],
        "suffix": [ "MD" ]
      } ],
      "telecom": [ {
        "system": "phone",
        "value": "555-555-1002",
        "use": "work"
      } ],
      "address": [ {
        "line": [ "1002 Healthcare Drive" ],
        "city": "Portland",
        "state": "OR",
        "postalCode": "99123",
        "country": "US"
      } ]
    }
  }, {
    "resource": {
      "resourceType": "Practitioner",
      "id": "4554566e-0f1f-4730-b291-38f4c720edbc",
      "identifier": [ {
        "use": "official",
        "system": "http://hl7.org/fhir/sid/us-npi",
        "value": "999999999"
      } ],
      "name": [ {
        "family": "Seven",
        "given": [ "Henry" ]
      } ],
      "telecom": [ {
        "system": "phone",
        "value": "555-555-1002",
        "use": "work"
      } ],
      "address": [ {
        "line": [ "1001 Village Avenue" ],
        "city": "Portland",
        "state": "OR",
        "postalCode": "99123",
        "country": "US"
      } ]
    }
  }, {
    "resource": {
      "resourceType": "Practitioner",
      "id": "cae7effc-6b01-46d4-b82d-ca3423fe8f2b",
      "identifier": [ {
        "use": "official",
        "system": "http://hl7.org/fhir/sid/us-npi",
        "value": "PseudoMD-1"
      } ],
      "name": [ {
        "family": "Seven",
        "given": [ "Henry" ],
        "suffix": [ "MD" ]
      } ],
      "telecom": [ {
        "system": "phone",
        "value": "+1-555-555-5000",
        "use": "home"
      } ],
      "address": [ {
        "line": [ "1001 Village Avenue" ],
        "city": "Portland",
        "state": "OR",
        "postalCode": "99123",
        "country": "US"
      } ]
    }
  }, {
    "resource": {
      "resourceType": "Organization",
      "id": "65eaa017-6fb3-4a60-b6ae-4cd1cc7016d2",
      "identifier": [ {
        "use": "official",
        "system": "urn:oid:2.16.840.1.113883.4.6",
        "value": "99999999"
      } ],
      "name": "Community Health and Hospitals",
      "telecom": [ {
        "system": "phone",
        "value": " 555-555-1002",
        "use": "work"
      } ],
      "address": [ {
        "use": "work",
        "line": [ "1002 Healthcare Drive" ],
        "city": "Portland",
        "state": "OR",
        "postalCode": "99123",
        "country": "US"
      } ]
    }
  }, {
    "resource": {
      "resourceType": "AllergyIntolerance",
      "id": "d844e4f7-d1b1-4857-96fb-f0873b7bb178",
      "identifier": [ {
        "use": "official",
        "value": "36e3e930-7b14-11db-9fe1-0800200c9a66"
      } ],
      "clinicalStatus": {
        "coding": [ {
          "system": "http://terminology.hl7.org/CodeSystem/allergyintolerance-clinical",
          "code": "active",
          "display": "Active"
        } ]
      },
      "verificationStatus": {
        "coding": [ {
          "system": "http://terminology.hl7.org/CodeSystem/allergyintolerance-verification",
          "code": "confirmed",
          "display": "Confirmed"
        } ]
      },
      "type": "allergy",
      "category": [ "food" ],
      "code": {
        "coding": [ {
          "system": "http://fdasis.nlm.nih.gov",
          "code": "291P45F896",
          "display": "Eggs"
        }, {
          "system": "urn:oid:2.16.840.1.113883.6.103",
          "code": "V15.03",
          "display": "Allergy to eggs"
        } ],
        "text": "Allergy to Eggs + Eggs"
      },
      "patient": {
        "reference": "Patient/25f88128-2799-4884-aceb-1394cf91e8fe",
        "display": "Cory Jacobs"
      },
      "recordedDate": "2010-05-30T10:00:00+02:00"
    }
  }, {
    "resource": {
      "resourceType": "AllergyIntolerance",
      "id": "d1bd50e0-c3fc-446a-b585-ff2035f48a8a",
      "identifier": [ {
        "use": "official",
        "value": "36e3e930-7b14-11db-9fe1-0800200c9a66"
      } ],
      "clinicalStatus": {
        "coding": [ {
          "system": "http://terminology.hl7.org/CodeSystem/allergyintolerance-clinical",
          "code": "active",
          "display": "Active"
        } ]
      },
      "verificationStatus": {
        "coding": [ {
          "system": "http://terminology.hl7.org/CodeSystem/allergyintolerance-verification",
          "code": "confirmed",
          "display": "Confirmed"
        } ]
      },
      "type": "allergy",
      "category": [ "medication" ],
      "code": {
        "coding": [ {
          "system": "http://www.nlm.nih.gov/research/umls/rxnorm",
          "code": "406524",
          "display": "Doxycycline 75 MG Enteric Coated Tablet"
        }, {
          "system": "urn:oid:2.16.840.1.113883.3.26.1.5",
          "code": "N0000006275",
          "display": "Tetracycline"
        } ],
        "text": "Tetracyclines + Doxycycline 75 MG Enteric Coated Tablet"
      },
      "patient": {
        "reference": "Patient/25f88128-2799-4884-aceb-1394cf91e8fe",
        "display": "Cory Jacobs"
      },
      "recordedDate": "2010-05-30T10:00:00+02:00"
    }
  }, {
    "resource": {
      "resourceType": "AllergyIntolerance",
      "id": "80160909-ddf0-427f-9e65-f2182e322b27",
      "identifier": [ {
        "use": "official",
        "value": "36e3e930-7b14-11db-9fe1-0800200c9a66"
      } ],
      "clinicalStatus": {
        "coding": [ {
          "system": "http://terminology.hl7.org/CodeSystem/allergyintolerance-clinical",
          "code": "active",
          "display": "Active"
        } ]
      },
      "verificationStatus": {
        "coding": [ {
          "system": "http://terminology.hl7.org/CodeSystem/allergyintolerance-verification",
          "code": "confirmed",
          "display": "Confirmed"
        } ]
      },
      "type": "allergy",
      "category": [ "medication" ],
      "code": {
        "coding": [ {
          "system": "http://www.nlm.nih.gov/research/umls/rxnorm",
          "code": "866041",
          "display": "Neomycin Sulfate 500 MG"
        } ],
        "text": "Neomycin + Neomycin Sulfate 500 MG"
      },
      "patient": {
        "reference": "Patient/25f88128-2799-4884-aceb-1394cf91e8fe",
        "display": "Cory Jacobs"
      },
      "recordedDate": "2010-05-30T10:00:00+02:00"
    }
  }, {
    "resource": {
      "resourceType": "Observation",
      "id": "e5baba91-5296-4f9f-b2db-978bbe80e65e",
      "identifier": [ {
        "use": "official",
        "value": "c6f88321-67ad-11db-bd13-0800200c9a66"
      } ],
      "status": "final",
      "category": [ {
        "coding": [ {
          "system": "http://terminology.hl7.org/CodeSystem/observation-category",
          "code": "vital-signs",
          "display": "Vital Signs"
        } ]
      } ],
      "code": {
        "coding": [ {
          "system": "http://loinc.org",
          "code": "8462-4",
          "display": "BP Diastolic"
        } ]
      },
      "subject": {
        "reference": "Patient/25f88128-2799-4884-aceb-1394cf91e8fe",
        "display": "Cory Jacobs"
      },
      "effectivePeriod": {
        "start": "2010-09-02T10:00:00+02:00"
      },
      "valueQuantity": {
        "value": 86,
        "unit": "mm[Hg]",
        "system": "http://unitsofmeasure.org",
        "code": "mm[Hg]"
      }
    }
  }, {
    "resource": {
      "resourceType": "Observation",
      "id": "9c094086-a911-4241-8943-96c41f6b3b6d",
      "identifier": [ {
        "use": "official",
        "value": "c6f88321-67ad-11db-bd13-0800200c9a66"
      } ],
      "status": "final",
      "category": [ {
        "coding": [ {
          "system": "http://terminology.hl7.org/CodeSystem/observation-category",
          "code": "vital-signs",
          "display": "Vital Signs"
        } ]
      } ],
      "code": {
        "coding": [ {
          "system": "http://loinc.org",
          "code": "8867-4",
          "display": "Heart Rate"
        } ]
      },
      "subject": {
        "reference": "Patient/25f88128-2799-4884-aceb-1394cf91e8fe",
        "display": "Cory Jacobs"
      },
      "effectivePeriod": {
        "start": "2010-09-02T10:00:00+02:00"
      },
      "valueQuantity": {
        "value": 82,
        "unit": "/min",
        "system": "http://unitsofmeasure.org",
        "code": "/min"
      }
    }
  }, {
    "resource": {
      "resourceType": "Observation",
      "id": "a345ac6f-5d58-46da-af01-2b18cfeee131",
      "identifier": [ {
        "use": "official",
        "value": "c6f88321-67ad-11db-bd13-0800200c9a66"
      } ],
      "status": "final",
      "category": [ {
        "coding": [ {
          "system": "http://terminology.hl7.org/CodeSystem/observation-category",
          "code": "vital-signs",
          "display": "Vital Signs"
        } ]
      } ],
      "code": {
        "coding": [ {
          "system": "http://loinc.org",
          "code": "8480-6",
          "display": "BP Systolic"
        } ]
      },
      "subject": {
        "reference": "Patient/25f88128-2799-4884-aceb-1394cf91e8fe",
        "display": "Cory Jacobs"
      },
      "effectivePeriod": {
        "start": "2010-09-02T10:00:00+02:00"
      },
      "valueQuantity": {
        "value": 130,
        "unit": "mm[Hg]",
        "system": "http://unitsofmeasure.org",
        "code": "mm[Hg]"
      }
    }
  }, {
    "resource": {
      "resourceType": "Observation",
      "id": "2b86e66a-383e-4008-8f9a-140f0da43100",
      "identifier": [ {
        "use": "official",
        "value": "c6f88321-67ad-11db-bd13-0800200c9a66"
      } ],
      "status": "final",
      "category": [ {
        "coding": [ {
          "system": "http://terminology.hl7.org/CodeSystem/observation-category",
          "code": "vital-signs",
          "display": "Vital Signs"
        } ]
      } ],
      "code": {
        "coding": [ {
          "system": "http://loinc.org",
          "code": "39156-5",
          "display": "BMI"
        } ]
      },
      "subject": {
        "reference": "Patient/25f88128-2799-4884-aceb-1394cf91e8fe",
        "display": "Cory Jacobs"
      },
      "effectivePeriod": {
        "start": "2010-09-02T10:00:00+02:00"
      },
      "valueQuantity": {
        "value": 18.8,
        "unit": "kg/m2",
        "system": "http://unitsofmeasure.org",
        "code": "kg/m2"
      }
    }
  }, {
    "resource": {
      "resourceType": "Observation",
      "id": "1efb0bc2-e01e-4386-a99c-0dc12c4167bf",
      "identifier": [ {
        "use": "official",
        "value": "c6f88321-67ad-11db-bd13-0800200c9a66"
      } ],
      "status": "final",
      "category": [ {
        "coding": [ {
          "system": "http://terminology.hl7.org/CodeSystem/observation-category",
          "code": "vital-signs",
          "display": "Vital Signs"
        } ]
      } ],
      "code": {
        "coding": [ {
          "system": "http://loinc.org",
          "code": "39156-5",
          "display": "BMI"
        } ]
      },
      "subject": {
        "reference": "Patient/25f88128-2799-4884-aceb-1394cf91e8fe",
        "display": "Cory Jacobs"
      },
      "effectivePeriod": {
        "start": "2010-05-30T10:00:00+02:00"
      },
      "valueQuantity": {
        "value": 18.3,
        "unit": "kg/m2",
        "system": "http://unitsofmeasure.org",
        "code": "kg/m2"
      }
    }
  }, {
    "resource": {
      "resourceType": "Observation",
      "id": "3e403e2f-5a1f-4775-a98f-7bb4a49c8ce5",
      "identifier": [ {
        "use": "official",
        "value": "c6f88321-67ad-11db-bd13-0800200c9a66"
      } ],
      "status": "final",
      "category": [ {
        "coding": [ {
          "system": "http://terminology.hl7.org/CodeSystem/observation-category",
          "code": "vital-signs",
          "display": "Vital Signs"
        } ]
      } ],
      "code": {
        "coding": [ {
          "system": "http://loinc.org",
          "code": "8480-6",
          "display": "BP Systolic"
        } ]
      },
      "subject": {
        "reference": "Patient/25f88128-2799-4884-aceb-1394cf91e8fe",
        "display": "Cory Jacobs"
      },
      "effectivePeriod": {
        "start": "2010-05-30T10:00:00+02:00"
      },
      "valueQuantity": {
        "value": 128,
        "unit": "mm[Hg]",
        "system": "http://unitsofmeasure.org",
        "code": "mm[Hg]"
      }
    }
  }, {
    "resource": {
      "resourceType": "Observation",
      "id": "282d803e-6153-476b-b381-dbcc0d4f4315",
      "identifier": [ {
        "use": "official",
        "value": "c6f88321-67ad-11db-bd13-0800200c9a66"
      } ],
      "status": "final",
      "category": [ {
        "coding": [ {
          "system": "http://terminology.hl7.org/CodeSystem/observation-category",
          "code": "vital-signs",
          "display": "Vital Signs"
        } ]
      } ],
      "code": {
        "coding": [ {
          "system": "http://loinc.org",
          "code": "8867-4",
          "display": "Heart Rate"
        } ]
      },
      "subject": {
        "reference": "Patient/25f88128-2799-4884-aceb-1394cf91e8fe",
        "display": "Cory Jacobs"
      },
      "effectivePeriod": {
        "start": "2010-05-30T10:00:00+02:00"
      },
      "valueQuantity": {
        "value": 82,
        "unit": "/min",
        "system": "http://unitsofmeasure.org",
        "code": "/min"
      }
    }
  }, {
    "resource": {
      "resourceType": "Observation",
      "id": "4670fb92-c8e1-4940-be05-cf78d085c9a0",
      "identifier": [ {
        "use": "official",
        "value": "c6f88321-67ad-11db-bd13-0800200c9a66"
      } ],
      "status": "final",
      "category": [ {
        "coding": [ {
          "system": "http://terminology.hl7.org/CodeSystem/observation-category",
          "code": "vital-signs",
          "display": "Vital Signs"
        } ]
      } ],
      "code": {
        "coding": [ {
          "system": "http://loinc.org",
          "code": "8462-4",
          "display": "BP Diastolic"
        } ]
      },
      "subject": {
        "reference": "Patient/25f88128-2799-4884-aceb-1394cf91e8fe",
        "display": "Cory Jacobs"
      },
      "effectivePeriod": {
        "start": "2010-05-30T10:00:00+02:00"
      },
      "valueQuantity": {
        "value": 78,
        "unit": "mm[Hg]",
        "system": "http://unitsofmeasure.org",
        "code": "mm[Hg]"
      }
    }
  }, {
    "resource": {
      "resourceType": "Observation",
      "id": "326445fc-4d3e-4c3a-98a0-c84eba8ee742",
      "identifier": [ {
        "use": "official",
        "value": "c6f88321-67ad-11db-bd13-0800200c9a66"
      } ],
      "status": "final",
      "category": [ {
        "coding": [ {
          "system": "http://terminology.hl7.org/CodeSystem/observation-category",
          "code": "vital-signs",
          "display": "Vital Signs"
        } ]
      } ],
      "code": {
        "coding": [ {
          "system": "http://loinc.org",
          "code": "8867-4",
          "display": "Heart Rate"
        } ]
      },
      "subject": {
        "reference": "Patient/25f88128-2799-4884-aceb-1394cf91e8fe",
        "display": "Cory Jacobs"
      },
      "effectivePeriod": {
        "start": "2010-12-01T10:00:00+01:00"
      },
      "valueQuantity": {
        "value": 84,
        "unit": "/min",
        "system": "http://unitsofmeasure.org",
        "code": "/min"
      }
    }
  }, {
    "resource": {
      "resourceType": "Observation",
      "id": "d3e4d5af-3222-470e-9542-80aee5b613e2",
      "identifier": [ {
        "use": "official",
        "value": "c6f88321-67ad-11db-bd13-0800200c9a66"
      } ],
      "status": "final",
      "category": [ {
        "coding": [ {
          "system": "http://terminology.hl7.org/CodeSystem/observation-category",
          "code": "vital-signs",
          "display": "Vital Signs"
        } ]
      } ],
      "code": {
        "coding": [ {
          "system": "http://loinc.org",
          "code": "8480-6",
          "display": "BP Systolic"
        } ]
      },
      "subject": {
        "reference": "Patient/25f88128-2799-4884-aceb-1394cf91e8fe",
        "display": "Cory Jacobs"
      },
      "effectivePeriod": {
        "start": "2010-12-01T10:00:00+01:00"
      },
      "valueQuantity": {
        "value": 126,
        "unit": "mm[Hg]",
        "system": "http://unitsofmeasure.org",
        "code": "mm[Hg]"
      }
    }
  }, {
    "resource": {
      "resourceType": "Observation",
      "id": "1be17420-0fd1-4f1e-90f7-37894543917a",
      "identifier": [ {
        "use": "official",
        "value": "c6f88321-67ad-11db-bd13-0800200c9a66"
      } ],
      "status": "final",
      "category": [ {
        "coding": [ {
          "system": "http://terminology.hl7.org/CodeSystem/observation-category",
          "code": "vital-signs",
          "display": "Vital Signs"
        } ]
      } ],
      "code": {
        "coding": [ {
          "system": "http://loinc.org",
          "code": "8462-4",
          "display": "BP Diastolic"
        } ]
      },
      "subject": {
        "reference": "Patient/25f88128-2799-4884-aceb-1394cf91e8fe",
        "display": "Cory Jacobs"
      },
      "effectivePeriod": {
        "start": "2010-12-01T10:00:00+01:00"
      },
      "valueQuantity": {
        "value": 76,
        "unit": "mm[Hg]",
        "system": "http://unitsofmeasure.org",
        "code": "mm[Hg]"
      }
    }
  }, {
    "resource": {
      "resourceType": "Observation",
      "id": "f287e1f1-4138-440a-b9e8-a0178610a0d7",
      "identifier": [ {
        "use": "official",
        "value": "c6f88321-67ad-11db-bd13-0800200c9a66"
      } ],
      "status": "final",
      "category": [ {
        "coding": [ {
          "system": "http://terminology.hl7.org/CodeSystem/observation-category",
          "code": "vital-signs",
          "display": "Vital Signs"
        } ]
      } ],
      "code": {
        "coding": [ {
          "system": "http://loinc.org",
          "code": "39156-5",
          "display": "BMI"
        } ]
      },
      "subject": {
        "reference": "Patient/25f88128-2799-4884-aceb-1394cf91e8fe",
        "display": "Cory Jacobs"
      },
      "effectivePeriod": {
        "start": "2010-12-01T10:00:00+01:00"
      },
      "valueQuantity": {
        "value": 19.6,
        "unit": "kg/m2",
        "system": "http://unitsofmeasure.org",
        "code": "kg/m2"
      }
    }
  }, {
    "resource": {
      "resourceType": "Condition",
      "id": "6e879de5-f7f3-480f-9f84-76aed6c4f327",
      "identifier": [ {
        "use": "official",
        "value": "9d3d416d-45ab-4da1-912f-4583e0632000"
      } ],
      "clinicalStatus": {
        "coding": [ {
          "system": "http://terminology.hl7.org/CodeSystem/condition-clinical",
          "code": "active",
          "display": "Active"
        } ]
      },
      "verificationStatus": {
        "coding": [ {
          "system": "http://terminology.hl7.org/CodeSystem/condition-ver-status",
          "code": "confirmed",
          "display": "Confirmed"
        } ]
      },
      "category": [ {
        "coding": [ {
          "system": "http://terminology.hl7.org/CodeSystem/condition-category",
          "code": "problem-list-item",
          "display": "Problem List Item"
        } ]
      } ],
      "code": {
        "coding": [ {
          "system": "http://snomed.info/sct",
          "code": "59621000",
          "display": "Essential hypertension"
        }, {
          "system": "urn:oid:2.16.840.1.113883.6.90",
          "code": "I10",
          "display": "Essential (primary) hypertension"
        }, {
          "system": "urn:oid:2.16.840.1.113883.6.103",
          "code": "401.9",
          "display": "Unspecified essential hypertension"
        } ]
      },
      "subject": {
        "reference": "Patient/25f88128-2799-4884-aceb-1394cf91e8fe",
        "display": "Cory Jacobs"
      },
      "onsetDateTime": "2010-05-30T10:00:00+02:00"
    }
  }, {
    "resource": {
      "resourceType": "MedicationStatement",
      "id": "d36fbb10-6722-496c-ba77-78bae1c93ca9",
      "extension": [ {
        "url": "http://hl7.org/fhir/3.0/StructureDefinition/extension-MedicationStatement.status",
        "valueCode": "UNKNOWN"
      } ],
      "identifier": [ {
        "use": "official",
        "value": "cdbd33f0-6cde-11db-9fe1-0800200c9a66"
      } ],
      "status": "completed",
      "medicationReference": {
        "reference": "Medication/c4fe4eaa-5d95-4cb9-a02f-89bc9e06f0d4",
        "display": "Mirtazapine 15 MG Oral Tablet"
      },
      "subject": {
        "reference": "Patient/25f88128-2799-4884-aceb-1394cf91e8fe",
        "display": "Cory Jacobs"
      },
      "effectivePeriod": {
        "start": "2010-06-01T10:00:00+02:00"
      }
    }
  }, {
    "resource": {
      "resourceType": "Medication",
      "id": "c4fe4eaa-5d95-4cb9-a02f-89bc9e06f0d4",
      "code": {
        "coding": [ {
          "system": "http://www.nlm.nih.gov/research/umls/rxnorm",
          "code": "311725",
          "display": "Mirtazapine 15 MG Oral Tablet"
        } ]
      }
    }
  }, {
    "resource": {
      "resourceType": "MedicationStatement",
      "id": "1256ae0d-ac5e-4f44-8fd2-e47e83c657d8",
      "extension": [ {
        "url": "http://hl7.org/fhir/3.0/StructureDefinition/extension-MedicationStatement.status",
        "valueCode": "UNKNOWN"
      } ],
      "identifier": [ {
        "use": "official",
        "value": "cdbd33f0-6cde-11db-9fe1-0800200c9a66"
      } ],
      "status": "completed",
      "medicationReference": {
        "reference": "Medication/0921a509-f25e-4103-9dca-7b2e5caa8722",
        "display": "Enalapril Maleate 10 MG / Hydrochlorothiazide 25 MG Oral Tablet"
      },
      "subject": {
        "reference": "Patient/25f88128-2799-4884-aceb-1394cf91e8fe",
        "display": "Cory Jacobs"
      },
      "effectivePeriod": {
        "start": "2010-05-30T10:00:00+02:00"
      }
    }
  }, {
    "resource": {
      "resourceType": "Medication",
      "id": "0921a509-f25e-4103-9dca-7b2e5caa8722",
      "code": {
        "coding": [ {
          "system": "http://www.nlm.nih.gov/research/umls/rxnorm",
          "code": "858828",
          "display": "Enalapril Maleate 10 MG / Hydrochlorothiazide 25 MG Oral Tablet"
        } ]
      }
    }
  }, {
    "resource": {
      "resourceType": "MedicationStatement",
      "id": "ec29b652-759d-41a9-b2f8-c8c1bcf3f9be",
      "extension": [ {
        "url": "http://hl7.org/fhir/3.0/StructureDefinition/extension-MedicationStatement.status",
        "valueCode": "UNKNOWN"
      } ],
      "identifier": [ {
        "use": "official",
        "value": "cdbd33f0-6cde-11db-9fe1-0800200c9a66"
      } ],
      "status": "completed",
      "medicationReference": {
        "reference": "Medication/c4fe4eaa-5d95-4cb9-a02f-89bc9e06f0d4",
        "display": "Mirtazapine 15 MG Oral Tablet"
      },
      "subject": {
        "reference": "Patient/25f88128-2799-4884-aceb-1394cf91e8fe",
        "display": "Cory Jacobs"
      },
      "effectivePeriod": {
        "start": "2010-10-01T10:00:00+02:00"
      }
    }
  }, {
    "resource": {
      "resourceType": "MedicationStatement",
      "id": "73ee3f88-f8ab-4ac7-9d32-9354289f21c7",
      "extension": [ {
        "url": "http://hl7.org/fhir/3.0/StructureDefinition/extension-MedicationStatement.status",
        "valueCode": "UNKNOWN"
      } ],
      "identifier": [ {
        "use": "official",
        "value": "cdbd33f0-6cde-11db-9fe1-0800200c9a66"
      } ],
      "status": "completed",
      "medicationReference": {
        "reference": "Medication/c4fe4eaa-5d95-4cb9-a02f-89bc9e06f0d4",
        "display": "Mirtazapine 15 MG Oral Tablet"
      },
      "subject": {
        "reference": "Patient/25f88128-2799-4884-aceb-1394cf91e8fe",
        "display": "Cory Jacobs"
      },
      "effectivePeriod": {
        "start": "2010-06-15T10:00:00+02:00"
      }
    }
  }, {
    "resource": {
      "resourceType": "Encounter",
      "id": "5085d208-a575-4508-9376-b607c3ac6100",
      "identifier": [ {
        "use": "official",
        "value": "2a620155-9d11-439e-92b3-5d9815ff4de8"
      } ],
      "status": "finished",
      "type": [ {
        "coding": [ {
          "system": "http://www.ama-assn.org/go/cpt",
          "code": "99241",
          "display": "Office consultation"
        } ]
      } ],
      "subject": {
        "reference": "Patient/25f88128-2799-4884-aceb-1394cf91e8fe",
        "display": "Cory Jacobs"
      },
      "period": {
        "start": "2010-06-01T10:00:00+02:00"
      },
      "reasonCode": [ {
        "coding": [ {
          "system": "http://snomed.info/sct",
          "code": "268621008",
          "display": "Major Depression"
        } ]
      } ],
      "reasonReference": [ {
        "reference": "Condition/898d4690-0616-46b7-a4c2-83f28257f74f",
        "display": "Major Depression"
      } ]
    }
  }, {
    "resource": {
      "resourceType": "Condition",
      "id": "898d4690-0616-46b7-a4c2-83f28257f74f",
      "identifier": [ {
        "use": "official",
        "system": "urn:uuid:db734647-fc99-424c-a864-7e3cda82e703",
        "value": "45665"
      } ],
      "clinicalStatus": {
        "coding": [ {
          "system": "http://terminology.hl7.org/CodeSystem/condition-clinical",
          "code": "active",
          "display": "Active"
        } ]
      },
      "category": [ {
        "coding": [ {
          "system": "http://hl7.org/fhir/condition-category",
          "code": "encounter-diagnosis",
          "display": "Encounter Diagnosis"
        } ]
      } ],
      "code": {
        "coding": [ {
          "system": "http://snomed.info/sct",
          "code": "268621008",
          "display": "Major Depression"
        }, {
          "system": "urn:oid:2.16.840.1.113883.6.90",
          "code": "F33.9",
          "display": "Major depressive disorder, recurrent, unspecified"
        }, {
          "system": "urn:oid:2.16.840.1.113883.6.103",
          "code": "296.30",
          "display": "Major depressive affective disorder, recurrent episode, unspecified"
        } ]
      },
      "subject": {
        "reference": "Patient/25f88128-2799-4884-aceb-1394cf91e8fe",
        "display": "Cory Jacobs"
      },
      "onsetDateTime": "2010-06-01T10:00:00+02:00"
    }
  }, {
    "resource": {
      "resourceType": "Encounter",
      "id": "89fbab9a-840c-4e2c-bc21-947a3ce4ca40",
      "identifier": [ {
        "use": "official",
        "value": "2a620155-9d11-439e-92b3-5d9815ff4de8"
      } ],
      "status": "finished",
      "type": [ {
        "coding": [ {
          "system": "http://www.ama-assn.org/go/cpt",
          "code": "99213",
          "display": "Office/outpatient visit, est"
        }, {
          "system": "urn:oid:2.16.840.1.113883.6.103",
          "code": "V70.0",
          "display": "Routine general medical examination at a health care facility"
        } ]
      } ],
      "subject": {
        "reference": "Patient/25f88128-2799-4884-aceb-1394cf91e8fe",
        "display": "Cory Jacobs"
      },
      "period": {
        "start": "2010-12-01T10:00:00+01:00"
      }
    }
  }, {
    "resource": {
      "resourceType": "Encounter",
      "id": "0c626b52-3140-4d17-9371-722449447ac1",
      "identifier": [ {
        "use": "official",
        "value": "2a620155-9d11-439e-92b3-5d9815ff4de8"
      } ],
      "status": "finished",
      "type": [ {
        "coding": [ {
          "system": "http://www.ama-assn.org/go/cpt",
          "code": "99213",
          "display": "Office/outpatient visit, est"
        }, {
          "system": "urn:oid:2.16.840.1.113883.6.103",
          "code": "V70.0",
          "display": "Routine general medical examination at a health care facility"
        } ]
      } ],
      "subject": {
        "reference": "Patient/25f88128-2799-4884-aceb-1394cf91e8fe",
        "display": "Cory Jacobs"
      },
      "period": {
        "start": "2010-09-02T10:00:00+02:00"
      }
    }
  }, {
    "resource": {
      "resourceType": "Encounter",
      "id": "2a9f04e8-9e91-42bf-b4fa-73a02fbd97fc",
      "identifier": [ {
        "use": "official",
        "value": "2a620155-9d11-439e-92b3-5d9815ff4de8"
      } ],
      "status": "finished",
      "type": [ {
        "coding": [ {
          "system": "http://www.ama-assn.org/go/cpt",
          "code": "99281",
          "display": "Emergency dept visit"
        } ]
      } ],
      "subject": {
        "reference": "Patient/25f88128-2799-4884-aceb-1394cf91e8fe",
        "display": "Cory Jacobs"
      },
      "period": {
        "start": "2010-05-30T10:00:00+02:00"
      },
      "reasonCode": [ {
        "coding": [ {
          "system": "http://snomed.info/sct",
          "code": "59621000",
          "display": "Hypertension"
        } ]
      } ],
      "reasonReference": [ {
        "reference": "Condition/898d4690-0616-46b7-a4c2-83f28257f74f",
        "display": "Major Depression"
      } ]
    }
  } ]
}