{
  "resourceType": "Bundle",
  "entry": [ {
    "resource": {
      "resourceType": "Composition",
      "id": "04189a10-35de-4cc4-b132-8f85ac9e7dcf",
      "identifier": {
        "use": "official",
        "value": "db734647-fc99-424c-a864-7e3cda82e703"
      },
      "status": "preliminary",
      "type": {
        "coding": [ {
          "system": "http://loinc.org",
          "code": "34133-9",
          "display": "Summarization of Episode Note"
        } ]
      },
      "category": [ {
        "coding": [ {
          "system": "http://hl7.org/fhir/ValueSet/doc-classcodes",
          "code": "LP173421-7",
          "display": "Note"
        } ]
      } ],
      "subject": {
        "reference": "Patient/087826d9-1325-493e-a79c-5ce39ee5d9bb",
        "display": "Mario Washington"
      },
      "date": "2014-04-16T11:55:10+02:00",
      "author": [ {
        "reference": "Practitioner/1e02bb3a-9820-4f1c-a4e6-23ed75bbdf72",
        "display": "Henry Seven MD"
      } ],
      "title": "Community Health and Hospitals: Health Summary",
      "confidentiality": "N",
      "attester": [ {
        "mode": "legal",
        "time": "2013-04-18T09:00:00+05:00",
        "party": {
          "reference": "Practitioner/80c2b6f4-419f-4271-8ab0-a4bdd7931ce2",
          "display": "Henry Seven"
        }
      }, {
        "mode": "professional",
        "time": "2014-04-16T11:55:10+02:00",
        "party": {
          "reference": "Practitioner/80c2b6f4-419f-4271-8ab0-a4bdd7931ce2",
          "display": "Henry Seven"
        }
      } ],
      "custodian": {
        "reference": "Organization/d9fbfc2d-8d6d-49ac-b617-0c0c800fe95f",
        "display": "Community Health and Hospitals"
      },
      "event": [ {
        "period": {
          "start": "2010-05-01T10:00:00+02:00",
          "end": "2010-10-13T10:00:00+02:00"
        },
        "detail": [ {
          "reference": "Practitioner/fc225298-f168-41b3-999d-00ebbddac0af",
          "display": "Henry Seven MD"
        } ]
      } ],
      "section": [ {
        "title": "Results",
        "code": {
          "coding": [ {
            "system": "http://loinc.org",
            "code": "30954-2",
            "display": "Results"
          } ]
        },
        "text": {
          "status": "additional",
          "div": "<div xmlns=\"http://www.w3.org/1999/xhtml\"><table><thead><tr><th>Group Description</th><th>Code System</th><th>Code</th><th>Code Description</th><th>Value</th><th>Unit</th><th>Date and Time</th><th>Status</th></tr></thead><tbody><tr><td>No data</td></tr></tbody></table></div>"
        },
        "mode": "snapshot"
      }, {
        "title": "Social History",
        "code": {
          "coding": [ {
            "system": "http://loinc.org",
            "code": "29762-2",
            "display": "Social History"
          } ]
        },
        "text": {
          "status": "additional",
          "div": "<div xmlns=\"http://www.w3.org/1999/xhtml\"><table><thead><tr><th>Group Description</th><th>Code System</th><th>Code</th><th>Code Description</th><th>Date and Time</th><th>Status</th></tr></thead><tbody><tr><td>Tobacco Use</td><td>SNOMED-CT</td><td>266919005</td><td><span/>Never smoker (Never Smoked)</td><td>05-01-2010 10:00:00</td><td>Active</td></tr><tr><td/><td>SNOMED-CT</td><td>449868002</td><td>Current every day smoker</td><td/><td/></tr></tbody></table></div>"
        },
        "mode": "snapshot",
        "entry": [ {
          "reference": "Observation/c8655e60-2dea-4ee3-9a0f-286c4bf896c1"
        } ]
      }, {
        "title": "Medications",
        "code": {
          "coding": [ {
            "system": "http://loinc.org",
            "code": "10160-0",
            "display": "History of Medication Use"
          } ]
        },
        "text": {
          "status": "additional",
          "div": "<div xmlns=\"http://www.w3.org/1999/xhtml\"><table><thead><tr><th>Group Description</th><th>Code System</th><th>Code</th><th>Code Description</th><th>Date and Time</th><th>Status</th></tr></thead><tbody><tr><td>Long acting inhaled beta 2 agonist</td><td>RxNorm</td><td>318142</td><td><span/>salmeterol 0.05 MG/ACTUAT Inhalant Powder</td><td>05-01-2010 10:00:00</td><td>Active</td></tr><tr><td>Short acting beta 2 agonist</td><td>RxNorm</td><td>630208</td><td><span/>Albuterol 0.83 MG/ML Inhalant Solution</td><td>05-01-2010 10:00:00</td><td>Active</td></tr><tr><td>Smoking Cessation Agents</td><td>RxNorm</td><td>1046847</td><td><span/>24 HR Nicotine 0.313 MG/HR Transdermal Patch</td><td>05-01-2010 10:00:00</td><td>Active</td></tr><tr><td>Antiasthmatic steroids</td><td>RxNorm</td><td>351136</td><td><span/>Albuterol 0.417 MG/ML Inhalant Solution</td><td>08-10-2010 10:00:00</td><td>Active</td></tr><tr><td/><td>RxNorm</td><td>828930</td><td>50 ACTUAT flunisolide 0.25 MG/ACTUAT Metered Dose Inhaler</td><td/><td/></tr></tbody></table></div>"
        },
        "mode": "snapshot",
        "entry": [ {
          "reference": "MedicationStatement/fb12bc63-c1d3-46e7-87f1-b8e6745a6a5c",
          "display": "Albuterol 0.417 MG/ML Inhalant Solution"
        }, {
          "reference": "MedicationStatement/ec3558b6-89e0-4d2c-aace-29aff8db9c8f",
          "display": "salmeterol 0.05 MG/ACTUAT Inhalant Powder"
        }, {
          "reference": "MedicationStatement/3a70ce89-f41a-4900-be36-81f663637e52",
          "display": "24 HR Nicotine 0.313 MG/HR Transdermal Patch"
        }, {
          "reference": "MedicationStatement/63ade3bd-3072-4261-aa9f-f7b63ab51042",
          "display": "Albuterol 0.83 MG/ML Inhalant Solution"
        } ]
      }, {
        "title": "Allergies,  Adverse Reactions & Alerts",
        "code": {
          "coding": [ {
            "system": "http://loinc.org",
            "code": "48765-2",
            "display": "Allergies, adverse reactions, alerts"
          } ]
        },
        "text": {
          "status": "additional",
          "div": "<div xmlns=\"http://www.w3.org/1999/xhtml\"><table><thead><tr><th>Group Description</th><th>Code System</th><th>Code</th><th>Code Description</th><th>Severity</th><th>Susceptibility</th><th>Date and Time</th><th>Status</th></tr></thead><tbody><tr><td>Allergy to Eggs</td><td>UNII</td><td>291P45F896</td><td><span/>Eggs</td><td><span/>Mild to moderate</td><td>Moderately Susceptible</td><td>05-01-2010 10:00:00</td><td>Active</td></tr><tr><td/><td>ICD-9-CM</td><td>V15.03</td><td>Allergy to eggs</td><td/><td/><td/><td/></tr><tr><td>Amikacin</td><td>RxNorm</td><td>905148</td><td><span/>Amikacin Sulfate 50 MG/ML Injectable Solution</td><td><span/>Fatal</td><td>Susceptible</td><td>05-01-2010 10:00:00</td><td>Active</td></tr><tr><td>Codeine</td><td>NDF-RT</td><td>N0000006691</td><td><span/>Codeine</td><td><span/>Moderate</td><td>Susceptible</td><td>05-01-2010 10:00:00</td><td>Active</td></tr></tbody></table></div>"
        },
        "mode": "snapshot",
        "entry": [ {
          "reference": "AllergyIntolerance/184783c0-9753-450a-b62e-1a5b19d025f0",
          "display": "Codeine + Codeine"
        }, {
          "reference": "AllergyIntolerance/0371e6b1-0e18-4d25-bcc5-59444654e787",
          "display": "Amikacin + Amikacin Sulfate 50 MG/ML Injectable Solution"
        }, {
          "reference": "AllergyIntolerance/ade7e9db-0093-4ed5-8a34-f509fa068e4c",
          "display": "Allergy to Eggs + Eggs"
        } ]
      }, {
        "title": "Vital Signs",
        "code": {
          "coding": [ {
            "system": "http://loinc.org",
            "code": "8716-3",
            "display": "Vital Signs"
          } ]
        },
        "text": {
          "status": "additional",
          "div": "<div xmlns=\"http://www.w3.org/1999/xhtml\"><table><thead><tr><th>Group Description</th><th>Code System</th><th>Code</th><th>Code Description</th><th>Value</th><th>Unit</th><th>Date and Time</th><th>Status</th></tr></thead><tbody><tr><td>BMI</td><td>LOINC</td><td>39156-5</td><td><span/>BMI</td><td>24.9</td><td>kg/m2</td><td>05-01-2010 10:00:00</td><td>Finding</td></tr><tr><td>Diastolic Blood Pressure</td><td>LOINC</td><td>8462-4</td><td><span/>BP Diastolic</td><td>74</td><td>mm[Hg]</td><td>05-01-2010 10:00:00</td><td>Finding</td></tr><tr><td>Systolic Blood Pressure</td><td>LOINC</td><td>8480-6</td><td><span/>BP Systolic</td><td>112</td><td>mm[Hg]</td><td>05-01-2010 10:00:00</td><td>Finding</td></tr><tr><td>Diastolic Blood Pressure</td><td>LOINC</td><td>8462-4</td><td><span/>BP Diastolic</td><td>72</td><td>mm[Hg]</td><td>08-10-2010 10:00:00</td><td>Finding</td></tr><tr><td>Systolic Blood Pressure</td><td>LOINC</td><td>8480-6</td><td><span/>BP Systolic</td><td>110</td><td>mm[Hg]</td><td>08-10-2010 10:00:00</td><td>Finding</td></tr></tbody></table></div>"
        },
        "mode": "snapshot",
        "entry": [ {
          "reference": "Observation/e5089455-b4e9-4969-b926-5683db7e4cdf",
          "display": "BP Diastolic"
        }, {
          "reference": "Observation/76c2babc-fdc5-482c-a97a-88fa74f97363",
          "display": "BP Systolic"
        }, {
          "reference": "Observation/eebfd327-9adf-49e6-b96a-793253ca3f36",
          "display": "BMI"
        }, {
          "reference": "Observation/b542ae43-a585-40a4-a181-afcf2ca71262",
          "display": "BP Systolic"
        }, {
          "reference": "Observation/1b9312ae-0fff-47f2-a32c-266151c2b7b2",
          "display": "BP Diastolic"
        } ]
      }, {
        "title": "Encounters",
        "code": {
          "coding": [ {
            "system": "http://loinc.org",
            "code": "46240-8",
            "display": "History of encounters"
          } ]
        },
        "text": {
          "status": "additional",
          "div": "<div xmlns=\"http://www.w3.org/1999/xhtml\"><table><thead><tr><th>Group Description</th><th>Code System</th><th>Code</th><th>Code Description</th><th>Date and Time</th><th>Status</th></tr></thead><tbody><tr><td>Encounter Office &amp; Outpatient Consult</td><td>CPT</td><td>99241</td><td><span/>Office consultation</td><td>05-01-2010 10:00:00</td><td>Performed</td></tr><tr><td>Encounter Office &amp; Outpatient Consult</td><td>CPT</td><td>99241</td><td><span/>Office consultation</td><td>08-10-2010 10:00:00</td><td>Performed</td></tr><tr><td>Encounter Outpatient Including Orthopedics an</td><td>CPT</td><td>98940</td><td><span/>Chiropractic manipulation</td><td>10-13-2010 10:00:00</td><td>Performed</td></tr></tbody></table></div>"
        },
        "mode": "snapshot",
        "entry": [ {
          "reference": "Encounter/5a9a6795-8f84-4d8e-93a2-8956528c65bd",
          "display": "Office consultation"
        }, {
          "reference": "Encounter/fdc32a0c-48c3-4a3d-b2f5-367b16bd5192",
          "display": "Office consultation"
        }, {
          "reference": "Encounter/6390c87d-ea08-4bcb-ad97-59bca9aa04d3",
          "display": "Chiropractic manipulation"
        } ]
      }, {
        "title": "Problems",
        "code": {
          "coding": [ {
            "system": "http://loinc.org",
            "code": "11450-4",
            "display": "PROBLEM LIST"
          } ]
        },
        "text": {
          "status": "additional",
          "div": "<div xmlns=\"http://www.w3.org/1999/xhtml\"><table><thead><tr><th>Group Description</th><th>Code System</th><th>Code</th><th>Code Description</th><th>Date and Time</th><th>Status</th></tr></thead><tbody><tr><td>Asthma</td><td>SNOMED-CT</td><td>195979001</td><td><span/>Asthma unspecified</td><td>05-01-2010 10:00:00</td><td>Active</td></tr><tr><td/><td>ICD-10-CM</td><td>J45</td><td>Asthma</td><td/><td/></tr><tr><td/><td>ICD-9-CM</td><td>493.92</td><td>Asthma, unspecified type, with (acute) exacerbation</td><td/><td/></tr><tr><td>Asthma Daytime Symptoms</td><td>SNOMED-CT</td><td>373899003</td><td><span/>Asthma daytime symptoms</td><td>05-01-2010 10:00:00</td><td>Active</td></tr><tr><td>Asthma Nighttime Symptoms</td><td>SNOMED-CT</td><td>395022009</td><td><span/>Asthma night-time symptoms</td><td>05-01-2010 10:00:00</td><td>Active</td></tr><tr><td>Asthma</td><td>SNOMED-CT</td><td>195979001</td><td><span/>Asthma unspecified</td><td>08-10-2010 10:00:00</td><td>Active</td></tr><tr><td/><td>ICD-10-CM</td><td>J45</td><td>Asthma</td><td/><td/></tr><tr><td/><td>ICD-9-CM</td><td>493.92</td><td>Asthma, unspecified type, with (acute) exacerbation</td><td/><td/></tr></tbody></table></div>"
        },
        "mode": "snapshot",
        "entry": [ {
          "reference": "Condition/7c560531-1e8c-416f-baac-598ed0d38013",
          "display": "Asthma unspecified"
        } ]
      }, {
        "title": "Procedures",
        "code": {
          "coding": [ {
            "system": "http://loinc.org",
            "code": "47519-4",
            "display": "HISTORY OF PROCEDURES"
          } ]
        },
        "text": {
          "status": "additional",
          "div": "<div xmlns=\"http://www.w3.org/1999/xhtml\"><table><thead><tr><th>Group Description</th><th>Code System</th><th>Code</th><th>Code Description</th><th>Date and Time</th><th>Status</th></tr></thead><tbody><tr><td>Counseling For Nutrition</td><td>CPT</td><td>97802</td><td><span/>Medical nutrition, indiv, in</td><td>05-01-2010 10:00:00</td><td>Performed</td></tr><tr><td/><td>HCPCS</td><td>S9470</td><td>Nutritional counseling, diet</td><td/><td/></tr><tr><td/><td>ICD-10-CM</td><td>Z00.8</td><td>Encounter for other general examination</td><td/><td/></tr><tr><td/><td>ICD-9-CM</td><td>V65.3</td><td>Dietary surveillance and counseling</td><td/><td/></tr><tr><td>Tobacco Use Cessation Counseling</td><td>CPT</td><td>99406</td><td><span/>Behav chng smoking 3-10 min</td><td>05-01-2010 10:00:00</td><td>Performed</td></tr><tr><td/><td>SNOMED-CT</td><td>384742004</td><td>Smoking cessation assistance</td><td/><td/></tr></tbody></table></div>"
        },
        "mode": "snapshot"
      } ]
    }
  }, {
    "resource": {
      "resourceType": "Patient",
      "id": "087826d9-1325-493e-a79c-5ce39ee5d9bb",
      "extension": [ {
        "url": "http://hl7.org/fhir/StructureDefinition/patient-religion",
        "valueCodeableConcept": {
          "coding": [ {
            "system": "urn:oid:2.16.840.1.113883.5.1076",
            "code": "1059",
            "display": "Zen Buddhism"
          } ]
        }
      }, {
        "url": "http://hl7.org/fhir/us/core/StructureDefinition/us-core-race",
        "extension": [ {
          "url": "text",
          "valueString": "Asian"
        }, {
          "url": "ombCategory",
          "valueCoding": {
            "system": "urn:oid:2.16.840.1.113883.6.238",
            "code": "2028-9",
            "display": "Asian"
          }
        } ]
      }, {
        "url": "http://hl7.org/fhir/us/core/StructureDefinition/us-core-ethnicity",
        "extension": [ {
          "url": "text",
          "valueString": "Not Hispanic or Latino"
        }, {
          "url": "ombCategory",
          "valueCoding": {
            "system": "urn:oid:2.16.840.1.113883.6.238",
            "code": "2186-5",
            "display": "Not Hispanic or Latino"
          }
        } ]
      }, {
        "url": "http://hl7.org/fhir/StructureDefinition/patient-birthPlace",
        "valueAddress": {
          "city": "Segno",
          "state": "TX",
          "postalCode": "77370",
          "country": "US"
        }
      } ],
      "identifier": [ {
        "use": "official",
        "system": "urn:oid:2.16.840.1.113883.19.5.99999.2",
        "value": "998991"
      }, {
        "use": "official",
        "system": "urn:oid:2.16.840.1.113883.4.1",
        "value": "111-00-2330"
      } ],
      "name": [ {
        "use": "usual",
        "family": "Washington",
        "given": [ "Mario" ]
      } ],
      "telecom": [ {
        "system": "phone",
        "value": "(940)537-6122",
        "use": "mobile"
      } ],
      "gender": "male",
      "birthDate": "1976-06-01",
      "address": [ {
        "use": "home",
        "line": [ "1266 Olen Thomas Drive" ],
        "city": "Kirkland",
        "state": "TX",
        "postalCode": "79238",
        "country": "US"
      } ],
      "maritalStatus": {
        "coding": [ {
          "system": "http://terminology.hl7.org/CodeSystem/v3-MaritalStatus",
          "code": "M",
          "display": "Married"
        } ]
      },
      "contact": [ {
        "relationship": [ {
          "coding": [ {
            "system": "http://terminology.hl7.org/CodeSystem/v2-0131",
            "code": "C",
            "display": "Emergency Contact"
          } ]
        } ],
        "name": {
          "family": "Leong",
          "given": [ "Albert" ],
          "prefix": [ "Mr." ]
        },
        "telecom": [ {
          "system": "phone",
          "value": "(916)681-0079",
          "use": "home"
        }, {
          "system": "email",
          "value": "AlbertALeong@fleckens.hu",
          "use": "work"
        } ],
        "address": {
          "use": "home",
          "line": [ "3635 Highland View Drive" ],
          "city": "Elk Grove",
          "state": "CA",
          "postalCode": "95624",
          "country": "US"
        }
      } ],
      "communication": [ {
        "language": {
          "coding": [ {
            "system": "urn:ietf:bcp:47",
            "code": "spa"
          } ]
        },
        "preferred": true
      } ],
      "managingOrganization": {
        "reference": "Organization/ab4bf483-79b8-4602-aca0-53461409051b",
        "display": "Community Health and Hospitals"
      }
    }
  }, {
    "resource": {
      "resourceType": "Organization",
      "id": "ab4bf483-79b8-4602-aca0-53461409051b",
      "identifier": [ {
        "use": "official",
        "value": "2.16.840.1.113883.4.6"
      } ],
      "name": "Community Health and Hospitals",
      "telecom": [ {
        "system": "phone",
        "value": " 555-555-5000",
        "use": "work"
      } ],
      "address": [ {
        "line": [ "1001 Village Avenue" ],
        "city": "Portland",
        "state": "OR",
        "postalCode": "99123",
        "country": "US"
      } ]
    }
  }, {
    "resource": {
      "resourceType": "Practitioner",
      "id": "1e02bb3a-9820-4f1c-a4e6-23ed75bbdf72",
      "identifier": [ {
        "use": "official",
        "system": "urn:oid:2.16.840.1.113883.4.6",
        "value": "99999999"
      } ],
      "name": [ {
        "family": "Seven",
        "given": [ "Henry" ],
        "suffix": [ "MD" ]
      } ],
      "telecom": [ {
        "system": "phone",
        "value": "555-555-1002",
        "use": "work"
      } ],
      "address": [ {
        "line": [ "1002 Healthcare Drive" ],
        "city": "Portland",
        "state": "OR",
        "postalCode": "99123",
        "country": "US"
      } ]
    }
  }, {
    "resource": {
      "resourceType": "Practitioner",
      "id": "80c2b6f4-419f-4271-8ab0-a4bdd7931ce2",
      "identifier": [ {
        "use": "official",
        "system": "http://hl7.org/fhir/sid/us-npi",
        "value": "999999999"
      } ],
      "name": [ {
        "family": "Seven",
        "given": [ "Henry" ]
      } ],
      "telecom": [ {
        "system": "phone",
        "value": "555-555-1002",
        "use": "work"
      } ],
      "address": [ {
        "line": [ "1001 Village Avenue" ],
        "city": "Portland",
        "state": "OR",
        "postalCode": "99123",
        "country": "US"
      } ]
    }
  }, {
    "resource": {
      "resourceType": "Practitioner",
      "id": "fc225298-f168-41b3-999d-00ebbddac0af",
      "identifier": [ {
        "use": "official",
        "system": "http://hl7.org/fhir/sid/us-npi",
        "value": "PseudoMD-1"
      } ],
      "name": [ {
        "family": "Seven",
        "given": [ "Henry" ],
        "suffix": [ "MD" ]
      } ],
      "telecom": [ {
        "system": "phone",
        "value": "+1-555-555-5000",
        "use": "home"
      } ],
      "address": [ {
        "line": [ "1001 Village Avenue" ],
        "city": "Portland",
        "state": "OR",
        "postalCode": "99123",
        "country": "US"
      } ]
    }
  }, {
    "resource": {
      "resourceType": "Organization",
      "id": "d9fbfc2d-8d6d-49ac-b617-0c0c800fe95f",
      "identifier": [ {
        "use": "official",
        "system": "urn:oid:2.16.840.1.113883.4.6",
        "value": "99999999"
      } ],
      "name": "Community Health and Hospitals",
      "telecom": [ {
        "system": "phone",
        "value": " 555-555-1002",
        "use": "work"
      } ],
      "address": [ {
        "use": "work",
        "line": [ "1002 Healthcare Drive" ],
        "city": "Portland",
        "state": "OR",
        "postalCode": "99123",
        "country": "US"
      } ]
    }
  }, {
    "resource": {
      "resourceType": "Observation",
      "id": "c8655e60-2dea-4ee3-9a0f-286c4bf896c1",
      "identifier": [ {
        "use": "official",
        "system": "urn:oid:2.16.840.1.113883.19",
        "value": "123456789"
      } ],
      "status": "final",
      "code": {
        "coding": [ {
          "system": "urn:oid:2.16.840.1.113883.5.4",
          "code": "ASSERTION"
        } ]
      },
      "subject": {
        "reference": "Patient/087826d9-1325-493e-a79c-5ce39ee5d9bb",
        "display": "Mario Washington"
      },
      "effectivePeriod": {
        "start": "2010-05-01T10:00:00+02:00"
      },
      "valueCodeableConcept": {
        "coding": [ {
          "system": "http://snomed.info/sct",
          "code": "266919005",
          "display": "Never smoker (Never Smoked)"
        }, {
          "system": "http://snomed.info/sct",
          "code": "449868002",
          "display": "Current every day smoker"
        } ]
      }
    }
  }, {
    "resource": {
      "resourceType": "MedicationStatement",
      "id": "fb12bc63-c1d3-46e7-87f1-b8e6745a6a5c",
      "extension": [ {
        "url": "http://hl7.org/fhir/3.0/StructureDefinition/extension-MedicationStatement.status",
        "valueCode": "UNKNOWN"
      } ],
      "identifier": [ {
        "use": "official",
        "value": "cdbd33f0-6cde-11db-9fe1-0800200c9a66"
      } ],
      "status": "completed",
      "medicationReference": {
        "reference": "Medication/c27f7bc5-f4b8-4507-be86-bb970300224a",
        "display": "Albuterol 0.417 MG/ML Inhalant Solution"
      },
      "subject": {
        "reference": "Patient/087826d9-1325-493e-a79c-5ce39ee5d9bb",
        "display": "Mario Washington"
      },
      "effectivePeriod": {
        "start": "2010-08-10T10:00:00+02:00"
      }
    }
  }, {
    "resource": {
      "resourceType": "Medication",
      "id": "c27f7bc5-f4b8-4507-be86-bb970300224a",
      "code": {
        "coding": [ {
          "system": "http://www.nlm.nih.gov/research/umls/rxnorm",
          "code": "351136",
          "display": "Albuterol 0.417 MG/ML Inhalant Solution"
        } ]
      }
    }
  }, {
    "resource": {
      "resourceType": "MedicationStatement",
      "id": "ec3558b6-89e0-4d2c-aace-29aff8db9c8f",
      "extension": [ {
        "url": "http://hl7.org/fhir/3.0/StructureDefinition/extension-MedicationStatement.status",
        "valueCode": "UNKNOWN"
      } ],
      "identifier": [ {
        "use": "official",
        "value": "cdbd33f0-6cde-11db-9fe1-0800200c9a66"
      } ],
      "status": "completed",
      "medicationReference": {
        "reference": "Medication/5e1181dc-749e-4e53-8d20-c8492b8bdca6",
        "display": "salmeterol 0.05 MG/ACTUAT Inhalant Powder"
      },
      "subject": {
        "reference": "Patient/087826d9-1325-493e-a79c-5ce39ee5d9bb",
        "display": "Mario Washington"
      },
      "effectivePeriod": {
        "start": "2010-05-01T10:00:00+02:00"
      }
    }
  }, {
    "resource": {
      "resourceType": "Medication",
      "id": "5e1181dc-749e-4e53-8d20-c8492b8bdca6",
      "code": {
        "coding": [ {
          "system": "http://www.nlm.nih.gov/research/umls/rxnorm",
          "code": "318142",
          "display": "salmeterol 0.05 MG/ACTUAT Inhalant Powder"
        } ]
      }
    }
  }, {
    "resource": {
      "resourceType": "MedicationStatement",
      "id": "3a70ce89-f41a-4900-be36-81f663637e52",
      "extension": [ {
        "url": "http://hl7.org/fhir/3.0/StructureDefinition/extension-MedicationStatement.status",
        "valueCode": "UNKNOWN"
      } ],
      "identifier": [ {
        "use": "official",
        "value": "cdbd33f0-6cde-11db-9fe1-0800200c9a66"
      } ],
      "status": "completed",
      "medicationReference": {
        "reference": "Medication/063f900a-43f7-40df-9812-ba80debc8125",
        "display": "24 HR Nicotine 0.313 MG/HR Transdermal Patch"
      },
      "subject": {
        "reference": "Patient/087826d9-1325-493e-a79c-5ce39ee5d9bb",
        "display": "Mario Washington"
      },
      "effectivePeriod": {
        "start": "2010-05-01T10:00:00+02:00"
      }
    }
  }, {
    "resource": {
      "resourceType": "Medication",
      "id": "063f900a-43f7-40df-9812-ba80debc8125",
      "code": {
        "coding": [ {
          "system": "http://www.nlm.nih.gov/research/umls/rxnorm",
          "code": "1046847",
          "display": "24 HR Nicotine 0.313 MG/HR Transdermal Patch"
        } ]
      }
    }
  }, {
    "resource": {
      "resourceType": "MedicationStatement",
      "id": "63ade3bd-3072-4261-aa9f-f7b63ab51042",
      "extension": [ {
        "url": "http://hl7.org/fhir/3.0/StructureDefinition/extension-MedicationStatement.status",
        "valueCode": "UNKNOWN"
      } ],
      "identifier": [ {
        "use": "official",
        "value": "cdbd33f0-6cde-11db-9fe1-0800200c9a66"
      } ],
      "status": "completed",
      "medicationReference": {
        "reference": "Medication/18ecfd19-558b-4591-a470-de3bad1c0eb2",
        "display": "Albuterol 0.83 MG/ML Inhalant Solution"
      },
      "subject": {
        "reference": "Patient/087826d9-1325-493e-a79c-5ce39ee5d9bb",
        "display": "Mario Washington"
      },
      "effectivePeriod": {
        "start": "2010-05-01T10:00:00+02:00"
      }
    }
  }, {
    "resource": {
      "resourceType": "Medication",
      "id": "18ecfd19-558b-4591-a470-de3bad1c0eb2",
      "code": {
        "coding": [ {
          "system": "http://www.nlm.nih.gov/research/umls/rxnorm",
          "code": "630208",
          "display": "Albuterol 0.83 MG/ML Inhalant Solution"
        } ]
      }
    }
  }, {
    "resource": {
      "resourceType": "AllergyIntolerance",
      "id": "184783c0-9753-450a-b62e-1a5b19d025f0",
      "identifier": [ {
        "use": "official",
        "value": "36e3e930-7b14-11db-9fe1-0800200c9a66"
      } ],
      "clinicalStatus": {
        "coding": [ {
          "system": "http://terminology.hl7.org/CodeSystem/allergyintolerance-clinical",
          "code": "active",
          "display": "Active"
        } ]
      },
      "verificationStatus": {
        "coding": [ {
          "system": "http://terminology.hl7.org/CodeSystem/allergyintolerance-verification",
          "code": "confirmed",
          "display": "Confirmed"
        } ]
      },
      "type": "allergy",
      "category": [ "medication" ],
      "code": {
        "coding": [ {
          "system": "urn:oid:2.16.840.1.113883.3.26.1.5",
          "code": "N0000006691",
          "display": "Codeine"
        } ],
        "text": "Codeine + Codeine"
      },
      "patient": {
        "reference": "Patient/087826d9-1325-493e-a79c-5ce39ee5d9bb",
        "display": "Mario Washington"
      },
      "recordedDate": "2010-05-01T10:00:00+02:00"
    }
  }, {
    "resource": {
      "resourceType": "AllergyIntolerance",
      "id": "0371e6b1-0e18-4d25-bcc5-59444654e787",
      "identifier": [ {
        "use": "official",
        "value": "36e3e930-7b14-11db-9fe1-0800200c9a66"
      } ],
      "clinicalStatus": {
        "coding": [ {
          "system": "http://terminology.hl7.org/CodeSystem/allergyintolerance-clinical",
          "code": "active",
          "display": "Active"
        } ]
      },
      "verificationStatus": {
        "coding": [ {
          "system": "http://terminology.hl7.org/CodeSystem/allergyintolerance-verification",
          "code": "confirmed",
          "display": "Confirmed"
        } ]
      },
      "type": "allergy",
      "category": [ "medication" ],
      "code": {
        "coding": [ {
          "system": "http://www.nlm.nih.gov/research/umls/rxnorm",
          "code": "905148",
          "display": "Amikacin Sulfate 50 MG/ML Injectable Solution"
        } ],
        "text": "Amikacin + Amikacin Sulfate 50 MG/ML Injectable Solution"
      },
      "patient": {
        "reference": "Patient/087826d9-1325-493e-a79c-5ce39ee5d9bb",
        "display": "Mario Washington"
      },
      "recordedDate": "2010-05-01T10:00:00+02:00"
    }
  }, {
    "resource": {
      "resourceType": "AllergyIntolerance",
      "id": "ade7e9db-0093-4ed5-8a34-f509fa068e4c",
      "identifier": [ {
        "use": "official",
        "value": "36e3e930-7b14-11db-9fe1-0800200c9a66"
      } ],
      "clinicalStatus": {
        "coding": [ {
          "system": "http://terminology.hl7.org/CodeSystem/allergyintolerance-clinical",
          "code": "active",
          "display": "Active"
        } ]
      },
      "verificationStatus": {
        "coding": [ {
          "system": "http://terminology.hl7.org/CodeSystem/allergyintolerance-verification",
          "code": "confirmed",
          "display": "Confirmed"
        } ]
      },
      "type": "allergy",
      "category": [ "food" ],
      "code": {
        "coding": [ {
          "system": "http://fdasis.nlm.nih.gov",
          "code": "291P45F896",
          "display": "Eggs"
        }, {
          "system": "urn:oid:2.16.840.1.113883.6.103",
          "code": "V15.03",
          "display": "Allergy to eggs"
        } ],
        "text": "Allergy to Eggs + Eggs"
      },
      "patient": {
        "reference": "Patient/087826d9-1325-493e-a79c-5ce39ee5d9bb",
        "display": "Mario Washington"
      },
      "recordedDate": "2010-05-01T10:00:00+02:00"
    }
  }, {
    "resource": {
      "resourceType": "Observation",
      "id": "e5089455-b4e9-4969-b926-5683db7e4cdf",
      "identifier": [ {
        "use": "official",
        "value": "c6f88321-67ad-11db-bd13-0800200c9a66"
      } ],
      "status": "final",
      "category": [ {
        "coding": [ {
          "system": "http://terminology.hl7.org/CodeSystem/observation-category",
          "code": "vital-signs",
          "display": "Vital Signs"
        } ]
      } ],
      "code": {
        "coding": [ {
          "system": "http://loinc.org",
          "code": "8462-4",
          "display": "BP Diastolic"
        } ]
      },
      "subject": {
        "reference": "Patient/087826d9-1325-493e-a79c-5ce39ee5d9bb",
        "display": "Mario Washington"
      },
      "effectivePeriod": {
        "start": "2010-08-10T10:00:00+02:00"
      },
      "valueQuantity": {
        "value": 72,
        "unit": "mm[Hg]",
        "system": "http://unitsofmeasure.org",
        "code": "mm[Hg]"
      }
    }
  }, {
    "resource": {
      "resourceType": "Observation",
      "id": "76c2babc-fdc5-482c-a97a-88fa74f97363",
      "identifier": [ {
        "use": "official",
        "value": "c6f88321-67ad-11db-bd13-0800200c9a66"
      } ],
      "status": "final",
      "category": [ {
        "coding": [ {
          "system": "http://terminology.hl7.org/CodeSystem/observation-category",
          "code": "vital-signs",
          "display": "Vital Signs"
        } ]
      } ],
      "code": {
        "coding": [ {
          "system": "http://loinc.org",
          "code": "8480-6",
          "display": "BP Systolic"
        } ]
      },
      "subject": {
        "reference": "Patient/087826d9-1325-493e-a79c-5ce39ee5d9bb",
        "display": "Mario Washington"
      },
      "effectivePeriod": {
        "start": "2010-08-10T10:00:00+02:00"
      },
      "valueQuantity": {
        "value": 110,
        "unit": "mm[Hg]",
        "system": "http://unitsofmeasure.org",
        "code": "mm[Hg]"
      }
    }
  }, {
    "resource": {
      "resourceType": "Observation",
      "id": "eebfd327-9adf-49e6-b96a-793253ca3f36",
      "identifier": [ {
        "use": "official",
        "value": "c6f88321-67ad-11db-bd13-0800200c9a66"
      } ],
      "status": "final",
      "category": [ {
        "coding": [ {
          "system": "http://terminology.hl7.org/CodeSystem/observation-category",
          "code": "vital-signs",
          "display": "Vital Signs"
        } ]
      } ],
      "code": {
        "coding": [ {
          "system": "http://loinc.org",
          "code": "39156-5",
          "display": "BMI"
        } ]
      },
      "subject": {
        "reference": "Patient/087826d9-1325-493e-a79c-5ce39ee5d9bb",
        "display": "Mario Washington"
      },
      "effectivePeriod": {
        "start": "2010-05-01T10:00:00+02:00"
      },
      "valueQuantity": {
        "value": 24.9,
        "unit": "kg/m2",
        "system": "http://unitsofmeasure.org",
        "code": "kg/m2"
      }
    }
  }, {
    "resource": {
      "resourceType": "Observation",
      "id": "b542ae43-a585-40a4-a181-afcf2ca71262",
      "identifier": [ {
        "use": "official",
        "value": "c6f88321-67ad-11db-bd13-0800200c9a66"
      } ],
      "status": "final",
      "category": [ {
        "coding": [ {
          "system": "http://terminology.hl7.org/CodeSystem/observation-category",
          "code": "vital-signs",
          "display": "Vital Signs"
        } ]
      } ],
      "code": {
        "coding": [ {
          "system": "http://loinc.org",
          "code": "8480-6",
          "display": "BP Systolic"
        } ]
      },
      "subject": {
        "reference": "Patient/087826d9-1325-493e-a79c-5ce39ee5d9bb",
        "display": "Mario Washington"
      },
      "effectivePeriod": {
        "start": "2010-05-01T10:00:00+02:00"
      },
      "valueQuantity": {
        "value": 112,
        "unit": "mm[Hg]",
        "system": "http://unitsofmeasure.org",
        "code": "mm[Hg]"
      }
    }
  }, {
    "resource": {
      "resourceType": "Observation",
      "id": "1b9312ae-0fff-47f2-a32c-266151c2b7b2",
      "identifier": [ {
        "use": "official",
        "value": "c6f88321-67ad-11db-bd13-0800200c9a66"
      } ],
      "status": "final",
      "category": [ {
        "coding": [ {
          "system": "http://terminology.hl7.org/CodeSystem/observation-category",
          "code": "vital-signs",
          "display": "Vital Signs"
        } ]
      } ],
      "code": {
        "coding": [ {
          "system": "http://loinc.org",
          "code": "8462-4",
          "display": "BP Diastolic"
        } ]
      },
      "subject": {
        "reference": "Patient/087826d9-1325-493e-a79c-5ce39ee5d9bb",
        "display": "Mario Washington"
      },
      "effectivePeriod": {
        "start": "2010-05-01T10:00:00+02:00"
      },
      "valueQuantity": {
        "value": 74,
        "unit": "mm[Hg]",
        "system": "http://unitsofmeasure.org",
        "code": "mm[Hg]"
      }
    }
  }, {
    "resource": {
      "resourceType": "Encounter",
      "id": "5a9a6795-8f84-4d8e-93a2-8956528c65bd",
      "identifier": [ {
        "use": "official",
        "value": "2a620155-9d11-439e-92b3-5d9815ff4de8"
      } ],
      "status": "finished",
      "type": [ {
        "coding": [ {
          "system": "http://www.ama-assn.org/go/cpt",
          "code": "99241",
          "display": "Office consultation"
        } ]
      } ],
      "subject": {
        "reference": "Patient/087826d9-1325-493e-a79c-5ce39ee5d9bb",
        "display": "Mario Washington"
      },
      "period": {
        "start": "2010-05-01T10:00:00+02:00"
      },
      "reasonCode": [ {
        "coding": [ {
          "system": "http://snomed.info/sct",
          "code": "195979001",
          "display": "Asthma"
        } ]
      }, {
        "coding": [ {
          "system": "http://snomed.info/sct",
          "code": "373899003",
          "display": "Asthma Daytime Symptoms"
        } ]
      }, {
        "coding": [ {
          "system": "http://snomed.info/sct",
          "code": "395022009",
          "display": "Asthma Nighttime Symptoms"
        } ]
      } ],
      "reasonReference": [ {
        "reference": "Condition/cd3d6a68-f5ad-4b3a-a8ce-cd38f7354e0d",
        "display": "Asthma"
      }, {
        "reference": "Condition/950fa28f-47ec-4d9f-957b-87239780e05c",
        "display": "Asthma Daytime Symptoms"
      }, {
        "reference": "Condition/ab07287c-58e1-4738-ac02-894b74325951",
        "display": "Asthma Nighttime Symptoms"
      } ]
    }
  }, {
    "resource": {
      "resourceType": "Condition",
      "id": "cd3d6a68-f5ad-4b3a-a8ce-cd38f7354e0d",
      "identifier": [ {
        "use": "official",
        "system": "urn:uuid:db734647-fc99-424c-a864-7e3cda82e703",
        "value": "45665"
      } ],
      "clinicalStatus": {
        "coding": [ {
          "system": "http://terminology.hl7.org/CodeSystem/condition-clinical",
          "code": "active",
          "display": "Active"
        } ]
      },
      "category": [ {
        "coding": [ {
          "system": "http://hl7.org/fhir/condition-category",
          "code": "encounter-diagnosis",
          "display": "Encounter Diagnosis"
        } ]
      } ],
      "code": {
        "coding": [ {
          "system": "http://snomed.info/sct",
          "code": "195979001",
          "display": "Asthma"
        }, {
          "system": "urn:oid:2.16.840.1.113883.6.90",
          "code": "J45",
          "display": "Asthma"
        }, {
          "system": "urn:oid:2.16.840.1.113883.6.103",
          "code": "493.92",
          "display": "Asthma, unspecified type, with (acute) exacerbation"
        } ]
      },
      "subject": {
        "reference": "Patient/087826d9-1325-493e-a79c-5ce39ee5d9bb",
        "display": "Mario Washington"
      },
      "onsetDateTime": "2010-05-01T10:00:00+02:00"
    }
  }, {
    "resource": {
      "resourceType": "Condition",
      "id": "950fa28f-47ec-4d9f-957b-87239780e05c",
      "identifier": [ {
        "use": "official",
        "system": "urn:uuid:db734647-fc99-424c-a864-7e3cda82e703",
        "value": "45665"
      } ],
      "clinicalStatus": {
        "coding": [ {
          "system": "http://terminology.hl7.org/CodeSystem/condition-clinical",
          "code": "active",
          "display": "Active"
        } ]
      },
      "category": [ {
        "coding": [ {
          "system": "http://hl7.org/fhir/condition-category",
          "code": "encounter-diagnosis",
          "display": "Encounter Diagnosis"
        } ]
      } ],
      "code": {
        "coding": [ {
          "system": "http://snomed.info/sct",
          "code": "373899003",
          "display": "Asthma Daytime Symptoms"
        } ]
      },
      "subject": {
        "reference": "Patient/087826d9-1325-493e-a79c-5ce39ee5d9bb",
        "display": "Mario Washington"
      },
      "onsetDateTime": "2010-05-01T10:00:00+02:00"
    }
  }, {
    "resource": {
      "resourceType": "Condition",
      "id": "ab07287c-58e1-4738-ac02-894b74325951",
      "identifier": [ {
        "use": "official",
        "system": "urn:uuid:db734647-fc99-424c-a864-7e3cda82e703",
        "value": "45665"
      } ],
      "clinicalStatus": {
        "coding": [ {
          "system": "http://terminology.hl7.org/CodeSystem/condition-clinical",
          "code": "active",
          "display": "Active"
        } ]
      },
      "category": [ {
        "coding": [ {
          "system": "http://hl7.org/fhir/condition-category",
          "code": "encounter-diagnosis",
          "display": "Encounter Diagnosis"
        } ]
      } ],
      "code": {
        "coding": [ {
          "system": "http://snomed.info/sct",
          "code": "395022009",
          "display": "Asthma Nighttime Symptoms"
        } ]
      },
      "subject": {
        "reference": "Patient/087826d9-1325-493e-a79c-5ce39ee5d9bb",
        "display": "Mario Washington"
      },
      "onsetDateTime": "2010-05-01T10:00:00+02:00"
    }
  }, {
    "resource": {
      "resourceType": "Encounter",
      "id": "fdc32a0c-48c3-4a3d-b2f5-367b16bd5192",
      "identifier": [ {
        "use": "official",
        "value": "2a620155-9d11-439e-92b3-5d9815ff4de8"
      } ],
      "status": "finished",
      "type": [ {
        "coding": [ {
          "system": "http://www.ama-assn.org/go/cpt",
          "code": "99241",
          "display": "Office consultation"
        } ]
      } ],
      "subject": {
        "reference": "Patient/087826d9-1325-493e-a79c-5ce39ee5d9bb",
        "display": "Mario Washington"
      },
      "period": {
        "start": "2010-08-10T10:00:00+02:00"
      },
      "reasonCode": [ {
        "coding": [ {
          "system": "http://snomed.info/sct",
          "code": "195979001",
          "display": "Asthma"
        } ]
      } ],
      "reasonReference": [ {
        "reference": "Condition/ab07287c-58e1-4738-ac02-894b74325951",
        "display": "Asthma Nighttime Symptoms"
      } ]
    }
  }, {
    "resource": {
      "resourceType": "Encounter",
      "id": "6390c87d-ea08-4bcb-ad97-59bca9aa04d3",
      "identifier": [ {
        "use": "official",
        "value": "2a620155-9d11-439e-92b3-5d9815ff4de8"
      } ],
      "status": "finished",
      "type": [ {
        "coding": [ {
          "system": "http://www.ama-assn.org/go/cpt",
          "code": "98940",
          "display": "Chiropractic manipulation"
        } ]
      } ],
      "subject": {
        "reference": "Patient/087826d9-1325-493e-a79c-5ce39ee5d9bb",
        "display": "Mario Washington"
      },
      "period": {
        "start": "2010-10-13T10:00:00+02:00"
      }
    }
  }, {
    "resource": {
      "resourceType": "Condition",
      "id": "7c560531-1e8c-416f-baac-598ed0d38013",
      "identifier": [ {
        "use": "official",
        "value": "9d3d416d-45ab-4da1-912f-4583e0632000"
      } ],
      "clinicalStatus": {
        "coding": [ {
          "system": "http://terminology.hl7.org/CodeSystem/condition-clinical",
          "code": "active",
          "display": "Active"
        } ]
      },
      "verificationStatus": {
        "coding": [ {
          "system": "http://terminology.hl7.org/CodeSystem/condition-ver-status",
          "code": "confirmed",
          "display": "Confirmed"
        } ]
      },
      "category": [ {
        "coding": [ {
          "system": "http://terminology.hl7.org/CodeSystem/condition-category",
          "code": "problem-list-item",
          "display": "Problem List Item"
        } ]
      } ],
      "code": {
        "coding": [ {
          "system": "http://snomed.info/sct",
          "code": "195979001",
          "display": "Asthma unspecified"
        }, {
          "system": "urn:oid:2.16.840.1.113883.6.90",
          "code": "J45",
          "display": "Asthma"
        }, {
          "system": "urn:oid:2.16.840.1.113883.6.103",
          "code": "493.92",
          "display": "Asthma, unspecified type, with (acute) exacerbation"
        } ]
      },
      "subject": {
        "reference": "Patient/087826d9-1325-493e-a79c-5ce39ee5d9bb",
        "display": "Mario Washington"
      },
      "onsetDateTime": "2010-05-01T10:00:00+02:00"
    }
  } ]
}