{
  "resourceType": "Bundle",
  "entry": [ {
    "resource": {
      "resourceType": "Composition",
      "id": "af52a3ea-bbe4-4dec-8e87-eb319d6e282e",
      "identifier": {
        "use": "official",
        "value": "db734647-fc99-424c-a864-7e3cda82e703"
      },
      "status": "preliminary",
      "type": {
        "coding": [ {
          "system": "http://loinc.org",
          "code": "34133-9",
          "display": "Summarization of Episode Note"
        } ]
      },
      "category": [ {
        "coding": [ {
          "system": "http://hl7.org/fhir/ValueSet/doc-classcodes",
          "code": "LP173421-7",
          "display": "Note"
        } ]
      } ],
      "subject": {
        "reference": "Patient/7d7b34e7-d849-4c6f-8335-0fc8d92ae30c",
        "display": "Rodney Reynolds"
      },
      "date": "2014-04-16T11:55:10+02:00",
      "author": [ {
        "reference": "Practitioner/c88ef6ed-9570-4d73-8426-ce41cc6acc67",
        "display": "Henry Seven MD"
      } ],
      "title": "Community Health and Hospitals: Health Summary",
      "confidentiality": "N",
      "attester": [ {
        "mode": "legal",
        "time": "2013-04-18T09:00:00+05:00",
        "party": {
          "reference": "Practitioner/8b6caef3-8b1a-4d62-8b74-fcca968d0de7",
          "display": "Henry Seven"
        }
      }, {
        "mode": "professional",
        "time": "2014-04-16T11:55:10+02:00",
        "party": {
          "reference": "Practitioner/8b6caef3-8b1a-4d62-8b74-fcca968d0de7",
          "display": "Henry Seven"
        }
      } ],
      "custodian": {
        "reference": "Organization/a668b033-bfa5-4d92-87dd-c8d21ee58889",
        "display": "Community Health and Hospitals"
      },
      "event": [ {
        "period": {
          "start": "1984-06-05T10:00:00+02:00",
          "end": "2010-06-27T10:00:00+02:00"
        },
        "detail": [ {
          "reference": "Practitioner/215a5764-0a77-4647-88eb-32c6e906567b",
          "display": "Henry Seven MD"
        } ]
      } ],
      "section": [ {
        "title": "Results",
        "code": {
          "coding": [ {
            "system": "http://loinc.org",
            "code": "30954-2",
            "display": "Results"
          } ]
        },
        "text": {
          "status": "additional",
          "div": "<div xmlns=\"http://www.w3.org/1999/xhtml\"><table><thead><tr><th>Group Description</th><th>Code System</th><th>Code</th><th>Code Description</th><th>Value</th><th>Unit</th><th>Reference Range</th><th>Date and Time</th><th>Status</th></tr></thead><tbody><tr><td>FOBT</td><td>LOINC</td><td>2335-8</td><td><span/>Hemoccult Stl Ql</td><td>negative</td><td/><td>NA</td><td>05-07-2010 10:00:00</td><td>Completed</td></tr><tr><td/><td>CPT</td><td>82274</td><td>Assay test for blood, fecal</td><td/><td/><td/><td/><td/></tr><tr><td/><td>HCPCS</td><td>G0328</td><td>Fecal blood scrn immunoassay</td><td/><td/><td/><td/><td/></tr><tr><td/><td>ICD-9-CM</td><td>V76.51</td><td>Special screening for malignant neoplasms of colon</td><td/><td/><td/><td/><td/></tr><tr><td/><td>SNOMED-CT</td><td>252156002</td><td>Occult blood screening</td><td/><td/><td/><td/><td/></tr><tr><td>HbA1c test</td><td>LOINC</td><td>4548-4</td><td><span/>Hgb A1c MFr Bld</td><td>6.3</td><td>%</td><td>4-5.6%</td><td>05-08-2010 10:00:00</td><td>Completed</td></tr><tr><td/><td>CPT</td><td>83036</td><td>Glycated hemoglobin test</td><td/><td/><td/><td/><td/></tr><tr><td/><td>SNOMED-CT</td><td>43396009</td><td>Hemoglobin A1c measurement</td><td/><td/><td/><td/><td/></tr><tr><td>High Density Lipoprotein (HDL)</td><td>LOINC</td><td>14646-4</td><td><span/>HDLc SerPl-sCnc</td><td>49</td><td>mg/dL</td><td>&amp;gt;=40 mg/dL</td><td>05-08-2010 10:00:00</td><td>Completed</td></tr><tr><td/><td>CPT</td><td>83701</td><td>Lipoprotein bld, hr fraction</td><td/><td/><td/><td/><td/></tr><tr><td/><td>SNOMED-CT</td><td>28036006</td><td>High density lipoprotein cholesterol measurement</td><td/><td/><td/><td/><td/></tr><tr><td>Low Density Lipoprotein (LDL)</td><td>LOINC</td><td>2089-1</td><td><span/>LDLc SerPl-mCnc</td><td>83.2</td><td>mg/dL</td><td>&amp;lt;130 mg/dL (calc)</td><td>05-08-2010 10:00:00</td><td>Completed</td></tr><tr><td/><td>CPT</td><td>83721</td><td>Assay of blood lipoprotein</td><td/><td/><td/><td/><td/></tr><tr><td/><td>SNOMED-CT</td><td>113079009</td><td>Low density lipoprotein cholesterol measurement</td><td/><td/><td/><td/><td/></tr><tr><td>Prostate Specific Antigen Test</td><td>LOINC</td><td>19195-7</td><td><span/>PSA SerPl-aCnc</td><td>1</td><td>ng/mL</td><td>&amp;lt;2.5 ng/mL</td><td>05-08-2010 10:00:00</td><td>Completed</td></tr><tr><td/><td>CPT</td><td>84153</td><td>Assay of psa, total</td><td/><td/><td/><td/><td/></tr><tr><td/><td>SNOMED-CT</td><td>63476009</td><td>Prostate specific antigen measurement</td><td/><td/><td/><td/><td/></tr><tr><td>Total Cholesterol</td><td>LOINC</td><td>2093-3</td><td><span/>Cholest SerPl-mCnc</td><td>156</td><td>mg/dL</td><td>125-200 mg/dL</td><td>05-08-2010 10:00:00</td><td>Completed</td></tr><tr><td/><td>CPT</td><td>82465</td><td>Assay, bld/serum cholesterol</td><td/><td/><td/><td/><td/></tr><tr><td/><td>SNOMED-CT</td><td>121868005</td><td>Total cholesterol measurement</td><td/><td/><td/><td/><td/></tr><tr><td>Triglycerides</td><td>LOINC</td><td>12951-0</td><td><span/>Trigl SerPl Calc-mCnc</td><td>119</td><td>mg/dL</td><td>10-39 years: 55-110 mg/dL | 40-59 years: 70-150 mg/dL | &amp;gt;60 years: 80-150 mg/dL | Therapeutic Target: &amp;lt;100 mg/dL </td><td>05-08-2010 10:00:00</td><td>Completed</td></tr><tr><td/><td>CPT</td><td>84478</td><td>Assay of triglycerides</td><td/><td/><td/><td/><td/></tr><tr><td/><td>SNOMED-CT</td><td>14740000</td><td>Triglycerides measurement</td><td/><td/><td/><td/><td/></tr></tbody></table></div>"
        },
        "mode": "snapshot",
        "entry": [ {
          "reference": "DiagnosticReport/69dc8d64-3b0f-43d1-bcc8-3a2ba406dcc0",
          "display": "Lipid Panel"
        }, {
          "reference": "DiagnosticReport/4eaf839b-ae5a-4aad-b1b3-4b5892d5a555",
          "display": "FOBT"
        }, {
          "reference": "DiagnosticReport/d5a5a4e8-9447-493e-85a0-4a42dbfb3fbb",
          "display": "Lipid Panel"
        }, {
          "reference": "DiagnosticReport/122c74dc-a26d-4b46-9c5c-717d070dde16",
          "display": "Blood Chemistry"
        }, {
          "reference": "DiagnosticReport/9490d6c8-b0d8-4e09-861b-7cb2f40a132c",
          "display": "Blood Chemistry"
        } ]
      }, {
        "title": "Problems",
        "code": {
          "coding": [ {
            "system": "http://loinc.org",
            "code": "11450-4",
            "display": "PROBLEM LIST"
          } ]
        },
        "text": {
          "status": "additional",
          "div": "<div xmlns=\"http://www.w3.org/1999/xhtml\"><table><thead><tr><th>Group Description</th><th>Code System</th><th>Code</th><th>Code Description</th><th>Date and Time</th><th>Status</th></tr></thead><tbody><tr><td>COPD</td><td>SNOMED-CT</td><td>13645005</td><td><span/>Chronic obstructive lung disease</td><td>05-07-2010 10:00:00</td><td>Active</td></tr><tr><td/><td>ICD-10-CM</td><td>J44</td><td>Other chronic obstructive pulmonary disease</td><td/><td/></tr><tr><td/><td>ICD-9-CM</td><td>493.20</td><td>Chronic obstructive asthma, unspecified</td><td/><td/></tr><tr><td>Diabetes</td><td>SNOMED-CT</td><td>44054006</td><td><span/>Diabetes mellitus type 2</td><td>05-07-2010 10:00:00</td><td>Active</td></tr><tr><td/><td>ICD-10-CM</td><td>E11.9</td><td>Type 2 diabetes mellitus without complications</td><td/><td/></tr><tr><td/><td>ICD-9-CM</td><td>250.00</td><td>Diabetes mellitus without mention of complication, type II or unspecified type, not stated as uncontrolled</td><td/><td/></tr><tr><td>Hypertension</td><td>SNOMED-CT</td><td>59621000</td><td><span/>Essential hypertension</td><td>05-07-2010 10:00:00</td><td>Active</td></tr><tr><td/><td>ICD-10-CM</td><td>I10</td><td>Essential (primary) hypertension</td><td/><td/></tr><tr><td/><td>ICD-9-CM</td><td>401.9</td><td>Unspecified essential hypertension</td><td/><td/></tr><tr><td>Colon Ca metastasis</td><td>SNOMED-CT</td><td>94222008</td><td><span/>Secondary malignant neoplasm of bone</td><td>05-15-2010 10:00:00</td><td>Active</td></tr><tr><td/><td>ICD-10-CM</td><td>C78.7</td><td>Secondary malignant neoplasm of liver and intrahepatic bile duct</td><td/><td/></tr><tr><td/><td>ICD-9-CM</td><td>197.7</td><td>Malignant neoplasm of liver, secondary</td><td/><td/></tr><tr><td>Colon Cancer</td><td>SNOMED-CT</td><td>126838000</td><td><span/>Neoplasm of colon</td><td>05-15-2010 10:00:00</td><td>Active</td></tr><tr><td/><td>ICD-10-CM</td><td>C18.9</td><td>Malignant neoplasm of colon, unspecified</td><td/><td/></tr><tr><td/><td>ICD-9-CM</td><td>153.9</td><td>Malignant neoplasm of colon, unspecified site</td><td/><td/></tr></tbody></table></div>"
        },
        "mode": "snapshot",
        "entry": [ {
          "reference": "Condition/4906b11d-4f5d-47e0-99df-4b88a743abfe",
          "display": "Chronic obstructive lung disease"
        } ]
      }, {
        "title": "Encounters",
        "code": {
          "coding": [ {
            "system": "http://loinc.org",
            "code": "46240-8",
            "display": "History of encounters"
          } ]
        },
        "text": {
          "status": "additional",
          "div": "<div xmlns=\"http://www.w3.org/1999/xhtml\"><table><thead><tr><th>Group Description</th><th>Code System</th><th>Code</th><th>Code Description</th><th>Date and Time</th><th>Status</th></tr></thead><tbody><tr><td>Encounter Office Visit</td><td>CPT</td><td>99212</td><td><span/>Office/outpatient visit, est</td><td>05-07-2010 10:00:00</td><td>Performed</td></tr><tr><td>Encounter Outpatient</td><td>CPT</td><td>99213</td><td><span/>Office/outpatient visit, est</td><td>05-10-2010 10:00:00</td><td>Performed</td></tr><tr><td/><td>ICD-9-CM</td><td>V70.0</td><td>Routine general medical examination at a health care facility</td><td/><td/></tr><tr><td>Encounter Office Visit</td><td>CPT</td><td>99212</td><td><span/>Office/outpatient visit, est</td><td>05-15-2010 10:00:00</td><td>Performed</td></tr><tr><td>Encounter Acute Inpt</td><td>CPT</td><td>99251</td><td><span/>Initial inpatient consult</td><td>05-16-2010 10:00:00</td><td>Performed</td></tr><tr><td>Encounter Office Visit</td><td>CPT</td><td>99212</td><td><span/>Office/outpatient visit, est</td><td>06-27-2010 10:00:00</td><td>Performed</td></tr></tbody></table></div>"
        },
        "mode": "snapshot",
        "entry": [ {
          "reference": "Encounter/8f05e070-52e6-4bfc-ad3c-e52d78c5afce",
          "display": "Office/outpatient visit, est"
        }, {
          "reference": "Encounter/bad69626-3f28-4c0c-84ba-aa6a405b59be",
          "display": "Office/outpatient visit, est"
        }, {
          "reference": "Encounter/181fb181-e031-4782-b887-b050b729a24e",
          "display": "Initial inpatient consult"
        }, {
          "reference": "Encounter/94976895-fd0d-4334-b929-ae769c0fc713",
          "display": "Office/outpatient visit, est"
        }, {
          "reference": "Encounter/92f667f6-a603-40e4-8e0e-85d0499f08b7",
          "display": "Office/outpatient visit, est"
        } ]
      }, {
        "title": "Allergies,  Adverse Reactions & Alerts",
        "code": {
          "coding": [ {
            "system": "http://loinc.org",
            "code": "48765-2",
            "display": "Allergies, adverse reactions, alerts"
          } ]
        },
        "text": {
          "status": "additional",
          "div": "<div xmlns=\"http://www.w3.org/1999/xhtml\"><table><thead><tr><th>Group Description</th><th>Code System</th><th>Code</th><th>Code Description</th><th>Severity</th><th>Susceptibility</th><th>Date and Time</th><th>Status</th></tr></thead><tbody><tr><td>Allergy to Eggs</td><td>UNII</td><td>291P45F896</td><td><span/>Eggs</td><td><span/>Fatal</td><td>Moderately Susceptible</td><td>06-05-1984 10:00:00</td><td>Active</td></tr><tr><td/><td>ICD-9-CM</td><td>V15.03</td><td>Allergy to eggs</td><td/><td/><td/><td/></tr><tr><td>Penicillin V</td><td>NDF-RT</td><td>N0000011298</td><td><span/>Penicillin V</td><td><span/>Moderate to severe</td><td>Susceptible</td><td>06-05-1984 10:00:00</td><td>Active</td></tr></tbody></table></div>"
        },
        "mode": "snapshot",
        "entry": [ {
          "reference": "AllergyIntolerance/c52c72d7-1164-4194-b5c8-9eae746e4007",
          "display": "Penicillin V + Penicillin V"
        }, {
          "reference": "AllergyIntolerance/2239a1ac-3de7-4a97-a4ff-546035d4d10f",
          "display": "Allergy to Eggs + Eggs"
        } ]
      }, {
        "title": "Medications",
        "code": {
          "coding": [ {
            "system": "http://loinc.org",
            "code": "10160-0",
            "display": "History of Medication Use"
          } ]
        },
        "text": {
          "status": "additional",
          "div": "<div xmlns=\"http://www.w3.org/1999/xhtml\"><table><thead><tr><th>Group Description</th><th>Code System</th><th>Code</th><th>Code Description</th><th>Date and Time</th><th>Status</th></tr></thead><tbody><tr><td>Antihypertensive combinations</td><td>RxNorm</td><td>858828</td><td><span/>Enalapril Maleate 10 MG / Hydrochlorothiazide 25 MG Oral Tablet</td><td>05-07-2010 10:00:00</td><td>Active</td></tr><tr><td>Insulin</td><td>RxNorm</td><td>847207</td><td><span/>3 ML Insulin Lispro 100 UNT/ML Prefilled Syringe</td><td>05-07-2010 10:00:00</td><td>Active</td></tr><tr><td>Smoking Cessation Agents</td><td>RxNorm</td><td>1046847</td><td><span/>24 HR Nicotine 0.313 MG/HR Transdermal Patch</td><td>05-07-2010 10:00:00</td><td>Active</td></tr><tr><td>Chemotherapeutics</td><td>RxNorm</td><td>197862</td><td><span/>Leucovorin 25 MG Oral Tablet</td><td>05-15-2010 10:00:00</td><td>Active</td></tr></tbody></table></div>"
        },
        "mode": "snapshot",
        "entry": [ {
          "reference": "MedicationStatement/04a2b879-a681-46c5-95a4-fc7d82fb2e11",
          "display": "24 HR Nicotine 0.313 MG/HR Transdermal Patch"
        }, {
          "reference": "MedicationStatement/6d187526-1dca-4341-bcfa-0b108d13f3fb",
          "display": "Leucovorin 25 MG Oral Tablet"
        }, {
          "reference": "MedicationStatement/dbca4840-f79e-4e0a-b59d-e29be86fae0e",
          "display": "3 ML Insulin Lispro 100 UNT/ML Prefilled Syringe"
        }, {
          "reference": "MedicationStatement/06b4fc0a-7e60-4524-836d-2211142b3090",
          "display": "Enalapril Maleate 10 MG / Hydrochlorothiazide 25 MG Oral Tablet"
        } ]
      }, {
        "title": "Procedures",
        "code": {
          "coding": [ {
            "system": "http://loinc.org",
            "code": "47519-4",
            "display": "HISTORY OF PROCEDURES"
          } ]
        },
        "text": {
          "status": "additional",
          "div": "<div xmlns=\"http://www.w3.org/1999/xhtml\"><table><thead><tr><th>Group Description</th><th>Code System</th><th>Code</th><th>Code Description</th><th>Date and Time</th><th>Status</th></tr></thead><tbody><tr><td>X-ray Study</td><td>CPT</td><td>76499</td><td><span/>Radiographic procedure</td><td>06-02-1997 10:00:00</td><td>Performed</td></tr><tr><td/><td>SNOMED-CT</td><td>363680008</td><td>Radiographic imaging procedure (procedure)</td><td/><td/></tr><tr><td>X-ray Study</td><td>CPT</td><td>76499</td><td><span/>Radiographic procedure</td><td>05-06-2010 10:00:00</td><td>Performed</td></tr><tr><td/><td>SNOMED-CT</td><td>363680008</td><td>Radiographic imaging procedure (procedure)</td><td/><td/></tr><tr><td>Counseling For Nutrition</td><td>CPT</td><td>97802</td><td><span/>Medical nutrition, indiv, in</td><td>05-07-2010 10:00:00</td><td>Performed</td></tr><tr><td/><td>HCPCS</td><td>S9470</td><td>Nutritional counseling, diet</td><td/><td/></tr><tr><td/><td>ICD-10-CM</td><td>Z00.8</td><td>Encounter for other general examination</td><td/><td/></tr><tr><td/><td>ICD-9-CM</td><td>V65.3</td><td>Dietary surveillance and counseling</td><td/><td/></tr><tr><td>Counseling For Physical Activity</td><td>HCPCS</td><td>S9451</td><td><span/>Exercise class</td><td>05-07-2010 10:00:00</td><td>Performed</td></tr><tr><td/><td>ICD-10-CM</td><td>Z71.3</td><td>Dietary counseling and surveillance</td><td/><td/></tr><tr><td/><td>ICD-9-CM</td><td>V65.41</td><td>Exercise counseling</td><td/><td/></tr><tr><td>Foot Exam</td><td>SNOMED-CT</td><td>401191002</td><td><span/>Diabetic foot examination</td><td>05-07-2010 10:00:00</td><td>Performed</td></tr><tr><td>Tobacco Use Cessation Counseling</td><td>CPT</td><td>99406</td><td><span/>Behav chng smoking 3-10 min</td><td>05-07-2010 10:00:00</td><td>Performed</td></tr><tr><td/><td>SNOMED-CT</td><td>384742004</td><td>Smoking cessation assistance</td><td/><td/></tr><tr><td>Colonoscopy</td><td>CPT</td><td>45378</td><td><span/>Diagnostic colonoscopy</td><td>05-10-2010 10:00:00</td><td>Performed</td></tr><tr><td/><td>HCPCS</td><td>G0121</td><td>Colon ca scrn not hi rsk ind</td><td/><td/></tr><tr><td/><td>ICD-10-CM</td><td>Z12.11</td><td>Encounter for screening for malignant neoplasm of colon</td><td/><td/></tr><tr><td/><td>ICD-9-CM</td><td>45.23</td><td>Colonoscopy</td><td/><td/></tr><tr><td/><td>SNOMED-CT</td><td>174184006</td><td>Diagnostic endoscopic examination on colon</td><td/><td/></tr></tbody></table></div>"
        },
        "mode": "snapshot"
      }, {
        "title": "Social History",
        "code": {
          "coding": [ {
            "system": "http://loinc.org",
            "code": "29762-2",
            "display": "Social History"
          } ]
        },
        "text": {
          "status": "additional",
          "div": "<div xmlns=\"http://www.w3.org/1999/xhtml\"><table><thead><tr><th>Group Description</th><th>Code System</th><th>Code</th><th>Code Description</th><th>Date and Time</th><th>Status</th></tr></thead><tbody><tr><td>Tobacco Use</td><td>SNOMED-CT</td><td>266919005</td><td><span/>Never smoker (Never Smoked)</td><td>05-07-2010 10:00:00</td><td>Active</td></tr><tr><td/><td>SNOMED-CT</td><td>449868002</td><td>Current every day smoker</td><td/><td/></tr></tbody></table></div>"
        },
        "mode": "snapshot",
        "entry": [ {
          "reference": "Observation/fc16a5c8-5dc7-4159-904a-3fca8f8a2cd6"
        } ]
      }, {
        "title": "Vital Signs",
        "code": {
          "coding": [ {
            "system": "http://loinc.org",
            "code": "8716-3",
            "display": "Vital Signs"
          } ]
        },
        "text": {
          "status": "additional",
          "div": "<div xmlns=\"http://www.w3.org/1999/xhtml\"><table><thead><tr><th>Group Description</th><th>Code System</th><th>Code</th><th>Code Description</th><th>Value</th><th>Unit</th><th>Date and Time</th><th>Status</th></tr></thead><tbody><tr><td>BMI</td><td>LOINC</td><td>39156-5</td><td><span/>BMI</td><td>29.1</td><td>kg/m2</td><td>05-07-2010 10:00:00</td><td>Finding</td></tr><tr><td>Diastolic Blood Pressure</td><td>LOINC</td><td>8462-4</td><td><span/>BP Diastolic</td><td>82</td><td>mm[Hg]</td><td>05-07-2010 10:00:00</td><td>Finding</td></tr><tr><td>Heart Rate</td><td>LOINC</td><td>8867-4</td><td><span/>Heart Rate</td><td>86</td><td>/min</td><td>05-07-2010 10:00:00</td><td>Finding</td></tr><tr><td>Systolic Blood Pressure</td><td>LOINC</td><td>8480-6</td><td><span/>BP Systolic</td><td>132</td><td>mm[Hg]</td><td>05-07-2010 10:00:00</td><td>Finding</td></tr></tbody></table></div>"
        },
        "mode": "snapshot",
        "entry": [ {
          "reference": "Observation/783cf63c-a5f4-4d6a-a87d-649f4852b3b1",
          "display": "BMI"
        }, {
          "reference": "Observation/5929e58c-aefb-4aaa-af13-e67140e0fc35",
          "display": "Heart Rate"
        }, {
          "reference": "Observation/db04ad77-93ae-4aea-ae68-64e05cd1fd3c",
          "display": "BP Diastolic"
        }, {
          "reference": "Observation/21af2585-6c9c-4c30-8b8f-e2c82e0c4f18",
          "display": "BP Systolic"
        } ]
      } ]
    }
  }, {
    "resource": {
      "resourceType": "Patient",
      "id": "7d7b34e7-d849-4c6f-8335-0fc8d92ae30c",
      "extension": [ {
        "url": "http://hl7.org/fhir/StructureDefinition/patient-religion",
        "valueCodeableConcept": {
          "coding": [ {
            "system": "urn:oid:2.16.840.1.113883.5.1076",
            "code": "1074",
            "display": "Native American"
          } ]
        }
      }, {
        "url": "http://hl7.org/fhir/us/core/StructureDefinition/us-core-race",
        "extension": [ {
          "url": "text",
          "valueString": "Other Race"
        }, {
          "url": "ombCategory",
          "valueCoding": {
            "system": "urn:oid:2.16.840.1.113883.6.238",
            "code": "2131-1",
            "display": "Other Race"
          }
        } ]
      }, {
        "url": "http://hl7.org/fhir/us/core/StructureDefinition/us-core-ethnicity",
        "extension": [ {
          "url": "text",
          "valueString": "Not Hispanic or Latino"
        }, {
          "url": "ombCategory",
          "valueCoding": {
            "system": "urn:oid:2.16.840.1.113883.6.238",
            "code": "2186-5",
            "display": "Not Hispanic or Latino"
          }
        } ]
      }, {
        "url": "http://hl7.org/fhir/StructureDefinition/patient-birthPlace",
        "valueAddress": {
          "city": "New York",
          "state": "NY",
          "postalCode": "10013",
          "country": "US"
        }
      } ],
      "identifier": [ {
        "use": "official",
        "system": "urn:oid:2.16.840.1.113883.19.5.99999.2",
        "value": "998991"
      }, {
        "use": "official",
        "system": "urn:oid:2.16.840.1.113883.4.1",
        "value": "111-00-2330"
      } ],
      "name": [ {
        "use": "usual",
        "family": "Reynolds",
        "given": [ "Rodney" ]
      } ],
      "telecom": [ {
        "system": "phone",
        "value": "(703)496-6500",
        "use": "mobile"
      } ],
      "gender": "male",
      "birthDate": "1959-10-17",
      "address": [ {
        "use": "home",
        "line": [ "2855 Daffodil Lane" ],
        "city": "Washington",
        "state": "VA",
        "postalCode": "20011",
        "country": "US"
      } ],
      "maritalStatus": {
        "coding": [ {
          "system": "http://terminology.hl7.org/CodeSystem/v3-MaritalStatus",
          "code": "M",
          "display": "Married"
        } ]
      },
      "contact": [ {
        "relationship": [ {
          "coding": [ {
            "system": "http://terminology.hl7.org/CodeSystem/v2-0131",
            "code": "C",
            "display": "Emergency Contact"
          } ]
        } ],
        "name": {
          "family": "Collins",
          "given": [ "Doris" ],
          "prefix": [ "Mrs." ]
        },
        "telecom": [ {
          "system": "phone",
          "value": "(254)616-9005",
          "use": "home"
        }, {
          "system": "email",
          "value": "DorisDCollins@jourrapide.com",
          "use": "work"
        } ],
        "address": {
          "use": "home",
          "line": [ "3962 Clair Street" ],
          "city": "Killeen",
          "state": "TX",
          "postalCode": "76541",
          "country": "US"
        }
      } ],
      "communication": [ {
        "language": {
          "coding": [ {
            "system": "urn:ietf:bcp:47",
            "code": "spa"
          } ]
        },
        "preferred": true
      } ],
      "managingOrganization": {
        "reference": "Organization/3c86237e-c15c-4988-b0f6-95d6869a294f",
        "display": "Community Health and Hospitals"
      }
    }
  }, {
    "resource": {
      "resourceType": "Organization",
      "id": "3c86237e-c15c-4988-b0f6-95d6869a294f",
      "identifier": [ {
        "use": "official",
        "value": "2.16.840.1.113883.4.6"
      } ],
      "name": "Community Health and Hospitals",
      "telecom": [ {
        "system": "phone",
        "value": " 555-555-5000",
        "use": "work"
      } ],
      "address": [ {
        "line": [ "1001 Village Avenue" ],
        "city": "Portland",
        "state": "OR",
        "postalCode": "99123",
        "country": "US"
      } ]
    }
  }, {
    "resource": {
      "resourceType": "Practitioner",
      "id": "c88ef6ed-9570-4d73-8426-ce41cc6acc67",
      "identifier": [ {
        "use": "official",
        "system": "urn:oid:2.16.840.1.113883.4.6",
        "value": "99999999"
      } ],
      "name": [ {
        "family": "Seven",
        "given": [ "Henry" ],
        "suffix": [ "MD" ]
      } ],
      "telecom": [ {
        "system": "phone",
        "value": "555-555-1002",
        "use": "work"
      } ],
      "address": [ {
        "line": [ "1002 Healthcare Drive" ],
        "city": "Portland",
        "state": "OR",
        "postalCode": "99123",
        "country": "US"
      } ]
    }
  }, {
    "resource": {
      "resourceType": "Practitioner",
      "id": "8b6caef3-8b1a-4d62-8b74-fcca968d0de7",
      "identifier": [ {
        "use": "official",
        "system": "http://hl7.org/fhir/sid/us-npi",
        "value": "999999999"
      } ],
      "name": [ {
        "family": "Seven",
        "given": [ "Henry" ]
      } ],
      "telecom": [ {
        "system": "phone",
        "value": "555-555-1002",
        "use": "work"
      } ],
      "address": [ {
        "line": [ "1001 Village Avenue" ],
        "city": "Portland",
        "state": "OR",
        "postalCode": "99123",
        "country": "US"
      } ]
    }
  }, {
    "resource": {
      "resourceType": "Practitioner",
      "id": "215a5764-0a77-4647-88eb-32c6e906567b",
      "identifier": [ {
        "use": "official",
        "system": "http://hl7.org/fhir/sid/us-npi",
        "value": "PseudoMD-1"
      } ],
      "name": [ {
        "family": "Seven",
        "given": [ "Henry" ],
        "suffix": [ "MD" ]
      } ],
      "telecom": [ {
        "system": "phone",
        "value": "+1-555-555-5000",
        "use": "home"
      } ],
      "address": [ {
        "line": [ "1001 Village Avenue" ],
        "city": "Portland",
        "state": "OR",
        "postalCode": "99123",
        "country": "US"
      } ]
    }
  }, {
    "resource": {
      "resourceType": "Organization",
      "id": "a668b033-bfa5-4d92-87dd-c8d21ee58889",
      "identifier": [ {
        "use": "official",
        "system": "urn:oid:2.16.840.1.113883.4.6",
        "value": "99999999"
      } ],
      "name": "Community Health and Hospitals",
      "telecom": [ {
        "system": "phone",
        "value": " 555-555-1002",
        "use": "work"
      } ],
      "address": [ {
        "use": "work",
        "line": [ "1002 Healthcare Drive" ],
        "city": "Portland",
        "state": "OR",
        "postalCode": "99123",
        "country": "US"
      } ]
    }
  }, {
    "resource": {
      "resourceType": "DiagnosticReport",
      "id": "69dc8d64-3b0f-43d1-bcc8-3a2ba406dcc0",
      "identifier": [ {
        "use": "official",
        "value": "7d5a02b0-67a4-11db-bd13-0800200c9a66"
      } ],
      "status": "final",
      "category": [ {
        "coding": [ {
          "system": "http://terminology.hl7.org/CodeSystem/v2-0074",
          "code": "LAB",
          "display": "Laboratory"
        } ]
      } ],
      "code": {
        "coding": [ {
          "system": "http://snomed.info/sct",
          "code": "16254007",
          "display": "Lipid Panel"
        } ]
      },
      "subject": {
        "reference": "Patient/7d7b34e7-d849-4c6f-8335-0fc8d92ae30c",
        "display": "Rodney Reynolds"
      },
      "result": [ {
        "reference": "Observation/e00d8cb1-e6fb-4200-b43c-976aae9abc5a",
        "display": "LDLc SerPl-mCnc"
      }, {
        "reference": "Observation/c5c1a623-d35b-4646-b379-2682e42fe564",
        "display": "HDLc SerPl-sCnc"
      } ]
    }
  }, {
    "resource": {
      "resourceType": "Observation",
      "id": "e00d8cb1-e6fb-4200-b43c-976aae9abc5a",
      "identifier": [ {
        "use": "official",
        "value": "107c2dc0-67a5-11db-bd13-0800200c9a66"
      } ],
      "status": "final",
      "category": [ {
        "coding": [ {
          "system": "http://terminology.hl7.org/CodeSystem/observation-category",
          "code": "laboratory"
        } ]
      } ],
      "code": {
        "coding": [ {
          "system": "http://loinc.org",
          "code": "2089-1",
          "display": "LDLc SerPl-mCnc"
        }, {
          "system": "http://www.ama-assn.org/go/cpt",
          "code": "83721",
          "display": "Assay of blood lipoprotein"
        }, {
          "system": "http://snomed.info/sct",
          "code": "113079009",
          "display": "Low density lipoprotein cholesterol measurement"
        } ]
      },
      "subject": {
        "reference": "Patient/7d7b34e7-d849-4c6f-8335-0fc8d92ae30c",
        "display": "Rodney Reynolds"
      },
      "effectivePeriod": {
        "start": "2010-05-08T10:00:00+02:00"
      },
      "valueQuantity": {
        "value": 83.2,
        "unit": "mg/dL",
        "system": "http://unitsofmeasure.org",
        "code": "mg/dL"
      },
      "interpretation": [ {
        "coding": [ {
          "system": "http://terminology.hl7.org/CodeSystem/v3-ObservationInterpretation",
          "code": "N"
        } ]
      } ],
      "referenceRange": [ {
        "text": "<130 mg/dL (calc)"
      } ]
    }
  }, {
    "resource": {
      "resourceType": "Observation",
      "id": "c5c1a623-d35b-4646-b379-2682e42fe564",
      "identifier": [ {
        "use": "official",
        "value": "107c2dc0-67a5-11db-bd13-0800200c9a66"
      } ],
      "status": "final",
      "category": [ {
        "coding": [ {
          "system": "http://terminology.hl7.org/CodeSystem/observation-category",
          "code": "laboratory"
        } ]
      } ],
      "code": {
        "coding": [ {
          "system": "http://loinc.org",
          "code": "14646-4",
          "display": "HDLc SerPl-sCnc"
        }, {
          "system": "http://www.ama-assn.org/go/cpt",
          "code": "83701",
          "display": "Lipoprotein bld, hr fraction"
        }, {
          "system": "http://snomed.info/sct",
          "code": "28036006",
          "display": "High density lipoprotein cholesterol measurement"
        } ]
      },
      "subject": {
        "reference": "Patient/7d7b34e7-d849-4c6f-8335-0fc8d92ae30c",
        "display": "Rodney Reynolds"
      },
      "effectivePeriod": {
        "start": "2010-05-08T10:00:00+02:00"
      },
      "valueQuantity": {
        "value": 49,
        "unit": "mg/dL",
        "system": "http://unitsofmeasure.org",
        "code": "mg/dL"
      },
      "interpretation": [ {
        "coding": [ {
          "system": "http://terminology.hl7.org/CodeSystem/v3-ObservationInterpretation",
          "code": "N"
        } ]
      } ],
      "referenceRange": [ {
        "text": ">=40 mg/dL"
      } ]
    }
  }, {
    "resource": {
      "resourceType": "DiagnosticReport",
      "id": "4eaf839b-ae5a-4aad-b1b3-4b5892d5a555",
      "identifier": [ {
        "use": "official",
        "value": "7d5a02b0-67a4-11db-bd13-0800200c9a66"
      } ],
      "status": "final",
      "category": [ {
        "coding": [ {
          "system": "http://terminology.hl7.org/CodeSystem/v2-0074",
          "code": "LAB",
          "display": "Laboratory"
        } ]
      } ],
      "code": {
        "coding": [ {
          "system": "http://snomed.info/sct",
          "code": "167670005",
          "display": "FOBT"
        } ]
      },
      "subject": {
        "reference": "Patient/7d7b34e7-d849-4c6f-8335-0fc8d92ae30c",
        "display": "Rodney Reynolds"
      },
      "result": [ {
        "reference": "Observation/67bed4d2-0887-4042-8035-1ce17b1c6e6a",
        "display": "Hemoccult Stl Ql"
      } ]
    }
  }, {
    "resource": {
      "resourceType": "Observation",
      "id": "67bed4d2-0887-4042-8035-1ce17b1c6e6a",
      "identifier": [ {
        "use": "official",
        "value": "107c2dc0-67a5-11db-bd13-0800200c9a66"
      } ],
      "status": "final",
      "category": [ {
        "coding": [ {
          "system": "http://terminology.hl7.org/CodeSystem/observation-category",
          "code": "laboratory"
        } ]
      } ],
      "code": {
        "coding": [ {
          "system": "http://loinc.org",
          "code": "2335-8",
          "display": "Hemoccult Stl Ql"
        }, {
          "system": "http://www.ama-assn.org/go/cpt",
          "code": "82274",
          "display": "Assay test for blood, fecal"
        }, {
          "system": "urn:oid:2.16.840.1.113883.6.13",
          "code": "G0328",
          "display": "Fecal blood scrn immunoassay"
        }, {
          "system": "urn:oid:2.16.840.1.113883.6.103",
          "code": "V76.51",
          "display": "Special screening for malignant neoplasms of colon"
        }, {
          "system": "http://snomed.info/sct",
          "code": "252156002",
          "display": "Occult blood screening"
        } ]
      },
      "subject": {
        "reference": "Patient/7d7b34e7-d849-4c6f-8335-0fc8d92ae30c",
        "display": "Rodney Reynolds"
      },
      "effectivePeriod": {
        "start": "2010-05-07T10:00:00+02:00"
      },
      "valueCodeableConcept": {
        "coding": [ {
          "system": "http://snomed.info/sct",
          "code": "260385009",
          "display": "negative"
        } ]
      },
      "interpretation": [ {
        "coding": [ {
          "system": "http://terminology.hl7.org/CodeSystem/v3-ObservationInterpretation",
          "code": "N"
        } ]
      } ],
      "referenceRange": [ {
        "text": "NA"
      } ]
    }
  }, {
    "resource": {
      "resourceType": "DiagnosticReport",
      "id": "d5a5a4e8-9447-493e-85a0-4a42dbfb3fbb",
      "identifier": [ {
        "use": "official",
        "value": "7d5a02b0-67a4-11db-bd13-0800200c9a66"
      } ],
      "status": "final",
      "category": [ {
        "coding": [ {
          "system": "http://terminology.hl7.org/CodeSystem/v2-0074",
          "code": "LAB",
          "display": "Laboratory"
        } ]
      } ],
      "code": {
        "coding": [ {
          "system": "http://snomed.info/sct",
          "code": "16254007",
          "display": "Lipid Panel"
        } ]
      },
      "subject": {
        "reference": "Patient/7d7b34e7-d849-4c6f-8335-0fc8d92ae30c",
        "display": "Rodney Reynolds"
      },
      "result": [ {
        "reference": "Observation/587c7fec-7d8e-4f2e-9f76-87a070a53474",
        "display": "Trigl SerPl Calc-mCnc"
      }, {
        "reference": "Observation/a8eaa386-dfb7-424a-98d7-872ed46663fc",
        "display": "Cholest SerPl-mCnc"
      } ]
    }
  }, {
    "resource": {
      "resourceType": "Observation",
      "id": "587c7fec-7d8e-4f2e-9f76-87a070a53474",
      "identifier": [ {
        "use": "official",
        "value": "107c2dc0-67a5-11db-bd13-0800200c9a66"
      } ],
      "status": "final",
      "category": [ {
        "coding": [ {
          "system": "http://terminology.hl7.org/CodeSystem/observation-category",
          "code": "laboratory"
        } ]
      } ],
      "code": {
        "coding": [ {
          "system": "http://loinc.org",
          "code": "12951-0",
          "display": "Trigl SerPl Calc-mCnc"
        }, {
          "system": "http://www.ama-assn.org/go/cpt",
          "code": "84478",
          "display": "Assay of triglycerides"
        }, {
          "system": "http://snomed.info/sct",
          "code": "14740000",
          "display": "Triglycerides measurement"
        } ]
      },
      "subject": {
        "reference": "Patient/7d7b34e7-d849-4c6f-8335-0fc8d92ae30c",
        "display": "Rodney Reynolds"
      },
      "effectivePeriod": {
        "start": "2010-05-08T10:00:00+02:00"
      },
      "valueQuantity": {
        "value": 119,
        "unit": "mg/dL",
        "system": "http://unitsofmeasure.org",
        "code": "mg/dL"
      },
      "interpretation": [ {
        "coding": [ {
          "system": "http://terminology.hl7.org/CodeSystem/v3-ObservationInterpretation",
          "code": "N"
        } ]
      } ],
      "referenceRange": [ {
        "text": "10-39 years: 55-110 mg/dL | 40-59 years: 70-150 mg/dL | >60 years: 80-150 mg/dL | Therapeutic Target: <100 mg/dL "
      } ]
    }
  }, {
    "resource": {
      "resourceType": "Observation",
      "id": "a8eaa386-dfb7-424a-98d7-872ed46663fc",
      "identifier": [ {
        "use": "official",
        "value": "107c2dc0-67a5-11db-bd13-0800200c9a66"
      } ],
      "status": "final",
      "category": [ {
        "coding": [ {
          "system": "http://terminology.hl7.org/CodeSystem/observation-category",
          "code": "laboratory"
        } ]
      } ],
      "code": {
        "coding": [ {
          "system": "http://loinc.org",
          "code": "2093-3",
          "display": "Cholest SerPl-mCnc"
        }, {
          "system": "http://www.ama-assn.org/go/cpt",
          "code": "82465",
          "display": "Assay, bld/serum cholesterol"
        }, {
          "system": "http://snomed.info/sct",
          "code": "121868005",
          "display": "Total cholesterol measurement"
        } ]
      },
      "subject": {
        "reference": "Patient/7d7b34e7-d849-4c6f-8335-0fc8d92ae30c",
        "display": "Rodney Reynolds"
      },
      "effectivePeriod": {
        "start": "2010-05-08T10:00:00+02:00"
      },
      "valueQuantity": {
        "value": 156,
        "unit": "mg/dL",
        "system": "http://unitsofmeasure.org",
        "code": "mg/dL"
      },
      "interpretation": [ {
        "coding": [ {
          "system": "http://terminology.hl7.org/CodeSystem/v3-ObservationInterpretation",
          "code": "N"
        } ]
      } ],
      "referenceRange": [ {
        "text": "125-200 mg/dL"
      } ]
    }
  }, {
    "resource": {
      "resourceType": "DiagnosticReport",
      "id": "122c74dc-a26d-4b46-9c5c-717d070dde16",
      "identifier": [ {
        "use": "official",
        "value": "7d5a02b0-67a4-11db-bd13-0800200c9a66"
      } ],
      "status": "final",
      "category": [ {
        "coding": [ {
          "system": "http://terminology.hl7.org/CodeSystem/v2-0074",
          "code": "LAB",
          "display": "Laboratory"
        } ]
      } ],
      "code": {
        "coding": [ {
          "system": "http://snomed.info/sct",
          "code": "166312007",
          "display": "Blood Chemistry"
        } ]
      },
      "subject": {
        "reference": "Patient/7d7b34e7-d849-4c6f-8335-0fc8d92ae30c",
        "display": "Rodney Reynolds"
      },
      "result": [ {
        "reference": "Observation/a019df90-2175-4122-854a-9d91222df417",
        "display": "Hgb A1c MFr Bld"
      } ]
    }
  }, {
    "resource": {
      "resourceType": "Observation",
      "id": "a019df90-2175-4122-854a-9d91222df417",
      "identifier": [ {
        "use": "official",
        "value": "107c2dc0-67a5-11db-bd13-0800200c9a66"
      } ],
      "status": "final",
      "category": [ {
        "coding": [ {
          "system": "http://terminology.hl7.org/CodeSystem/observation-category",
          "code": "laboratory"
        } ]
      } ],
      "code": {
        "coding": [ {
          "system": "http://loinc.org",
          "code": "4548-4",
          "display": "Hgb A1c MFr Bld"
        }, {
          "system": "http://www.ama-assn.org/go/cpt",
          "code": "83036",
          "display": "Glycated hemoglobin test"
        }, {
          "system": "http://snomed.info/sct",
          "code": "43396009",
          "display": "Hemoglobin A1c measurement"
        } ]
      },
      "subject": {
        "reference": "Patient/7d7b34e7-d849-4c6f-8335-0fc8d92ae30c",
        "display": "Rodney Reynolds"
      },
      "effectivePeriod": {
        "start": "2010-05-08T10:00:00+02:00"
      },
      "valueQuantity": {
        "value": 6.3,
        "unit": "%",
        "system": "http://unitsofmeasure.org",
        "code": "%"
      },
      "interpretation": [ {
        "coding": [ {
          "system": "http://terminology.hl7.org/CodeSystem/v3-ObservationInterpretation",
          "code": "N"
        } ]
      } ],
      "referenceRange": [ {
        "text": "4-5.6%"
      } ]
    }
  }, {
    "resource": {
      "resourceType": "DiagnosticReport",
      "id": "9490d6c8-b0d8-4e09-861b-7cb2f40a132c",
      "identifier": [ {
        "use": "official",
        "value": "7d5a02b0-67a4-11db-bd13-0800200c9a66"
      } ],
      "status": "final",
      "category": [ {
        "coding": [ {
          "system": "http://terminology.hl7.org/CodeSystem/v2-0074",
          "code": "LAB",
          "display": "Laboratory"
        } ]
      } ],
      "code": {
        "coding": [ {
          "system": "http://snomed.info/sct",
          "code": "166312007",
          "display": "Blood Chemistry"
        } ]
      },
      "subject": {
        "reference": "Patient/7d7b34e7-d849-4c6f-8335-0fc8d92ae30c",
        "display": "Rodney Reynolds"
      },
      "result": [ {
        "reference": "Observation/5fcf7ef6-6b58-43f8-b2c8-44056d49c224",
        "display": "PSA SerPl-aCnc"
      } ]
    }
  }, {
    "resource": {
      "resourceType": "Observation",
      "id": "5fcf7ef6-6b58-43f8-b2c8-44056d49c224",
      "identifier": [ {
        "use": "official",
        "value": "107c2dc0-67a5-11db-bd13-0800200c9a66"
      } ],
      "status": "final",
      "category": [ {
        "coding": [ {
          "system": "http://terminology.hl7.org/CodeSystem/observation-category",
          "code": "laboratory"
        } ]
      } ],
      "code": {
        "coding": [ {
          "system": "http://loinc.org",
          "code": "19195-7",
          "display": "PSA SerPl-aCnc"
        }, {
          "system": "http://www.ama-assn.org/go/cpt",
          "code": "84153",
          "display": "Assay of psa, total"
        }, {
          "system": "http://snomed.info/sct",
          "code": "63476009",
          "display": "Prostate specific antigen measurement"
        } ]
      },
      "subject": {
        "reference": "Patient/7d7b34e7-d849-4c6f-8335-0fc8d92ae30c",
        "display": "Rodney Reynolds"
      },
      "effectivePeriod": {
        "start": "2010-05-08T10:00:00+02:00"
      },
      "valueQuantity": {
        "value": 1,
        "unit": "ng/mL",
        "system": "http://unitsofmeasure.org",
        "code": "ng/mL"
      },
      "interpretation": [ {
        "coding": [ {
          "system": "http://terminology.hl7.org/CodeSystem/v3-ObservationInterpretation",
          "code": "N"
        } ]
      } ],
      "referenceRange": [ {
        "text": "<2.5 ng/mL"
      } ]
    }
  }, {
    "resource": {
      "resourceType": "Condition",
      "id": "4906b11d-4f5d-47e0-99df-4b88a743abfe",
      "identifier": [ {
        "use": "official",
        "value": "9d3d416d-45ab-4da1-912f-4583e0632000"
      } ],
      "clinicalStatus": {
        "coding": [ {
          "system": "http://terminology.hl7.org/CodeSystem/condition-clinical",
          "code": "active",
          "display": "Active"
        } ]
      },
      "verificationStatus": {
        "coding": [ {
          "system": "http://terminology.hl7.org/CodeSystem/condition-ver-status",
          "code": "confirmed",
          "display": "Confirmed"
        } ]
      },
      "category": [ {
        "coding": [ {
          "system": "http://terminology.hl7.org/CodeSystem/condition-category",
          "code": "problem-list-item",
          "display": "Problem List Item"
        } ]
      } ],
      "code": {
        "coding": [ {
          "system": "http://snomed.info/sct",
          "code": "13645005",
          "display": "Chronic obstructive lung disease"
        }, {
          "system": "urn:oid:2.16.840.1.113883.6.90",
          "code": "J44",
          "display": "Other chronic obstructive pulmonary disease"
        }, {
          "system": "urn:oid:2.16.840.1.113883.6.103",
          "code": "493.20",
          "display": "Chronic obstructive asthma, unspecified"
        } ]
      },
      "subject": {
        "reference": "Patient/7d7b34e7-d849-4c6f-8335-0fc8d92ae30c",
        "display": "Rodney Reynolds"
      },
      "onsetDateTime": "2010-05-07T10:00:00+02:00"
    }
  }, {
    "resource": {
      "resourceType": "Encounter",
      "id": "8f05e070-52e6-4bfc-ad3c-e52d78c5afce",
      "identifier": [ {
        "use": "official",
        "value": "2a620155-9d11-439e-92b3-5d9815ff4de8"
      } ],
      "status": "finished",
      "type": [ {
        "coding": [ {
          "system": "http://www.ama-assn.org/go/cpt",
          "code": "99212",
          "display": "Office/outpatient visit, est"
        } ]
      } ],
      "subject": {
        "reference": "Patient/7d7b34e7-d849-4c6f-8335-0fc8d92ae30c",
        "display": "Rodney Reynolds"
      },
      "period": {
        "start": "2010-05-07T10:00:00+02:00"
      },
      "reasonCode": [ {
        "coding": [ {
          "system": "http://snomed.info/sct",
          "code": "13645005",
          "display": "COPD"
        } ]
      }, {
        "coding": [ {
          "system": "http://snomed.info/sct",
          "code": "44054006",
          "display": "Diabetes"
        } ]
      }, {
        "coding": [ {
          "system": "http://snomed.info/sct",
          "code": "59621000",
          "display": "Hypertension"
        } ]
      } ],
      "reasonReference": [ {
        "reference": "Condition/61e1c4ae-eee5-4c8e-b4de-985e072b2c09",
        "display": "COPD"
      }, {
        "reference": "Condition/95413d27-d1a1-472f-8451-67d85a22ab56",
        "display": "Diabetes"
      }, {
        "reference": "Condition/d86c9d07-965f-41db-96fa-a278dc4d135c",
        "display": "Hypertension"
      } ]
    }
  }, {
    "resource": {
      "resourceType": "Condition",
      "id": "61e1c4ae-eee5-4c8e-b4de-985e072b2c09",
      "identifier": [ {
        "use": "official",
        "system": "urn:uuid:db734647-fc99-424c-a864-7e3cda82e703",
        "value": "45665"
      } ],
      "clinicalStatus": {
        "coding": [ {
          "system": "http://terminology.hl7.org/CodeSystem/condition-clinical",
          "code": "active",
          "display": "Active"
        } ]
      },
      "category": [ {
        "coding": [ {
          "system": "http://hl7.org/fhir/condition-category",
          "code": "encounter-diagnosis",
          "display": "Encounter Diagnosis"
        } ]
      } ],
      "code": {
        "coding": [ {
          "system": "http://snomed.info/sct",
          "code": "13645005",
          "display": "COPD"
        }, {
          "system": "urn:oid:2.16.840.1.113883.6.90",
          "code": "J44",
          "display": "Other chronic obstructive pulmonary disease"
        }, {
          "system": "urn:oid:2.16.840.1.113883.6.103",
          "code": "493.20",
          "display": "Chronic obstructive asthma, unspecified"
        } ]
      },
      "subject": {
        "reference": "Patient/7d7b34e7-d849-4c6f-8335-0fc8d92ae30c",
        "display": "Rodney Reynolds"
      },
      "onsetDateTime": "2010-05-07T10:00:00+02:00"
    }
  }, {
    "resource": {
      "resourceType": "Condition",
      "id": "95413d27-d1a1-472f-8451-67d85a22ab56",
      "identifier": [ {
        "use": "official",
        "system": "urn:uuid:db734647-fc99-424c-a864-7e3cda82e703",
        "value": "45665"
      } ],
      "clinicalStatus": {
        "coding": [ {
          "system": "http://terminology.hl7.org/CodeSystem/condition-clinical",
          "code": "active",
          "display": "Active"
        } ]
      },
      "category": [ {
        "coding": [ {
          "system": "http://hl7.org/fhir/condition-category",
          "code": "encounter-diagnosis",
          "display": "Encounter Diagnosis"
        } ]
      } ],
      "code": {
        "coding": [ {
          "system": "http://snomed.info/sct",
          "code": "44054006",
          "display": "Diabetes"
        }, {
          "system": "urn:oid:2.16.840.1.113883.6.90",
          "code": "E11.9",
          "display": "Type 2 diabetes mellitus without complications"
        }, {
          "system": "urn:oid:2.16.840.1.113883.6.103",
          "code": "250.00",
          "display": "Diabetes mellitus without mention of complication, type II or unspecified type, not stated as uncontrolled"
        } ]
      },
      "subject": {
        "reference": "Patient/7d7b34e7-d849-4c6f-8335-0fc8d92ae30c",
        "display": "Rodney Reynolds"
      },
      "onsetDateTime": "2010-05-07T10:00:00+02:00"
    }
  }, {
    "resource": {
      "resourceType": "Condition",
      "id": "d86c9d07-965f-41db-96fa-a278dc4d135c",
      "identifier": [ {
        "use": "official",
        "system": "urn:uuid:db734647-fc99-424c-a864-7e3cda82e703",
        "value": "45665"
      } ],
      "clinicalStatus": {
        "coding": [ {
          "system": "http://terminology.hl7.org/CodeSystem/condition-clinical",
          "code": "active",
          "display": "Active"
        } ]
      },
      "category": [ {
        "coding": [ {
          "system": "http://hl7.org/fhir/condition-category",
          "code": "encounter-diagnosis",
          "display": "Encounter Diagnosis"
        } ]
      } ],
      "code": {
        "coding": [ {
          "system": "http://snomed.info/sct",
          "code": "59621000",
          "display": "Hypertension"
        }, {
          "system": "urn:oid:2.16.840.1.113883.6.90",
          "code": "I10",
          "display": "Essential (primary) hypertension"
        }, {
          "system": "urn:oid:2.16.840.1.113883.6.103",
          "code": "401.9",
          "display": "Unspecified essential hypertension"
        } ]
      },
      "subject": {
        "reference": "Patient/7d7b34e7-d849-4c6f-8335-0fc8d92ae30c",
        "display": "Rodney Reynolds"
      },
      "onsetDateTime": "2010-05-07T10:00:00+02:00"
    }
  }, {
    "resource": {
      "resourceType": "Encounter",
      "id": "bad69626-3f28-4c0c-84ba-aa6a405b59be",
      "identifier": [ {
        "use": "official",
        "value": "2a620155-9d11-439e-92b3-5d9815ff4de8"
      } ],
      "status": "finished",
      "type": [ {
        "coding": [ {
          "system": "http://www.ama-assn.org/go/cpt",
          "code": "99213",
          "display": "Office/outpatient visit, est"
        }, {
          "system": "urn:oid:2.16.840.1.113883.6.103",
          "code": "V70.0",
          "display": "Routine general medical examination at a health care facility"
        } ]
      } ],
      "subject": {
        "reference": "Patient/7d7b34e7-d849-4c6f-8335-0fc8d92ae30c",
        "display": "Rodney Reynolds"
      },
      "period": {
        "start": "2010-05-10T10:00:00+02:00"
      }
    }
  }, {
    "resource": {
      "resourceType": "Encounter",
      "id": "181fb181-e031-4782-b887-b050b729a24e",
      "identifier": [ {
        "use": "official",
        "value": "2a620155-9d11-439e-92b3-5d9815ff4de8"
      } ],
      "status": "finished",
      "type": [ {
        "coding": [ {
          "system": "http://www.ama-assn.org/go/cpt",
          "code": "99251",
          "display": "Initial inpatient consult"
        } ]
      } ],
      "subject": {
        "reference": "Patient/7d7b34e7-d849-4c6f-8335-0fc8d92ae30c",
        "display": "Rodney Reynolds"
      },
      "period": {
        "start": "2010-05-16T10:00:00+02:00"
      }
    }
  }, {
    "resource": {
      "resourceType": "Encounter",
      "id": "94976895-fd0d-4334-b929-ae769c0fc713",
      "identifier": [ {
        "use": "official",
        "value": "2a620155-9d11-439e-92b3-5d9815ff4de8"
      } ],
      "status": "finished",
      "type": [ {
        "coding": [ {
          "system": "http://www.ama-assn.org/go/cpt",
          "code": "99212",
          "display": "Office/outpatient visit, est"
        } ]
      } ],
      "subject": {
        "reference": "Patient/7d7b34e7-d849-4c6f-8335-0fc8d92ae30c",
        "display": "Rodney Reynolds"
      },
      "period": {
        "start": "2010-05-15T10:00:00+02:00"
      },
      "reasonCode": [ {
        "coding": [ {
          "system": "http://snomed.info/sct",
          "code": "94222008",
          "display": "Colon Ca metastasis"
        } ]
      }, {
        "coding": [ {
          "system": "http://snomed.info/sct",
          "code": "126838000",
          "display": "Colon Cancer"
        } ]
      } ],
      "reasonReference": [ {
        "reference": "Condition/d86c9d07-965f-41db-96fa-a278dc4d135c",
        "display": "Hypertension"
      }, {
        "reference": "Condition/d86c9d07-965f-41db-96fa-a278dc4d135c",
        "display": "Hypertension"
      } ]
    }
  }, {
    "resource": {
      "resourceType": "Encounter",
      "id": "92f667f6-a603-40e4-8e0e-85d0499f08b7",
      "identifier": [ {
        "use": "official",
        "value": "2a620155-9d11-439e-92b3-5d9815ff4de8"
      } ],
      "status": "finished",
      "type": [ {
        "coding": [ {
          "system": "http://www.ama-assn.org/go/cpt",
          "code": "99212",
          "display": "Office/outpatient visit, est"
        } ]
      } ],
      "subject": {
        "reference": "Patient/7d7b34e7-d849-4c6f-8335-0fc8d92ae30c",
        "display": "Rodney Reynolds"
      },
      "period": {
        "start": "2010-06-27T10:00:00+02:00"
      }
    }
  }, {
    "resource": {
      "resourceType": "AllergyIntolerance",
      "id": "c52c72d7-1164-4194-b5c8-9eae746e4007",
      "identifier": [ {
        "use": "official",
        "value": "36e3e930-7b14-11db-9fe1-0800200c9a66"
      } ],
      "clinicalStatus": {
        "coding": [ {
          "system": "http://terminology.hl7.org/CodeSystem/allergyintolerance-clinical",
          "code": "active",
          "display": "Active"
        } ]
      },
      "verificationStatus": {
        "coding": [ {
          "system": "http://terminology.hl7.org/CodeSystem/allergyintolerance-verification",
          "code": "confirmed",
          "display": "Confirmed"
        } ]
      },
      "type": "allergy",
      "category": [ "medication" ],
      "code": {
        "coding": [ {
          "system": "urn:oid:2.16.840.1.113883.3.26.1.5",
          "code": "N0000011298",
          "display": "Penicillin V"
        } ],
        "text": "Penicillin V + Penicillin V"
      },
      "patient": {
        "reference": "Patient/7d7b34e7-d849-4c6f-8335-0fc8d92ae30c",
        "display": "Rodney Reynolds"
      },
      "recordedDate": "1984-06-05T10:00:00+02:00"
    }
  }, {
    "resource": {
      "resourceType": "AllergyIntolerance",
      "id": "2239a1ac-3de7-4a97-a4ff-546035d4d10f",
      "identifier": [ {
        "use": "official",
        "value": "36e3e930-7b14-11db-9fe1-0800200c9a66"
      } ],
      "clinicalStatus": {
        "coding": [ {
          "system": "http://terminology.hl7.org/CodeSystem/allergyintolerance-clinical",
          "code": "active",
          "display": "Active"
        } ]
      },
      "verificationStatus": {
        "coding": [ {
          "system": "http://terminology.hl7.org/CodeSystem/allergyintolerance-verification",
          "code": "confirmed",
          "display": "Confirmed"
        } ]
      },
      "type": "allergy",
      "category": [ "food" ],
      "code": {
        "coding": [ {
          "system": "http://fdasis.nlm.nih.gov",
          "code": "291P45F896",
          "display": "Eggs"
        }, {
          "system": "urn:oid:2.16.840.1.113883.6.103",
          "code": "V15.03",
          "display": "Allergy to eggs"
        } ],
        "text": "Allergy to Eggs + Eggs"
      },
      "patient": {
        "reference": "Patient/7d7b34e7-d849-4c6f-8335-0fc8d92ae30c",
        "display": "Rodney Reynolds"
      },
      "recordedDate": "1984-06-05T10:00:00+02:00"
    }
  }, {
    "resource": {
      "resourceType": "MedicationStatement",
      "id": "04a2b879-a681-46c5-95a4-fc7d82fb2e11",
      "extension": [ {
        "url": "http://hl7.org/fhir/3.0/StructureDefinition/extension-MedicationStatement.status",
        "valueCode": "UNKNOWN"
      } ],
      "identifier": [ {
        "use": "official",
        "value": "cdbd33f0-6cde-11db-9fe1-0800200c9a66"
      } ],
      "status": "completed",
      "medicationReference": {
        "reference": "Medication/f607f1e0-4a93-4aff-bf05-24a9e42a4e97",
        "display": "24 HR Nicotine 0.313 MG/HR Transdermal Patch"
      },
      "subject": {
        "reference": "Patient/7d7b34e7-d849-4c6f-8335-0fc8d92ae30c",
        "display": "Rodney Reynolds"
      },
      "effectivePeriod": {
        "start": "2010-05-07T10:00:00+02:00"
      }
    }
  }, {
    "resource": {
      "resourceType": "Medication",
      "id": "f607f1e0-4a93-4aff-bf05-24a9e42a4e97",
      "code": {
        "coding": [ {
          "system": "http://www.nlm.nih.gov/research/umls/rxnorm",
          "code": "1046847",
          "display": "24 HR Nicotine 0.313 MG/HR Transdermal Patch"
        } ]
      }
    }
  }, {
    "resource": {
      "resourceType": "MedicationStatement",
      "id": "6d187526-1dca-4341-bcfa-0b108d13f3fb",
      "extension": [ {
        "url": "http://hl7.org/fhir/3.0/StructureDefinition/extension-MedicationStatement.status",
        "valueCode": "UNKNOWN"
      } ],
      "identifier": [ {
        "use": "official",
        "value": "cdbd33f0-6cde-11db-9fe1-0800200c9a66"
      } ],
      "status": "completed",
      "medicationReference": {
        "reference": "Medication/d25e8cd0-f15c-4745-9a64-c7ebcf73f3e9",
        "display": "Leucovorin 25 MG Oral Tablet"
      },
      "subject": {
        "reference": "Patient/7d7b34e7-d849-4c6f-8335-0fc8d92ae30c",
        "display": "Rodney Reynolds"
      },
      "effectivePeriod": {
        "start": "2010-05-15T10:00:00+02:00"
      }
    }
  }, {
    "resource": {
      "resourceType": "Medication",
      "id": "d25e8cd0-f15c-4745-9a64-c7ebcf73f3e9",
      "code": {
        "coding": [ {
          "system": "http://www.nlm.nih.gov/research/umls/rxnorm",
          "code": "197862",
          "display": "Leucovorin 25 MG Oral Tablet"
        } ]
      }
    }
  }, {
    "resource": {
      "resourceType": "MedicationStatement",
      "id": "dbca4840-f79e-4e0a-b59d-e29be86fae0e",
      "extension": [ {
        "url": "http://hl7.org/fhir/3.0/StructureDefinition/extension-MedicationStatement.status",
        "valueCode": "UNKNOWN"
      } ],
      "identifier": [ {
        "use": "official",
        "value": "cdbd33f0-6cde-11db-9fe1-0800200c9a66"
      } ],
      "status": "completed",
      "medicationReference": {
        "reference": "Medication/1cf34c12-e1a6-41e7-9ab6-9e8f998cffea",
        "display": "3 ML Insulin Lispro 100 UNT/ML Prefilled Syringe"
      },
      "subject": {
        "reference": "Patient/7d7b34e7-d849-4c6f-8335-0fc8d92ae30c",
        "display": "Rodney Reynolds"
      },
      "effectivePeriod": {
        "start": "2010-05-07T10:00:00+02:00"
      }
    }
  }, {
    "resource": {
      "resourceType": "Medication",
      "id": "1cf34c12-e1a6-41e7-9ab6-9e8f998cffea",
      "code": {
        "coding": [ {
          "system": "http://www.nlm.nih.gov/research/umls/rxnorm",
          "code": "847207",
          "display": "3 ML Insulin Lispro 100 UNT/ML Prefilled Syringe"
        } ]
      }
    }
  }, {
    "resource": {
      "resourceType": "MedicationStatement",
      "id": "06b4fc0a-7e60-4524-836d-2211142b3090",
      "extension": [ {
        "url": "http://hl7.org/fhir/3.0/StructureDefinition/extension-MedicationStatement.status",
        "valueCode": "UNKNOWN"
      } ],
      "identifier": [ {
        "use": "official",
        "value": "cdbd33f0-6cde-11db-9fe1-0800200c9a66"
      } ],
      "status": "completed",
      "medicationReference": {
        "reference": "Medication/ff7f6a92-c61f-4a66-a4a3-93b812f600cc",
        "display": "Enalapril Maleate 10 MG / Hydrochlorothiazide 25 MG Oral Tablet"
      },
      "subject": {
        "reference": "Patient/7d7b34e7-d849-4c6f-8335-0fc8d92ae30c",
        "display": "Rodney Reynolds"
      },
      "effectivePeriod": {
        "start": "2010-05-07T10:00:00+02:00"
      }
    }
  }, {
    "resource": {
      "resourceType": "Medication",
      "id": "ff7f6a92-c61f-4a66-a4a3-93b812f600cc",
      "code": {
        "coding": [ {
          "system": "http://www.nlm.nih.gov/research/umls/rxnorm",
          "code": "858828",
          "display": "Enalapril Maleate 10 MG / Hydrochlorothiazide 25 MG Oral Tablet"
        } ]
      }
    }
  }, {
    "resource": {
      "resourceType": "Observation",
      "id": "fc16a5c8-5dc7-4159-904a-3fca8f8a2cd6",
      "identifier": [ {
        "use": "official",
        "system": "urn:oid:2.16.840.1.113883.19",
        "value": "123456789"
      } ],
      "status": "final",
      "code": {
        "coding": [ {
          "system": "urn:oid:2.16.840.1.113883.5.4",
          "code": "ASSERTION"
        } ]
      },
      "subject": {
        "reference": "Patient/7d7b34e7-d849-4c6f-8335-0fc8d92ae30c",
        "display": "Rodney Reynolds"
      },
      "effectivePeriod": {
        "start": "2010-05-07T10:00:00+02:00"
      },
      "valueCodeableConcept": {
        "coding": [ {
          "system": "http://snomed.info/sct",
          "code": "266919005",
          "display": "Never smoker (Never Smoked)"
        }, {
          "system": "http://snomed.info/sct",
          "code": "449868002",
          "display": "Current every day smoker"
        } ]
      }
    }
  }, {
    "resource": {
      "resourceType": "Observation",
      "id": "783cf63c-a5f4-4d6a-a87d-649f4852b3b1",
      "identifier": [ {
        "use": "official",
        "value": "c6f88321-67ad-11db-bd13-0800200c9a66"
      } ],
      "status": "final",
      "category": [ {
        "coding": [ {
          "system": "http://terminology.hl7.org/CodeSystem/observation-category",
          "code": "vital-signs",
          "display": "Vital Signs"
        } ]
      } ],
      "code": {
        "coding": [ {
          "system": "http://loinc.org",
          "code": "39156-5",
          "display": "BMI"
        } ]
      },
      "subject": {
        "reference": "Patient/7d7b34e7-d849-4c6f-8335-0fc8d92ae30c",
        "display": "Rodney Reynolds"
      },
      "effectivePeriod": {
        "start": "2010-05-07T10:00:00+02:00"
      },
      "valueQuantity": {
        "value": 29.1,
        "unit": "kg/m2",
        "system": "http://unitsofmeasure.org",
        "code": "kg/m2"
      }
    }
  }, {
    "resource": {
      "resourceType": "Observation",
      "id": "5929e58c-aefb-4aaa-af13-e67140e0fc35",
      "identifier": [ {
        "use": "official",
        "value": "c6f88321-67ad-11db-bd13-0800200c9a66"
      } ],
      "status": "final",
      "category": [ {
        "coding": [ {
          "system": "http://terminology.hl7.org/CodeSystem/observation-category",
          "code": "vital-signs",
          "display": "Vital Signs"
        } ]
      } ],
      "code": {
        "coding": [ {
          "system": "http://loinc.org",
          "code": "8867-4",
          "display": "Heart Rate"
        } ]
      },
      "subject": {
        "reference": "Patient/7d7b34e7-d849-4c6f-8335-0fc8d92ae30c",
        "display": "Rodney Reynolds"
      },
      "effectivePeriod": {
        "start": "2010-05-07T10:00:00+02:00"
      },
      "valueQuantity": {
        "value": 86,
        "unit": "/min",
        "system": "http://unitsofmeasure.org",
        "code": "/min"
      }
    }
  }, {
    "resource": {
      "resourceType": "Observation",
      "id": "db04ad77-93ae-4aea-ae68-64e05cd1fd3c",
      "identifier": [ {
        "use": "official",
        "value": "c6f88321-67ad-11db-bd13-0800200c9a66"
      } ],
      "status": "final",
      "category": [ {
        "coding": [ {
          "system": "http://terminology.hl7.org/CodeSystem/observation-category",
          "code": "vital-signs",
          "display": "Vital Signs"
        } ]
      } ],
      "code": {
        "coding": [ {
          "system": "http://loinc.org",
          "code": "8462-4",
          "display": "BP Diastolic"
        } ]
      },
      "subject": {
        "reference": "Patient/7d7b34e7-d849-4c6f-8335-0fc8d92ae30c",
        "display": "Rodney Reynolds"
      },
      "effectivePeriod": {
        "start": "2010-05-07T10:00:00+02:00"
      },
      "valueQuantity": {
        "value": 82,
        "unit": "mm[Hg]",
        "system": "http://unitsofmeasure.org",
        "code": "mm[Hg]"
      }
    }
  }, {
    "resource": {
      "resourceType": "Observation",
      "id": "21af2585-6c9c-4c30-8b8f-e2c82e0c4f18",
      "identifier": [ {
        "use": "official",
        "value": "c6f88321-67ad-11db-bd13-0800200c9a66"
      } ],
      "status": "final",
      "category": [ {
        "coding": [ {
          "system": "http://terminology.hl7.org/CodeSystem/observation-category",
          "code": "vital-signs",
          "display": "Vital Signs"
        } ]
      } ],
      "code": {
        "coding": [ {
          "system": "http://loinc.org",
          "code": "8480-6",
          "display": "BP Systolic"
        } ]
      },
      "subject": {
        "reference": "Patient/7d7b34e7-d849-4c6f-8335-0fc8d92ae30c",
        "display": "Rodney Reynolds"
      },
      "effectivePeriod": {
        "start": "2010-05-07T10:00:00+02:00"
      },
      "valueQuantity": {
        "value": 132,
        "unit": "mm[Hg]",
        "system": "http://unitsofmeasure.org",
        "code": "mm[Hg]"
      }
    }
  } ]
}