{
  "resourceType": "Bundle",
  "entry": [ {
    "resource": {
      "resourceType": "Composition",
      "id": "2034e80e-e4fd-492d-8f3b-e5326e02fcab",
      "identifier": {
        "use": "official",
        "value": "db734647-fc99-424c-a864-7e3cda82e703"
      },
      "status": "preliminary",
      "type": {
        "coding": [ {
          "system": "http://loinc.org",
          "code": "34133-9",
          "display": "Summarization of Episode Note"
        } ]
      },
      "category": [ {
        "coding": [ {
          "system": "http://hl7.org/fhir/ValueSet/doc-classcodes",
          "code": "LP173421-7",
          "display": "Note"
        } ]
      } ],
      "subject": {
        "reference": "Patient/b9c834cf-d2f0-40be-beda-95a6025204f2",
        "display": "Terrance Craig"
      },
      "date": "2014-04-16T11:55:04+02:00",
      "author": [ {
        "reference": "Practitioner/dfc08eb9-5390-4661-8a77-68c64c7a76c0",
        "display": "Henry Seven MD"
      } ],
      "title": "Community Health and Hospitals: Health Summary",
      "confidentiality": "N",
      "attester": [ {
        "mode": "legal",
        "time": "2013-04-18T09:00:00+05:00",
        "party": {
          "reference": "Practitioner/e846eb7d-79b2-4e8c-bf6e-0d97255818f2",
          "display": "Henry Seven"
        }
      }, {
        "mode": "professional",
        "time": "2014-04-16T11:55:04+02:00",
        "party": {
          "reference": "Practitioner/e846eb7d-79b2-4e8c-bf6e-0d97255818f2",
          "display": "Henry Seven"
        }
      } ],
      "custodian": {
        "reference": "Organization/679d24e8-9f5f-4ebf-8876-2a939a9eed86",
        "display": "Community Health and Hospitals"
      },
      "event": [ {
        "period": {
          "start": "2010-03-31T10:00:00+02:00",
          "end": "2010-11-27T10:00:00+01:00"
        },
        "detail": [ {
          "reference": "Practitioner/88ade2d3-cd03-4aa7-9e82-af5b387bfb43",
          "display": "Henry Seven MD"
        } ]
      } ],
      "section": [ {
        "title": "Medications",
        "code": {
          "coding": [ {
            "system": "http://loinc.org",
            "code": "10160-0",
            "display": "History of Medication Use"
          } ]
        },
        "text": {
          "status": "additional",
          "div": "<div xmlns=\"http://www.w3.org/1999/xhtml\"><table><thead><tr><th>Group Description</th><th>Code System</th><th>Code</th><th>Code Description</th><th>Date and Time</th><th>Status</th></tr></thead><tbody><tr><td>Antidiabetic combinations</td><td>RxNorm</td><td>861748</td><td><span/>Glyburide 2.5 MG / Metformin hydrochloride 500 MG Oral Tablet</td><td>03-31-2010 10:00:00</td><td>Active</td></tr></tbody></table></div>"
        },
        "mode": "snapshot",
        "entry": [ {
          "reference": "MedicationStatement/f63bc238-1d67-4ebb-ab55-bc3ee8d18662",
          "display": "Glyburide 2.5 MG / Metformin hydrochloride 500 MG Oral Tablet"
        } ]
      }, {
        "title": "Vital Signs",
        "code": {
          "coding": [ {
            "system": "http://loinc.org",
            "code": "8716-3",
            "display": "Vital Signs"
          } ]
        },
        "text": {
          "status": "additional",
          "div": "<div xmlns=\"http://www.w3.org/1999/xhtml\"><table><thead><tr><th>Group Description</th><th>Code System</th><th>Code</th><th>Code Description</th><th>Value</th><th>Unit</th><th>Date and Time</th><th>Status</th></tr></thead><tbody><tr><td>BMI</td><td>LOINC</td><td>39156-5</td><td><span/>BMI</td><td>27.8</td><td>kg/m2</td><td>03-31-2010 10:00:00</td><td>Finding</td></tr><tr><td>Diastolic Blood Pressure</td><td>LOINC</td><td>8462-4</td><td><span/>BP Diastolic</td><td>82</td><td>mm[Hg]</td><td>03-31-2010 10:00:00</td><td>Finding</td></tr><tr><td>Systolic Blood Pressure</td><td>LOINC</td><td>8480-6</td><td><span/>BP Systolic</td><td>134</td><td>mm[Hg]</td><td>03-31-2010 10:00:00</td><td>Finding</td></tr><tr><td>BMI</td><td>LOINC</td><td>39156-5</td><td><span/>BMI</td><td>27.4</td><td>kg/m2</td><td>05-23-2010 10:00:00</td><td>Finding</td></tr><tr><td>Diastolic Blood Pressure</td><td>LOINC</td><td>8462-4</td><td><span/>BP Diastolic</td><td>86</td><td>mm[Hg]</td><td>05-23-2010 10:00:00</td><td>Finding</td></tr><tr><td>Systolic Blood Pressure</td><td>LOINC</td><td>8480-6</td><td><span/>BP Systolic</td><td>136</td><td>mm[Hg]</td><td>05-23-2010 10:00:00</td><td>Finding</td></tr><tr><td>BMI</td><td>LOINC</td><td>39156-5</td><td><span/>BMI</td><td>28.2</td><td>kg/m2</td><td>08-10-2010 10:00:00</td><td>Finding</td></tr><tr><td>Diastolic Blood Pressure</td><td>LOINC</td><td>8462-4</td><td><span/>BP Diastolic</td><td>82</td><td>mm[Hg]</td><td>08-10-2010 10:00:00</td><td>Finding</td></tr><tr><td>Systolic Blood Pressure</td><td>LOINC</td><td>8480-6</td><td><span/>BP Systolic</td><td>132</td><td>mm[Hg]</td><td>08-10-2010 10:00:00</td><td>Finding</td></tr><tr><td>BMI</td><td>LOINC</td><td>39156-5</td><td><span/>BMI</td><td>28.5</td><td>kg/m2</td><td>11-27-2010 10:00:00</td><td>Finding</td></tr><tr><td>Diastolic Blood Pressure</td><td>LOINC</td><td>8462-4</td><td><span/>BP Diastolic</td><td>85</td><td>mm[Hg]</td><td>11-27-2010 10:00:00</td><td>Finding</td></tr><tr><td>Systolic Blood Pressure</td><td>LOINC</td><td>8480-6</td><td><span/>BP Systolic</td><td>130</td><td>mm[Hg]</td><td>11-27-2010 10:00:00</td><td>Finding</td></tr></tbody></table></div>"
        },
        "mode": "snapshot",
        "entry": [ {
          "reference": "Observation/c0cf6a7e-3c87-4ae6-a361-d6c0d8c8b9ae",
          "display": "BP Diastolic"
        }, {
          "reference": "Observation/307d7e80-aed0-4b9f-b2cc-043c7d8860aa",
          "display": "BP Systolic"
        }, {
          "reference": "Observation/71c5ec8f-cd2f-4867-aa95-68bc6cf342cf",
          "display": "BMI"
        }, {
          "reference": "Observation/d6782b82-439a-4acb-86fd-6078e3048a05",
          "display": "BP Systolic"
        }, {
          "reference": "Observation/7f26588f-e470-425a-be57-eb13b2fcb67d",
          "display": "BP Diastolic"
        }, {
          "reference": "Observation/c38a3a3d-fadd-4c15-aa10-037017ce1b06",
          "display": "BMI"
        }, {
          "reference": "Observation/8e7fc1af-72df-4af2-bef8-875f29024692",
          "display": "BP Diastolic"
        }, {
          "reference": "Observation/fc2fdfeb-fb59-4dea-a3df-16a502fe39f8",
          "display": "BMI"
        }, {
          "reference": "Observation/f8fc86d0-f1ac-4ffe-81dc-0460a7ac6cfd",
          "display": "BP Systolic"
        }, {
          "reference": "Observation/c2e315db-c06b-441e-afd1-4a7de8430f55",
          "display": "BP Diastolic"
        }, {
          "reference": "Observation/62d77e44-3fb9-4d3a-89ef-d5e7264d769c",
          "display": "BMI"
        }, {
          "reference": "Observation/a4fe69ee-b43d-4959-bae6-ce9bc56abc35",
          "display": "BP Systolic"
        } ]
      }, {
        "title": "Results",
        "code": {
          "coding": [ {
            "system": "http://loinc.org",
            "code": "30954-2",
            "display": "Results"
          } ]
        },
        "text": {
          "status": "additional",
          "div": "<div xmlns=\"http://www.w3.org/1999/xhtml\"><table><thead><tr><th>Group Description</th><th>Code System</th><th>Code</th><th>Code Description</th><th>Value</th><th>Unit</th><th>Reference Range</th><th>Date and Time</th><th>Status</th></tr></thead><tbody><tr><td>HbA1c test</td><td>LOINC</td><td>4548-4</td><td><span/>Hgb A1c MFr Bld</td><td>7.1</td><td>%</td><td>4-5.6%</td><td>03-31-2010 10:00:00</td><td>Completed</td></tr><tr><td/><td>CPT</td><td>83036</td><td>Glycated hemoglobin test</td><td/><td/><td/><td/><td/></tr><tr><td/><td>SNOMED-CT</td><td>43396009</td><td>Hemoglobin A1c measurement</td><td/><td/><td/><td/><td/></tr><tr><td>HbA1c test</td><td>LOINC</td><td>4548-4</td><td><span/>Hgb A1c MFr Bld</td><td>6.8</td><td>%</td><td>4-5.6%</td><td>05-23-2010 10:00:00</td><td>Completed</td></tr><tr><td/><td>CPT</td><td>83036</td><td>Glycated hemoglobin test</td><td/><td/><td/><td/><td/></tr><tr><td/><td>SNOMED-CT</td><td>43396009</td><td>Hemoglobin A1c measurement</td><td/><td/><td/><td/><td/></tr><tr><td>HbA1c test</td><td>LOINC</td><td>4548-4</td><td><span/>Hgb A1c MFr Bld</td><td>6.3</td><td>%</td><td>4-5.6%</td><td>08-10-2010 10:00:00</td><td>Completed</td></tr><tr><td/><td>CPT</td><td>83036</td><td>Glycated hemoglobin test</td><td/><td/><td/><td/><td/></tr><tr><td/><td>SNOMED-CT</td><td>43396009</td><td>Hemoglobin A1c measurement</td><td/><td/><td/><td/><td/></tr><tr><td>HbA1c test</td><td>LOINC</td><td>4548-4</td><td><span/>Hgb A1c MFr Bld</td><td>6.8</td><td>%</td><td>4-5.6%</td><td>11-27-2010 10:00:00</td><td>Completed</td></tr><tr><td/><td>CPT</td><td>83036</td><td>Glycated hemoglobin test</td><td/><td/><td/><td/><td/></tr><tr><td/><td>SNOMED-CT</td><td>43396009</td><td>Hemoglobin A1c measurement</td><td/><td/><td/><td/><td/></tr></tbody></table></div>"
        },
        "mode": "snapshot",
        "entry": [ {
          "reference": "DiagnosticReport/9c9ddda1-9fae-48a3-8b9a-db70dfb3f2cf",
          "display": "Blood Chemistry"
        }, {
          "reference": "DiagnosticReport/489630fc-58c1-48d2-87c9-901c73094c07",
          "display": "Blood Chemistry"
        }, {
          "reference": "DiagnosticReport/255c9283-68dd-49c2-9cc5-03744d4832b0",
          "display": "Blood Chemistry"
        }, {
          "reference": "DiagnosticReport/d986183e-d6fc-43ab-bb90-ce7de732008c",
          "display": "Blood Chemistry"
        } ]
      }, {
        "title": "Encounters",
        "code": {
          "coding": [ {
            "system": "http://loinc.org",
            "code": "46240-8",
            "display": "History of encounters"
          } ]
        },
        "text": {
          "status": "additional",
          "div": "<div xmlns=\"http://www.w3.org/1999/xhtml\"><table><thead><tr><th>Group Description</th><th>Code System</th><th>Code</th><th>Code Description</th><th>Date and Time</th><th>Status</th></tr></thead><tbody><tr><td>Encounter Ophthalmological Services</td><td>CPT</td><td>92012</td><td><span/>Eye exam established pat</td><td>03-31-2010 10:00:00</td><td>Performed</td></tr><tr><td>Encounter Outpatient</td><td>CPT</td><td>99213</td><td><span/>Office/outpatient visit, est</td><td>05-23-2010 10:00:00</td><td>Performed</td></tr><tr><td/><td>ICD-9-CM</td><td>V70.0</td><td>Routine general medical examination at a health care facility</td><td/><td/></tr><tr><td>Encounter Ophthalmological Services</td><td>CPT</td><td>92012</td><td><span/>Eye exam established pat</td><td>08-10-2010 10:00:00</td><td>Performed</td></tr><tr><td>Encounter Outpatient</td><td>CPT</td><td>99213</td><td><span/>Office/outpatient visit, est</td><td>11-27-2010 10:00:00</td><td>Performed</td></tr><tr><td/><td>ICD-9-CM</td><td>V70.0</td><td>Routine general medical examination at a health care facility</td><td/><td/></tr></tbody></table></div>"
        },
        "mode": "snapshot",
        "entry": [ {
          "reference": "Encounter/e692f8b4-522f-4aa8-a30d-da24827bd568",
          "display": "Office/outpatient visit, est"
        }, {
          "reference": "Encounter/e7e1b189-1fb4-4e50-a2c4-5bd692f6b1cb",
          "display": "Eye exam established pat"
        }, {
          "reference": "Encounter/9af055db-333e-4af0-8b8e-ae8d08c961bb",
          "display": "Eye exam established pat"
        }, {
          "reference": "Encounter/b7b13fa0-3653-4f72-9a9a-8abf446499a4",
          "display": "Office/outpatient visit, est"
        } ]
      }, {
        "title": "Allergies,  Adverse Reactions & Alerts",
        "code": {
          "coding": [ {
            "system": "http://loinc.org",
            "code": "48765-2",
            "display": "Allergies, adverse reactions, alerts"
          } ]
        },
        "text": {
          "status": "additional",
          "div": "<div xmlns=\"http://www.w3.org/1999/xhtml\"><table><thead><tr><th>Group Description</th><th>Code System</th><th>Code</th><th>Code Description</th><th>Severity</th><th>Susceptibility</th><th>Date and Time</th><th>Status</th></tr></thead><tbody><tr><td>Allergy to Eggs</td><td>UNII</td><td>291P45F896</td><td><span/>Eggs</td><td><span/>Moderate to severe</td><td>Susceptible</td><td>03-31-2010 10:00:00</td><td>Active</td></tr><tr><td/><td>ICD-9-CM</td><td>V15.03</td><td>Allergy to eggs</td><td/><td/><td/><td/></tr><tr><td>Fosfomycin</td><td>RxNorm</td><td>808917</td><td><span/>Fosfomycin 33.3 MG/ML Oral Suspension</td><td><span/>Moderate</td><td>Moderately Susceptible</td><td>03-31-2010 10:00:00</td><td>Active</td></tr><tr><td>Tetracyclines</td><td>RxNorm</td><td>406524</td><td><span/>Doxycycline 75 MG Enteric Coated Tablet</td><td><span/>Moderate to severe</td><td>Susceptible</td><td>03-31-2010 10:00:00</td><td>Active</td></tr><tr><td/><td>NDF-RT</td><td>N0000006275</td><td>Tetracycline</td><td/><td/><td/><td/></tr></tbody></table></div>"
        },
        "mode": "snapshot",
        "entry": [ {
          "reference": "AllergyIntolerance/60b66693-0980-4e03-8d14-a587845076e3",
          "display": "Fosfomycin + Fosfomycin 33.3 MG/ML Oral Suspension"
        }, {
          "reference": "AllergyIntolerance/95376a0e-426d-4bd4-a81a-0ece5601058c",
          "display": "Allergy to Eggs + Eggs"
        }, {
          "reference": "AllergyIntolerance/1e4918de-5195-46ac-912b-2a69095dcc1a",
          "display": "Tetracyclines + Doxycycline 75 MG Enteric Coated Tablet"
        } ]
      }, {
        "title": "Procedures",
        "code": {
          "coding": [ {
            "system": "http://loinc.org",
            "code": "47519-4",
            "display": "HISTORY OF PROCEDURES"
          } ]
        },
        "text": {
          "status": "additional",
          "div": "<div xmlns=\"http://www.w3.org/1999/xhtml\"><table><thead><tr><th>Group Description</th><th>Code System</th><th>Code</th><th>Code Description</th><th>Date and Time</th><th>Status</th></tr></thead><tbody><tr><td>Eye Exam</td><td>CPT</td><td>92012</td><td><span/>Eye exam established pat</td><td>03-31-2010 10:00:00</td><td>Performed</td></tr><tr><td/><td>HCPCS</td><td>S0621</td><td>Routine ophthalmological exa</td><td/><td/></tr><tr><td/><td>ICD-9-CM</td><td>95.03</td><td>Extended ophthalmologic work-up</td><td/><td/></tr><tr><td/><td>SNOMED-CT</td><td>36228007</td><td>Ophthalmic examination and evaluation</td><td/><td/></tr><tr><td>Foot Exam</td><td>SNOMED-CT</td><td>401191002</td><td><span/>Diabetic foot examination</td><td>03-31-2010 10:00:00</td><td>Performed</td></tr><tr><td>Foot Exam</td><td>SNOMED-CT</td><td>401191002</td><td><span/>Diabetic foot examination</td><td>05-23-2010 10:00:00</td><td>Performed</td></tr><tr><td>Nephropathy Screening</td><td>CPT</td><td>90935</td><td><span/>Hemodialysis, one evaluation</td><td>05-23-2010 10:00:00</td><td>Ordered</td></tr><tr><td/><td>LOINC</td><td>1754-1</td><td>Albumin Ur-mCnc</td><td/><td/></tr><tr><td/><td>SNOMED-CT</td><td>171234009</td><td>Nephropathy screening</td><td/><td/></tr><tr><td>Foot Exam</td><td>SNOMED-CT</td><td>401191002</td><td><span/>Diabetic foot examination</td><td>08-10-2010 10:00:00</td><td>Performed</td></tr><tr><td>Colonoscopy</td><td>CPT</td><td>45378</td><td><span/>Diagnostic colonoscopy</td><td>09-24-2010 10:00:00</td><td>Performed</td></tr><tr><td/><td>HCPCS</td><td>G0121</td><td>Colon ca scrn not hi rsk ind</td><td/><td/></tr><tr><td/><td>ICD-10-CM</td><td>Z12.11</td><td>Encounter for screening for malignant neoplasm of colon</td><td/><td/></tr><tr><td/><td>ICD-9-CM</td><td>45.23</td><td>Colonoscopy</td><td/><td/></tr><tr><td/><td>SNOMED-CT</td><td>174184006</td><td>Diagnostic endoscopic examination on colon</td><td/><td/></tr><tr><td>Foot Exam</td><td>SNOMED-CT</td><td>401191002</td><td><span/>Diabetic foot examination</td><td>11-27-2010 10:00:00</td><td>Performed</td></tr></tbody></table></div>"
        },
        "mode": "snapshot"
      }, {
        "title": "Social History",
        "code": {
          "coding": [ {
            "system": "http://loinc.org",
            "code": "29762-2",
            "display": "Social History"
          } ]
        },
        "text": {
          "status": "additional",
          "div": "<div xmlns=\"http://www.w3.org/1999/xhtml\"><table><thead><tr><th>Group Description</th><th>Code System</th><th>Code</th><th>Code Description</th><th>Date and Time</th><th>Status</th></tr></thead><tbody><tr><td>Tobacco Use</td><td>SNOMED-CT</td><td>266919005</td><td><span/>Never smoker (Never Smoked)</td><td>03-31-2010 10:00:00</td><td>Active</td></tr><tr><td/><td>SNOMED-CT</td><td>449868002</td><td>Current every day smoker</td><td/><td/></tr></tbody></table></div>"
        },
        "mode": "snapshot",
        "entry": [ {
          "reference": "Observation/1ec81040-12f9-43ba-8e47-728e6e53dcb8"
        } ]
      }, {
        "title": "Problems",
        "code": {
          "coding": [ {
            "system": "http://loinc.org",
            "code": "11450-4",
            "display": "PROBLEM LIST"
          } ]
        },
        "text": {
          "status": "additional",
          "div": "<div xmlns=\"http://www.w3.org/1999/xhtml\"><table><thead><tr><th>Group Description</th><th>Code System</th><th>Code</th><th>Code Description</th><th>Date and Time</th><th>Status</th></tr></thead><tbody><tr><td>Diabetes</td><td>SNOMED-CT</td><td>44054006</td><td><span/>Diabetes mellitus type 2</td><td>03-31-2010 10:00:00</td><td>Active</td></tr><tr><td/><td>ICD-10-CM</td><td>E11.9</td><td>Type 2 diabetes mellitus without complications</td><td/><td/></tr><tr><td/><td>ICD-9-CM</td><td>250.00</td><td>Diabetes mellitus without mention of complication, type II or unspecified type, not stated as uncontrolled</td><td/><td/></tr><tr><td>Diabetic Retinopathy</td><td>SNOMED-CT</td><td>312904009</td><td><span/>Moderate nonproliferative diabetic retinopathy</td><td>05-23-2010 10:00:00</td><td>Active</td></tr><tr><td/><td>ICD-10-CM</td><td>E13.33</td><td>Other specified diabetes mellitus with moderate nonproliferative diabetic retinopathy</td><td/><td/></tr><tr><td/><td>ICD-9-CM</td><td>362.05</td><td>Moderate nonproliferative diabetic retinopathy</td><td/><td/></tr></tbody></table></div>"
        },
        "mode": "snapshot",
        "entry": [ {
          "reference": "Condition/069443c9-cda0-4ba0-8670-e850c49aa203",
          "display": "Moderate nonproliferative diabetic retinopathy"
        } ]
      } ]
    }
  }, {
    "resource": {
      "resourceType": "Patient",
      "id": "b9c834cf-d2f0-40be-beda-95a6025204f2",
      "extension": [ {
        "url": "http://hl7.org/fhir/StructureDefinition/patient-religion",
        "valueCodeableConcept": {
          "coding": [ {
            "system": "urn:oid:2.16.840.1.113883.5.1076",
            "code": "1077",
            "display": "Protestant"
          } ]
        }
      }, {
        "url": "http://hl7.org/fhir/us/core/StructureDefinition/us-core-race",
        "extension": [ {
          "url": "text",
          "valueString": "Other Race"
        }, {
          "url": "ombCategory",
          "valueCoding": {
            "system": "urn:oid:2.16.840.1.113883.6.238",
            "code": "2131-1",
            "display": "Other Race"
          }
        } ]
      }, {
        "url": "http://hl7.org/fhir/us/core/StructureDefinition/us-core-ethnicity",
        "extension": [ {
          "url": "text",
          "valueString": "Not Hispanic or Latino"
        }, {
          "url": "ombCategory",
          "valueCoding": {
            "system": "urn:oid:2.16.840.1.113883.6.238",
            "code": "2186-5",
            "display": "Not Hispanic or Latino"
          }
        } ]
      }, {
        "url": "http://hl7.org/fhir/StructureDefinition/patient-birthPlace",
        "valueAddress": {
          "city": "Wilmington",
          "state": "DE",
          "postalCode": "19801",
          "country": "US"
        }
      } ],
      "identifier": [ {
        "use": "official",
        "system": "urn:oid:2.16.840.1.113883.19.5.99999.2",
        "value": "998991"
      }, {
        "use": "official",
        "system": "urn:oid:2.16.840.1.113883.4.1",
        "value": "111-00-2330"
      } ],
      "name": [ {
        "use": "usual",
        "family": "Craig",
        "given": [ "Terrance" ]
      } ],
      "telecom": [ {
        "system": "phone",
        "value": "(310)305-1418",
        "use": "mobile"
      } ],
      "gender": "male",
      "birthDate": "1945-10-01",
      "address": [ {
        "use": "home",
        "line": [ "227 Libby Street" ],
        "city": "Playa Del Rey",
        "state": "CA",
        "postalCode": "90291",
        "country": "US"
      } ],
      "maritalStatus": {
        "coding": [ {
          "system": "http://terminology.hl7.org/CodeSystem/v3-MaritalStatus",
          "code": "M",
          "display": "Married"
        } ]
      },
      "contact": [ {
        "relationship": [ {
          "coding": [ {
            "system": "http://terminology.hl7.org/CodeSystem/v2-0131",
            "code": "C",
            "display": "Emergency Contact"
          } ]
        } ],
        "name": {
          "family": "Rice",
          "given": [ "Sharon" ],
          "prefix": [ "Mrs." ]
        },
        "telecom": [ {
          "system": "phone",
          "value": "(850)301-4990",
          "use": "home"
        }, {
          "system": "email",
          "value": "SharonJRice@teleworm.us",
          "use": "work"
        } ],
        "address": {
          "use": "home",
          "line": [ "1787 Virgil Street" ],
          "city": "Fort Walton Beach",
          "state": "FL",
          "postalCode": "32548",
          "country": "US"
        }
      } ],
      "communication": [ {
        "language": {
          "coding": [ {
            "system": "urn:ietf:bcp:47",
            "code": "spa"
          } ]
        },
        "preferred": true
      } ],
      "managingOrganization": {
        "reference": "Organization/3225084c-4f7a-4a75-a426-b9851c960c62",
        "display": "Community Health and Hospitals"
      }
    }
  }, {
    "resource": {
      "resourceType": "Organization",
      "id": "3225084c-4f7a-4a75-a426-b9851c960c62",
      "identifier": [ {
        "use": "official",
        "value": "2.16.840.1.113883.4.6"
      } ],
      "name": "Community Health and Hospitals",
      "telecom": [ {
        "system": "phone",
        "value": " 555-555-5000",
        "use": "work"
      } ],
      "address": [ {
        "line": [ "1001 Village Avenue" ],
        "city": "Portland",
        "state": "OR",
        "postalCode": "99123",
        "country": "US"
      } ]
    }
  }, {
    "resource": {
      "resourceType": "Practitioner",
      "id": "dfc08eb9-5390-4661-8a77-68c64c7a76c0",
      "identifier": [ {
        "use": "official",
        "system": "urn:oid:2.16.840.1.113883.4.6",
        "value": "99999999"
      } ],
      "name": [ {
        "family": "Seven",
        "given": [ "Henry" ],
        "suffix": [ "MD" ]
      } ],
      "telecom": [ {
        "system": "phone",
        "value": "555-555-1002",
        "use": "work"
      } ],
      "address": [ {
        "line": [ "1002 Healthcare Drive" ],
        "city": "Portland",
        "state": "OR",
        "postalCode": "99123",
        "country": "US"
      } ]
    }
  }, {
    "resource": {
      "resourceType": "Practitioner",
      "id": "e846eb7d-79b2-4e8c-bf6e-0d97255818f2",
      "identifier": [ {
        "use": "official",
        "system": "http://hl7.org/fhir/sid/us-npi",
        "value": "999999999"
      } ],
      "name": [ {
        "family": "Seven",
        "given": [ "Henry" ]
      } ],
      "telecom": [ {
        "system": "phone",
        "value": "555-555-1002",
        "use": "work"
      } ],
      "address": [ {
        "line": [ "1001 Village Avenue" ],
        "city": "Portland",
        "state": "OR",
        "postalCode": "99123",
        "country": "US"
      } ]
    }
  }, {
    "resource": {
      "resourceType": "Practitioner",
      "id": "88ade2d3-cd03-4aa7-9e82-af5b387bfb43",
      "identifier": [ {
        "use": "official",
        "system": "http://hl7.org/fhir/sid/us-npi",
        "value": "PseudoMD-1"
      } ],
      "name": [ {
        "family": "Seven",
        "given": [ "Henry" ],
        "suffix": [ "MD" ]
      } ],
      "telecom": [ {
        "system": "phone",
        "value": "+1-555-555-5000",
        "use": "home"
      } ],
      "address": [ {
        "line": [ "1001 Village Avenue" ],
        "city": "Portland",
        "state": "OR",
        "postalCode": "99123",
        "country": "US"
      } ]
    }
  }, {
    "resource": {
      "resourceType": "Organization",
      "id": "679d24e8-9f5f-4ebf-8876-2a939a9eed86",
      "identifier": [ {
        "use": "official",
        "system": "urn:oid:2.16.840.1.113883.4.6",
        "value": "99999999"
      } ],
      "name": "Community Health and Hospitals",
      "telecom": [ {
        "system": "phone",
        "value": " 555-555-1002",
        "use": "work"
      } ],
      "address": [ {
        "use": "work",
        "line": [ "1002 Healthcare Drive" ],
        "city": "Portland",
        "state": "OR",
        "postalCode": "99123",
        "country": "US"
      } ]
    }
  }, {
    "resource": {
      "resourceType": "MedicationStatement",
      "id": "f63bc238-1d67-4ebb-ab55-bc3ee8d18662",
      "extension": [ {
        "url": "http://hl7.org/fhir/3.0/StructureDefinition/extension-MedicationStatement.status",
        "valueCode": "UNKNOWN"
      } ],
      "identifier": [ {
        "use": "official",
        "value": "cdbd33f0-6cde-11db-9fe1-0800200c9a66"
      } ],
      "status": "completed",
      "medicationReference": {
        "reference": "Medication/f1a63570-9621-49d1-b39e-29e102d4dcc2",
        "display": "Glyburide 2.5 MG / Metformin hydrochloride 500 MG Oral Tablet"
      },
      "subject": {
        "reference": "Patient/b9c834cf-d2f0-40be-beda-95a6025204f2",
        "display": "Terrance Craig"
      },
      "effectivePeriod": {
        "start": "2010-03-31T10:00:00+02:00"
      }
    }
  }, {
    "resource": {
      "resourceType": "Medication",
      "id": "f1a63570-9621-49d1-b39e-29e102d4dcc2",
      "code": {
        "coding": [ {
          "system": "http://www.nlm.nih.gov/research/umls/rxnorm",
          "code": "861748",
          "display": "Glyburide 2.5 MG / Metformin hydrochloride 500 MG Oral Tablet"
        } ]
      }
    }
  }, {
    "resource": {
      "resourceType": "Observation",
      "id": "c0cf6a7e-3c87-4ae6-a361-d6c0d8c8b9ae",
      "identifier": [ {
        "use": "official",
        "value": "c6f88321-67ad-11db-bd13-0800200c9a66"
      } ],
      "status": "final",
      "category": [ {
        "coding": [ {
          "system": "http://terminology.hl7.org/CodeSystem/observation-category",
          "code": "vital-signs",
          "display": "Vital Signs"
        } ]
      } ],
      "code": {
        "coding": [ {
          "system": "http://loinc.org",
          "code": "8462-4",
          "display": "BP Diastolic"
        } ]
      },
      "subject": {
        "reference": "Patient/b9c834cf-d2f0-40be-beda-95a6025204f2",
        "display": "Terrance Craig"
      },
      "effectivePeriod": {
        "start": "2010-08-10T10:00:00+02:00"
      },
      "valueQuantity": {
        "value": 82,
        "unit": "mm[Hg]",
        "system": "http://unitsofmeasure.org",
        "code": "mm[Hg]"
      }
    }
  }, {
    "resource": {
      "resourceType": "Observation",
      "id": "307d7e80-aed0-4b9f-b2cc-043c7d8860aa",
      "identifier": [ {
        "use": "official",
        "value": "c6f88321-67ad-11db-bd13-0800200c9a66"
      } ],
      "status": "final",
      "category": [ {
        "coding": [ {
          "system": "http://terminology.hl7.org/CodeSystem/observation-category",
          "code": "vital-signs",
          "display": "Vital Signs"
        } ]
      } ],
      "code": {
        "coding": [ {
          "system": "http://loinc.org",
          "code": "8480-6",
          "display": "BP Systolic"
        } ]
      },
      "subject": {
        "reference": "Patient/b9c834cf-d2f0-40be-beda-95a6025204f2",
        "display": "Terrance Craig"
      },
      "effectivePeriod": {
        "start": "2010-08-10T10:00:00+02:00"
      },
      "valueQuantity": {
        "value": 132,
        "unit": "mm[Hg]",
        "system": "http://unitsofmeasure.org",
        "code": "mm[Hg]"
      }
    }
  }, {
    "resource": {
      "resourceType": "Observation",
      "id": "71c5ec8f-cd2f-4867-aa95-68bc6cf342cf",
      "identifier": [ {
        "use": "official",
        "value": "c6f88321-67ad-11db-bd13-0800200c9a66"
      } ],
      "status": "final",
      "category": [ {
        "coding": [ {
          "system": "http://terminology.hl7.org/CodeSystem/observation-category",
          "code": "vital-signs",
          "display": "Vital Signs"
        } ]
      } ],
      "code": {
        "coding": [ {
          "system": "http://loinc.org",
          "code": "39156-5",
          "display": "BMI"
        } ]
      },
      "subject": {
        "reference": "Patient/b9c834cf-d2f0-40be-beda-95a6025204f2",
        "display": "Terrance Craig"
      },
      "effectivePeriod": {
        "start": "2010-08-10T10:00:00+02:00"
      },
      "valueQuantity": {
        "value": 28.2,
        "unit": "kg/m2",
        "system": "http://unitsofmeasure.org",
        "code": "kg/m2"
      }
    }
  }, {
    "resource": {
      "resourceType": "Observation",
      "id": "d6782b82-439a-4acb-86fd-6078e3048a05",
      "identifier": [ {
        "use": "official",
        "value": "c6f88321-67ad-11db-bd13-0800200c9a66"
      } ],
      "status": "final",
      "category": [ {
        "coding": [ {
          "system": "http://terminology.hl7.org/CodeSystem/observation-category",
          "code": "vital-signs",
          "display": "Vital Signs"
        } ]
      } ],
      "code": {
        "coding": [ {
          "system": "http://loinc.org",
          "code": "8480-6",
          "display": "BP Systolic"
        } ]
      },
      "subject": {
        "reference": "Patient/b9c834cf-d2f0-40be-beda-95a6025204f2",
        "display": "Terrance Craig"
      },
      "effectivePeriod": {
        "start": "2010-11-27T10:00:00+01:00"
      },
      "valueQuantity": {
        "value": 130,
        "unit": "mm[Hg]",
        "system": "http://unitsofmeasure.org",
        "code": "mm[Hg]"
      }
    }
  }, {
    "resource": {
      "resourceType": "Observation",
      "id": "7f26588f-e470-425a-be57-eb13b2fcb67d",
      "identifier": [ {
        "use": "official",
        "value": "c6f88321-67ad-11db-bd13-0800200c9a66"
      } ],
      "status": "final",
      "category": [ {
        "coding": [ {
          "system": "http://terminology.hl7.org/CodeSystem/observation-category",
          "code": "vital-signs",
          "display": "Vital Signs"
        } ]
      } ],
      "code": {
        "coding": [ {
          "system": "http://loinc.org",
          "code": "8462-4",
          "display": "BP Diastolic"
        } ]
      },
      "subject": {
        "reference": "Patient/b9c834cf-d2f0-40be-beda-95a6025204f2",
        "display": "Terrance Craig"
      },
      "effectivePeriod": {
        "start": "2010-11-27T10:00:00+01:00"
      },
      "valueQuantity": {
        "value": 85,
        "unit": "mm[Hg]",
        "system": "http://unitsofmeasure.org",
        "code": "mm[Hg]"
      }
    }
  }, {
    "resource": {
      "resourceType": "Observation",
      "id": "c38a3a3d-fadd-4c15-aa10-037017ce1b06",
      "identifier": [ {
        "use": "official",
        "value": "c6f88321-67ad-11db-bd13-0800200c9a66"
      } ],
      "status": "final",
      "category": [ {
        "coding": [ {
          "system": "http://terminology.hl7.org/CodeSystem/observation-category",
          "code": "vital-signs",
          "display": "Vital Signs"
        } ]
      } ],
      "code": {
        "coding": [ {
          "system": "http://loinc.org",
          "code": "39156-5",
          "display": "BMI"
        } ]
      },
      "subject": {
        "reference": "Patient/b9c834cf-d2f0-40be-beda-95a6025204f2",
        "display": "Terrance Craig"
      },
      "effectivePeriod": {
        "start": "2010-11-27T10:00:00+01:00"
      },
      "valueQuantity": {
        "value": 28.5,
        "unit": "kg/m2",
        "system": "http://unitsofmeasure.org",
        "code": "kg/m2"
      }
    }
  }, {
    "resource": {
      "resourceType": "Observation",
      "id": "8e7fc1af-72df-4af2-bef8-875f29024692",
      "identifier": [ {
        "use": "official",
        "value": "c6f88321-67ad-11db-bd13-0800200c9a66"
      } ],
      "status": "final",
      "category": [ {
        "coding": [ {
          "system": "http://terminology.hl7.org/CodeSystem/observation-category",
          "code": "vital-signs",
          "display": "Vital Signs"
        } ]
      } ],
      "code": {
        "coding": [ {
          "system": "http://loinc.org",
          "code": "8462-4",
          "display": "BP Diastolic"
        } ]
      },
      "subject": {
        "reference": "Patient/b9c834cf-d2f0-40be-beda-95a6025204f2",
        "display": "Terrance Craig"
      },
      "effectivePeriod": {
        "start": "2010-03-31T10:00:00+02:00"
      },
      "valueQuantity": {
        "value": 82,
        "unit": "mm[Hg]",
        "system": "http://unitsofmeasure.org",
        "code": "mm[Hg]"
      }
    }
  }, {
    "resource": {
      "resourceType": "Observation",
      "id": "fc2fdfeb-fb59-4dea-a3df-16a502fe39f8",
      "identifier": [ {
        "use": "official",
        "value": "c6f88321-67ad-11db-bd13-0800200c9a66"
      } ],
      "status": "final",
      "category": [ {
        "coding": [ {
          "system": "http://terminology.hl7.org/CodeSystem/observation-category",
          "code": "vital-signs",
          "display": "Vital Signs"
        } ]
      } ],
      "code": {
        "coding": [ {
          "system": "http://loinc.org",
          "code": "39156-5",
          "display": "BMI"
        } ]
      },
      "subject": {
        "reference": "Patient/b9c834cf-d2f0-40be-beda-95a6025204f2",
        "display": "Terrance Craig"
      },
      "effectivePeriod": {
        "start": "2010-03-31T10:00:00+02:00"
      },
      "valueQuantity": {
        "value": 27.8,
        "unit": "kg/m2",
        "system": "http://unitsofmeasure.org",
        "code": "kg/m2"
      }
    }
  }, {
    "resource": {
      "resourceType": "Observation",
      "id": "f8fc86d0-f1ac-4ffe-81dc-0460a7ac6cfd",
      "identifier": [ {
        "use": "official",
        "value": "c6f88321-67ad-11db-bd13-0800200c9a66"
      } ],
      "status": "final",
      "category": [ {
        "coding": [ {
          "system": "http://terminology.hl7.org/CodeSystem/observation-category",
          "code": "vital-signs",
          "display": "Vital Signs"
        } ]
      } ],
      "code": {
        "coding": [ {
          "system": "http://loinc.org",
          "code": "8480-6",
          "display": "BP Systolic"
        } ]
      },
      "subject": {
        "reference": "Patient/b9c834cf-d2f0-40be-beda-95a6025204f2",
        "display": "Terrance Craig"
      },
      "effectivePeriod": {
        "start": "2010-03-31T10:00:00+02:00"
      },
      "valueQuantity": {
        "value": 134,
        "unit": "mm[Hg]",
        "system": "http://unitsofmeasure.org",
        "code": "mm[Hg]"
      }
    }
  }, {
    "resource": {
      "resourceType": "Observation",
      "id": "c2e315db-c06b-441e-afd1-4a7de8430f55",
      "identifier": [ {
        "use": "official",
        "value": "c6f88321-67ad-11db-bd13-0800200c9a66"
      } ],
      "status": "final",
      "category": [ {
        "coding": [ {
          "system": "http://terminology.hl7.org/CodeSystem/observation-category",
          "code": "vital-signs",
          "display": "Vital Signs"
        } ]
      } ],
      "code": {
        "coding": [ {
          "system": "http://loinc.org",
          "code": "8462-4",
          "display": "BP Diastolic"
        } ]
      },
      "subject": {
        "reference": "Patient/b9c834cf-d2f0-40be-beda-95a6025204f2",
        "display": "Terrance Craig"
      },
      "effectivePeriod": {
        "start": "2010-05-23T10:00:00+02:00"
      },
      "valueQuantity": {
        "value": 86,
        "unit": "mm[Hg]",
        "system": "http://unitsofmeasure.org",
        "code": "mm[Hg]"
      }
    }
  }, {
    "resource": {
      "resourceType": "Observation",
      "id": "62d77e44-3fb9-4d3a-89ef-d5e7264d769c",
      "identifier": [ {
        "use": "official",
        "value": "c6f88321-67ad-11db-bd13-0800200c9a66"
      } ],
      "status": "final",
      "category": [ {
        "coding": [ {
          "system": "http://terminology.hl7.org/CodeSystem/observation-category",
          "code": "vital-signs",
          "display": "Vital Signs"
        } ]
      } ],
      "code": {
        "coding": [ {
          "system": "http://loinc.org",
          "code": "39156-5",
          "display": "BMI"
        } ]
      },
      "subject": {
        "reference": "Patient/b9c834cf-d2f0-40be-beda-95a6025204f2",
        "display": "Terrance Craig"
      },
      "effectivePeriod": {
        "start": "2010-05-23T10:00:00+02:00"
      },
      "valueQuantity": {
        "value": 27.4,
        "unit": "kg/m2",
        "system": "http://unitsofmeasure.org",
        "code": "kg/m2"
      }
    }
  }, {
    "resource": {
      "resourceType": "Observation",
      "id": "a4fe69ee-b43d-4959-bae6-ce9bc56abc35",
      "identifier": [ {
        "use": "official",
        "value": "c6f88321-67ad-11db-bd13-0800200c9a66"
      } ],
      "status": "final",
      "category": [ {
        "coding": [ {
          "system": "http://terminology.hl7.org/CodeSystem/observation-category",
          "code": "vital-signs",
          "display": "Vital Signs"
        } ]
      } ],
      "code": {
        "coding": [ {
          "system": "http://loinc.org",
          "code": "8480-6",
          "display": "BP Systolic"
        } ]
      },
      "subject": {
        "reference": "Patient/b9c834cf-d2f0-40be-beda-95a6025204f2",
        "display": "Terrance Craig"
      },
      "effectivePeriod": {
        "start": "2010-05-23T10:00:00+02:00"
      },
      "valueQuantity": {
        "value": 136,
        "unit": "mm[Hg]",
        "system": "http://unitsofmeasure.org",
        "code": "mm[Hg]"
      }
    }
  }, {
    "resource": {
      "resourceType": "DiagnosticReport",
      "id": "9c9ddda1-9fae-48a3-8b9a-db70dfb3f2cf",
      "identifier": [ {
        "use": "official",
        "value": "7d5a02b0-67a4-11db-bd13-0800200c9a66"
      } ],
      "status": "final",
      "category": [ {
        "coding": [ {
          "system": "http://terminology.hl7.org/CodeSystem/v2-0074",
          "code": "LAB",
          "display": "Laboratory"
        } ]
      } ],
      "code": {
        "coding": [ {
          "system": "http://snomed.info/sct",
          "code": "166312007",
          "display": "Blood Chemistry"
        } ]
      },
      "subject": {
        "reference": "Patient/b9c834cf-d2f0-40be-beda-95a6025204f2",
        "display": "Terrance Craig"
      },
      "result": [ {
        "reference": "Observation/db2900e9-3987-488a-98d8-f37d6ad8cd81",
        "display": "Hgb A1c MFr Bld"
      } ]
    }
  }, {
    "resource": {
      "resourceType": "Observation",
      "id": "db2900e9-3987-488a-98d8-f37d6ad8cd81",
      "identifier": [ {
        "use": "official",
        "value": "107c2dc0-67a5-11db-bd13-0800200c9a66"
      } ],
      "status": "final",
      "category": [ {
        "coding": [ {
          "system": "http://terminology.hl7.org/CodeSystem/observation-category",
          "code": "laboratory"
        } ]
      } ],
      "code": {
        "coding": [ {
          "system": "http://loinc.org",
          "code": "4548-4",
          "display": "Hgb A1c MFr Bld"
        }, {
          "system": "http://www.ama-assn.org/go/cpt",
          "code": "83036",
          "display": "Glycated hemoglobin test"
        }, {
          "system": "http://snomed.info/sct",
          "code": "43396009",
          "display": "Hemoglobin A1c measurement"
        } ]
      },
      "subject": {
        "reference": "Patient/b9c834cf-d2f0-40be-beda-95a6025204f2",
        "display": "Terrance Craig"
      },
      "effectivePeriod": {
        "start": "2010-03-31T10:00:00+02:00"
      },
      "valueQuantity": {
        "value": 7.1,
        "unit": "%",
        "system": "http://unitsofmeasure.org",
        "code": "%"
      },
      "interpretation": [ {
        "coding": [ {
          "system": "http://terminology.hl7.org/CodeSystem/v3-ObservationInterpretation",
          "code": "N"
        } ]
      } ],
      "referenceRange": [ {
        "text": "4-5.6%"
      } ]
    }
  }, {
    "resource": {
      "resourceType": "DiagnosticReport",
      "id": "489630fc-58c1-48d2-87c9-901c73094c07",
      "identifier": [ {
        "use": "official",
        "value": "7d5a02b0-67a4-11db-bd13-0800200c9a66"
      } ],
      "status": "final",
      "category": [ {
        "coding": [ {
          "system": "http://terminology.hl7.org/CodeSystem/v2-0074",
          "code": "LAB",
          "display": "Laboratory"
        } ]
      } ],
      "code": {
        "coding": [ {
          "system": "http://snomed.info/sct",
          "code": "166312007",
          "display": "Blood Chemistry"
        } ]
      },
      "subject": {
        "reference": "Patient/b9c834cf-d2f0-40be-beda-95a6025204f2",
        "display": "Terrance Craig"
      },
      "result": [ {
        "reference": "Observation/5ea17e98-70c2-42ae-8af1-15cce32aaff1",
        "display": "Hgb A1c MFr Bld"
      } ]
    }
  }, {
    "resource": {
      "resourceType": "Observation",
      "id": "5ea17e98-70c2-42ae-8af1-15cce32aaff1",
      "identifier": [ {
        "use": "official",
        "value": "107c2dc0-67a5-11db-bd13-0800200c9a66"
      } ],
      "status": "final",
      "category": [ {
        "coding": [ {
          "system": "http://terminology.hl7.org/CodeSystem/observation-category",
          "code": "laboratory"
        } ]
      } ],
      "code": {
        "coding": [ {
          "system": "http://loinc.org",
          "code": "4548-4",
          "display": "Hgb A1c MFr Bld"
        }, {
          "system": "http://www.ama-assn.org/go/cpt",
          "code": "83036",
          "display": "Glycated hemoglobin test"
        }, {
          "system": "http://snomed.info/sct",
          "code": "43396009",
          "display": "Hemoglobin A1c measurement"
        } ]
      },
      "subject": {
        "reference": "Patient/b9c834cf-d2f0-40be-beda-95a6025204f2",
        "display": "Terrance Craig"
      },
      "effectivePeriod": {
        "start": "2010-08-10T10:00:00+02:00"
      },
      "valueQuantity": {
        "value": 6.3,
        "unit": "%",
        "system": "http://unitsofmeasure.org",
        "code": "%"
      },
      "interpretation": [ {
        "coding": [ {
          "system": "http://terminology.hl7.org/CodeSystem/v3-ObservationInterpretation",
          "code": "N"
        } ]
      } ],
      "referenceRange": [ {
        "text": "4-5.6%"
      } ]
    }
  }, {
    "resource": {
      "resourceType": "DiagnosticReport",
      "id": "255c9283-68dd-49c2-9cc5-03744d4832b0",
      "identifier": [ {
        "use": "official",
        "value": "7d5a02b0-67a4-11db-bd13-0800200c9a66"
      } ],
      "status": "final",
      "category": [ {
        "coding": [ {
          "system": "http://terminology.hl7.org/CodeSystem/v2-0074",
          "code": "LAB",
          "display": "Laboratory"
        } ]
      } ],
      "code": {
        "coding": [ {
          "system": "http://snomed.info/sct",
          "code": "166312007",
          "display": "Blood Chemistry"
        } ]
      },
      "subject": {
        "reference": "Patient/b9c834cf-d2f0-40be-beda-95a6025204f2",
        "display": "Terrance Craig"
      },
      "result": [ {
        "reference": "Observation/e6b575c7-a730-4a25-b761-810e8fbb501b",
        "display": "Hgb A1c MFr Bld"
      } ]
    }
  }, {
    "resource": {
      "resourceType": "Observation",
      "id": "e6b575c7-a730-4a25-b761-810e8fbb501b",
      "identifier": [ {
        "use": "official",
        "value": "107c2dc0-67a5-11db-bd13-0800200c9a66"
      } ],
      "status": "final",
      "category": [ {
        "coding": [ {
          "system": "http://terminology.hl7.org/CodeSystem/observation-category",
          "code": "laboratory"
        } ]
      } ],
      "code": {
        "coding": [ {
          "system": "http://loinc.org",
          "code": "4548-4",
          "display": "Hgb A1c MFr Bld"
        }, {
          "system": "http://www.ama-assn.org/go/cpt",
          "code": "83036",
          "display": "Glycated hemoglobin test"
        }, {
          "system": "http://snomed.info/sct",
          "code": "43396009",
          "display": "Hemoglobin A1c measurement"
        } ]
      },
      "subject": {
        "reference": "Patient/b9c834cf-d2f0-40be-beda-95a6025204f2",
        "display": "Terrance Craig"
      },
      "effectivePeriod": {
        "start": "2010-11-27T10:00:00+01:00"
      },
      "valueQuantity": {
        "value": 6.8,
        "unit": "%",
        "system": "http://unitsofmeasure.org",
        "code": "%"
      },
      "interpretation": [ {
        "coding": [ {
          "system": "http://terminology.hl7.org/CodeSystem/v3-ObservationInterpretation",
          "code": "N"
        } ]
      } ],
      "referenceRange": [ {
        "text": "4-5.6%"
      } ]
    }
  }, {
    "resource": {
      "resourceType": "DiagnosticReport",
      "id": "d986183e-d6fc-43ab-bb90-ce7de732008c",
      "identifier": [ {
        "use": "official",
        "value": "7d5a02b0-67a4-11db-bd13-0800200c9a66"
      } ],
      "status": "final",
      "category": [ {
        "coding": [ {
          "system": "http://terminology.hl7.org/CodeSystem/v2-0074",
          "code": "LAB",
          "display": "Laboratory"
        } ]
      } ],
      "code": {
        "coding": [ {
          "system": "http://snomed.info/sct",
          "code": "166312007",
          "display": "Blood Chemistry"
        } ]
      },
      "subject": {
        "reference": "Patient/b9c834cf-d2f0-40be-beda-95a6025204f2",
        "display": "Terrance Craig"
      },
      "result": [ {
        "reference": "Observation/10f8be51-35c1-4544-b071-ebab85615558",
        "display": "Hgb A1c MFr Bld"
      } ]
    }
  }, {
    "resource": {
      "resourceType": "Observation",
      "id": "10f8be51-35c1-4544-b071-ebab85615558",
      "identifier": [ {
        "use": "official",
        "value": "107c2dc0-67a5-11db-bd13-0800200c9a66"
      } ],
      "status": "final",
      "category": [ {
        "coding": [ {
          "system": "http://terminology.hl7.org/CodeSystem/observation-category",
          "code": "laboratory"
        } ]
      } ],
      "code": {
        "coding": [ {
          "system": "http://loinc.org",
          "code": "4548-4",
          "display": "Hgb A1c MFr Bld"
        }, {
          "system": "http://www.ama-assn.org/go/cpt",
          "code": "83036",
          "display": "Glycated hemoglobin test"
        }, {
          "system": "http://snomed.info/sct",
          "code": "43396009",
          "display": "Hemoglobin A1c measurement"
        } ]
      },
      "subject": {
        "reference": "Patient/b9c834cf-d2f0-40be-beda-95a6025204f2",
        "display": "Terrance Craig"
      },
      "effectivePeriod": {
        "start": "2010-05-23T10:00:00+02:00"
      },
      "valueQuantity": {
        "value": 6.8,
        "unit": "%",
        "system": "http://unitsofmeasure.org",
        "code": "%"
      },
      "interpretation": [ {
        "coding": [ {
          "system": "http://terminology.hl7.org/CodeSystem/v3-ObservationInterpretation",
          "code": "N"
        } ]
      } ],
      "referenceRange": [ {
        "text": "4-5.6%"
      } ]
    }
  }, {
    "resource": {
      "resourceType": "Encounter",
      "id": "e692f8b4-522f-4aa8-a30d-da24827bd568",
      "identifier": [ {
        "use": "official",
        "value": "2a620155-9d11-439e-92b3-5d9815ff4de8"
      } ],
      "status": "finished",
      "type": [ {
        "coding": [ {
          "system": "http://www.ama-assn.org/go/cpt",
          "code": "99213",
          "display": "Office/outpatient visit, est"
        }, {
          "system": "urn:oid:2.16.840.1.113883.6.103",
          "code": "V70.0",
          "display": "Routine general medical examination at a health care facility"
        } ]
      } ],
      "subject": {
        "reference": "Patient/b9c834cf-d2f0-40be-beda-95a6025204f2",
        "display": "Terrance Craig"
      },
      "period": {
        "start": "2010-05-23T10:00:00+02:00"
      },
      "reasonCode": [ {
        "coding": [ {
          "system": "http://snomed.info/sct",
          "code": "312904009",
          "display": "Diabetic Retinopathy"
        } ]
      } ],
      "reasonReference": [ {
        "reference": "Condition/4515c3d6-e965-47ae-b635-c09967553eaf",
        "display": "Diabetic Retinopathy"
      } ]
    }
  }, {
    "resource": {
      "resourceType": "Condition",
      "id": "4515c3d6-e965-47ae-b635-c09967553eaf",
      "identifier": [ {
        "use": "official",
        "system": "urn:uuid:db734647-fc99-424c-a864-7e3cda82e703",
        "value": "45665"
      } ],
      "clinicalStatus": {
        "coding": [ {
          "system": "http://terminology.hl7.org/CodeSystem/condition-clinical",
          "code": "active",
          "display": "Active"
        } ]
      },
      "category": [ {
        "coding": [ {
          "system": "http://hl7.org/fhir/condition-category",
          "code": "encounter-diagnosis",
          "display": "Encounter Diagnosis"
        } ]
      } ],
      "code": {
        "coding": [ {
          "system": "http://snomed.info/sct",
          "code": "312904009",
          "display": "Diabetic Retinopathy"
        }, {
          "system": "urn:oid:2.16.840.1.113883.6.90",
          "code": "E13.33",
          "display": "Other specified diabetes mellitus with moderate nonproliferative diabetic retinopathy"
        }, {
          "system": "urn:oid:2.16.840.1.113883.6.103",
          "code": "362.05",
          "display": "Moderate nonproliferative diabetic retinopathy"
        } ]
      },
      "subject": {
        "reference": "Patient/b9c834cf-d2f0-40be-beda-95a6025204f2",
        "display": "Terrance Craig"
      },
      "onsetDateTime": "2010-05-23T10:00:00+02:00"
    }
  }, {
    "resource": {
      "resourceType": "Encounter",
      "id": "e7e1b189-1fb4-4e50-a2c4-5bd692f6b1cb",
      "identifier": [ {
        "use": "official",
        "value": "2a620155-9d11-439e-92b3-5d9815ff4de8"
      } ],
      "status": "finished",
      "type": [ {
        "coding": [ {
          "system": "http://www.ama-assn.org/go/cpt",
          "code": "92012",
          "display": "Eye exam established pat"
        } ]
      } ],
      "subject": {
        "reference": "Patient/b9c834cf-d2f0-40be-beda-95a6025204f2",
        "display": "Terrance Craig"
      },
      "period": {
        "start": "2010-08-10T10:00:00+02:00"
      }
    }
  }, {
    "resource": {
      "resourceType": "Encounter",
      "id": "9af055db-333e-4af0-8b8e-ae8d08c961bb",
      "identifier": [ {
        "use": "official",
        "value": "2a620155-9d11-439e-92b3-5d9815ff4de8"
      } ],
      "status": "finished",
      "type": [ {
        "coding": [ {
          "system": "http://www.ama-assn.org/go/cpt",
          "code": "92012",
          "display": "Eye exam established pat"
        } ]
      } ],
      "subject": {
        "reference": "Patient/b9c834cf-d2f0-40be-beda-95a6025204f2",
        "display": "Terrance Craig"
      },
      "period": {
        "start": "2010-03-31T10:00:00+02:00"
      },
      "reasonCode": [ {
        "coding": [ {
          "system": "http://snomed.info/sct",
          "code": "44054006",
          "display": "Diabetes"
        } ]
      } ],
      "reasonReference": [ {
        "reference": "Condition/4515c3d6-e965-47ae-b635-c09967553eaf",
        "display": "Diabetic Retinopathy"
      } ]
    }
  }, {
    "resource": {
      "resourceType": "Encounter",
      "id": "b7b13fa0-3653-4f72-9a9a-8abf446499a4",
      "identifier": [ {
        "use": "official",
        "value": "2a620155-9d11-439e-92b3-5d9815ff4de8"
      } ],
      "status": "finished",
      "type": [ {
        "coding": [ {
          "system": "http://www.ama-assn.org/go/cpt",
          "code": "99213",
          "display": "Office/outpatient visit, est"
        }, {
          "system": "urn:oid:2.16.840.1.113883.6.103",
          "code": "V70.0",
          "display": "Routine general medical examination at a health care facility"
        } ]
      } ],
      "subject": {
        "reference": "Patient/b9c834cf-d2f0-40be-beda-95a6025204f2",
        "display": "Terrance Craig"
      },
      "period": {
        "start": "2010-11-27T10:00:00+01:00"
      }
    }
  }, {
    "resource": {
      "resourceType": "AllergyIntolerance",
      "id": "60b66693-0980-4e03-8d14-a587845076e3",
      "identifier": [ {
        "use": "official",
        "value": "36e3e930-7b14-11db-9fe1-0800200c9a66"
      } ],
      "clinicalStatus": {
        "coding": [ {
          "system": "http://terminology.hl7.org/CodeSystem/allergyintolerance-clinical",
          "code": "active",
          "display": "Active"
        } ]
      },
      "verificationStatus": {
        "coding": [ {
          "system": "http://terminology.hl7.org/CodeSystem/allergyintolerance-verification",
          "code": "confirmed",
          "display": "Confirmed"
        } ]
      },
      "type": "allergy",
      "category": [ "medication" ],
      "code": {
        "coding": [ {
          "system": "http://www.nlm.nih.gov/research/umls/rxnorm",
          "code": "808917",
          "display": "Fosfomycin 33.3 MG/ML Oral Suspension"
        } ],
        "text": "Fosfomycin + Fosfomycin 33.3 MG/ML Oral Suspension"
      },
      "patient": {
        "reference": "Patient/b9c834cf-d2f0-40be-beda-95a6025204f2",
        "display": "Terrance Craig"
      },
      "recordedDate": "2010-03-31T10:00:00+02:00"
    }
  }, {
    "resource": {
      "resourceType": "AllergyIntolerance",
      "id": "95376a0e-426d-4bd4-a81a-0ece5601058c",
      "identifier": [ {
        "use": "official",
        "value": "36e3e930-7b14-11db-9fe1-0800200c9a66"
      } ],
      "clinicalStatus": {
        "coding": [ {
          "system": "http://terminology.hl7.org/CodeSystem/allergyintolerance-clinical",
          "code": "active",
          "display": "Active"
        } ]
      },
      "verificationStatus": {
        "coding": [ {
          "system": "http://terminology.hl7.org/CodeSystem/allergyintolerance-verification",
          "code": "confirmed",
          "display": "Confirmed"
        } ]
      },
      "type": "allergy",
      "category": [ "food" ],
      "code": {
        "coding": [ {
          "system": "http://fdasis.nlm.nih.gov",
          "code": "291P45F896",
          "display": "Eggs"
        }, {
          "system": "urn:oid:2.16.840.1.113883.6.103",
          "code": "V15.03",
          "display": "Allergy to eggs"
        } ],
        "text": "Allergy to Eggs + Eggs"
      },
      "patient": {
        "reference": "Patient/b9c834cf-d2f0-40be-beda-95a6025204f2",
        "display": "Terrance Craig"
      },
      "recordedDate": "2010-03-31T10:00:00+02:00"
    }
  }, {
    "resource": {
      "resourceType": "AllergyIntolerance",
      "id": "1e4918de-5195-46ac-912b-2a69095dcc1a",
      "identifier": [ {
        "use": "official",
        "value": "36e3e930-7b14-11db-9fe1-0800200c9a66"
      } ],
      "clinicalStatus": {
        "coding": [ {
          "system": "http://terminology.hl7.org/CodeSystem/allergyintolerance-clinical",
          "code": "active",
          "display": "Active"
        } ]
      },
      "verificationStatus": {
        "coding": [ {
          "system": "http://terminology.hl7.org/CodeSystem/allergyintolerance-verification",
          "code": "confirmed",
          "display": "Confirmed"
        } ]
      },
      "type": "allergy",
      "category": [ "medication" ],
      "code": {
        "coding": [ {
          "system": "http://www.nlm.nih.gov/research/umls/rxnorm",
          "code": "406524",
          "display": "Doxycycline 75 MG Enteric Coated Tablet"
        }, {
          "system": "urn:oid:2.16.840.1.113883.3.26.1.5",
          "code": "N0000006275",
          "display": "Tetracycline"
        } ],
        "text": "Tetracyclines + Doxycycline 75 MG Enteric Coated Tablet"
      },
      "patient": {
        "reference": "Patient/b9c834cf-d2f0-40be-beda-95a6025204f2",
        "display": "Terrance Craig"
      },
      "recordedDate": "2010-03-31T10:00:00+02:00"
    }
  }, {
    "resource": {
      "resourceType": "Observation",
      "id": "1ec81040-12f9-43ba-8e47-728e6e53dcb8",
      "identifier": [ {
        "use": "official",
        "system": "urn:oid:2.16.840.1.113883.19",
        "value": "123456789"
      } ],
      "status": "final",
      "code": {
        "coding": [ {
          "system": "urn:oid:2.16.840.1.113883.5.4",
          "code": "ASSERTION"
        } ]
      },
      "subject": {
        "reference": "Patient/b9c834cf-d2f0-40be-beda-95a6025204f2",
        "display": "Terrance Craig"
      },
      "effectivePeriod": {
        "start": "2010-03-31T10:00:00+02:00"
      },
      "valueCodeableConcept": {
        "coding": [ {
          "system": "http://snomed.info/sct",
          "code": "266919005",
          "display": "Never smoker (Never Smoked)"
        }, {
          "system": "http://snomed.info/sct",
          "code": "449868002",
          "display": "Current every day smoker"
        } ]
      }
    }
  }, {
    "resource": {
      "resourceType": "Condition",
      "id": "069443c9-cda0-4ba0-8670-e850c49aa203",
      "identifier": [ {
        "use": "official",
        "value": "9d3d416d-45ab-4da1-912f-4583e0632000"
      } ],
      "clinicalStatus": {
        "coding": [ {
          "system": "http://terminology.hl7.org/CodeSystem/condition-clinical",
          "code": "active",
          "display": "Active"
        } ]
      },
      "verificationStatus": {
        "coding": [ {
          "system": "http://terminology.hl7.org/CodeSystem/condition-ver-status",
          "code": "confirmed",
          "display": "Confirmed"
        } ]
      },
      "category": [ {
        "coding": [ {
          "system": "http://terminology.hl7.org/CodeSystem/condition-category",
          "code": "problem-list-item",
          "display": "Problem List Item"
        } ]
      } ],
      "code": {
        "coding": [ {
          "system": "http://snomed.info/sct",
          "code": "312904009",
          "display": "Moderate nonproliferative diabetic retinopathy"
        }, {
          "system": "urn:oid:2.16.840.1.113883.6.90",
          "code": "E13.33",
          "display": "Other specified diabetes mellitus with moderate nonproliferative diabetic retinopathy"
        }, {
          "system": "urn:oid:2.16.840.1.113883.6.103",
          "code": "362.05",
          "display": "Moderate nonproliferative diabetic retinopathy"
        } ]
      },
      "subject": {
        "reference": "Patient/b9c834cf-d2f0-40be-beda-95a6025204f2",
        "display": "Terrance Craig"
      },
      "onsetDateTime": "2010-05-23T10:00:00+02:00"
    }
  } ]
}