{
  "resourceType": "Bundle",
  "entry": [ {
    "resource": {
      "resourceType": "Composition",
      "id": "95d45f7d-3c8b-4d79-90ab-b17a627ec83a",
      "identifier": {
        "use": "official",
        "value": "db734647-fc99-424c-a864-7e3cda82e703"
      },
      "status": "preliminary",
      "type": {
        "coding": [ {
          "system": "http://loinc.org",
          "code": "34133-9",
          "display": "Summarization of Episode Note"
        } ]
      },
      "category": [ {
        "coding": [ {
          "system": "http://hl7.org/fhir/ValueSet/doc-classcodes",
          "code": "LP173421-7",
          "display": "Note"
        } ]
      } ],
      "subject": {
        "reference": "Patient/10a0dba5-f915-4d0a-a7c4-0e79a67ece0d",
        "display": "Charles Roberson"
      },
      "date": "2014-04-16T11:54:43+02:00",
      "author": [ {
        "reference": "Practitioner/44f590cb-7a4c-4502-a046-33f4d32abdc1",
        "display": "Henry Seven MD"
      } ],
      "title": "Community Health and Hospitals: Health Summary",
      "confidentiality": "N",
      "attester": [ {
        "mode": "legal",
        "time": "2013-04-18T09:00:00+05:00",
        "party": {
          "reference": "Practitioner/9bf2f533-42fb-4ccd-b43e-84fb8a46102a",
          "display": "Henry Seven"
        }
      }, {
        "mode": "professional",
        "time": "2014-04-16T11:54:43+02:00",
        "party": {
          "reference": "Practitioner/9bf2f533-42fb-4ccd-b43e-84fb8a46102a",
          "display": "Henry Seven"
        }
      } ],
      "custodian": {
        "reference": "Organization/7d06f880-a74b-4d28-8b39-2c10807c6bba",
        "display": "Community Health and Hospitals"
      },
      "event": [ {
        "period": {
          "start": "2009-07-14T10:00:00+02:00",
          "end": "2010-09-24T10:00:00+02:00"
        },
        "detail": [ {
          "reference": "Practitioner/1cfc22c4-68c4-4e01-89f9-bf87e91bd017",
          "display": "Henry Seven MD"
        } ]
      } ],
      "section": [ {
        "title": "Allergies,  Adverse Reactions & Alerts",
        "code": {
          "coding": [ {
            "system": "http://loinc.org",
            "code": "48765-2",
            "display": "Allergies, adverse reactions, alerts"
          } ]
        },
        "text": {
          "status": "additional",
          "div": "<div xmlns=\"http://www.w3.org/1999/xhtml\"><table><thead><tr><th>Group Description</th><th>Code System</th><th>Code</th><th>Code Description</th><th>Severity</th><th>Susceptibility</th><th>Date and Time</th><th>Status</th></tr></thead><tbody><tr><td>Allergy to Eggs</td><td>UNII</td><td>291P45F896</td><td><span/>Eggs</td><td><span/>Mild</td><td>Very susceptible</td><td>07-14-2009 10:00:00</td><td>Active</td></tr><tr><td/><td>ICD-9-CM</td><td>V15.03</td><td>Allergy to eggs</td><td/><td/><td/><td/></tr><tr><td>Amikacin</td><td>RxNorm</td><td>905148</td><td><span/>Amikacin Sulfate 50 MG/ML Injectable Solution</td><td><span/>Fatal</td><td>Very susceptible</td><td>07-14-2009 10:00:00</td><td>Active</td></tr><tr><td>Penicillin V</td><td>NDF-RT</td><td>N0000011298</td><td><span/>Penicillin V</td><td><span/>Fatal</td><td>Moderately Susceptible</td><td>07-14-2009 10:00:00</td><td>Active</td></tr></tbody></table></div>"
        },
        "mode": "snapshot",
        "entry": [ {
          "reference": "AllergyIntolerance/c14c0f56-f6ff-4569-8291-6e6ea9ae2fc0",
          "display": "Amikacin + Amikacin Sulfate 50 MG/ML Injectable Solution"
        }, {
          "reference": "AllergyIntolerance/7f144321-fda3-46bd-a8f5-7b15356a0f8e",
          "display": "Penicillin V + Penicillin V"
        }, {
          "reference": "AllergyIntolerance/f411b0aa-f24f-4206-a77b-8b7b29f41528",
          "display": "Allergy to Eggs + Eggs"
        } ]
      }, {
        "title": "Medications",
        "code": {
          "coding": [ {
            "system": "http://loinc.org",
            "code": "10160-0",
            "display": "History of Medication Use"
          } ]
        },
        "text": {
          "status": "additional",
          "div": "<div xmlns=\"http://www.w3.org/1999/xhtml\"><table><thead><tr><th>Group Description</th><th>Code System</th><th>Code</th><th>Code Description</th><th>Date and Time</th><th>Status</th></tr></thead><tbody><tr><td>Antiplatelets</td><td>RxNorm</td><td>243670</td><td><span/>Aspirin 81 MG Oral Tablet</td><td>07-14-2009 10:00:00</td><td>Active</td></tr><tr><td>Long acting inhaled beta 2 agonist</td><td>RxNorm</td><td>318142</td><td><span/>salmeterol 0.05 MG/ACTUAT Inhalant Powder</td><td>07-14-2009 10:00:00</td><td>Active</td></tr><tr><td>Short acting beta 2 agonist</td><td>RxNorm</td><td>630208</td><td><span/>Albuterol 0.83 MG/ML Inhalant Solution</td><td>07-14-2009 10:00:00</td><td>Active</td></tr><tr><td>ACE inhibitor or ARB</td><td>RxNorm</td><td>314076</td><td><span/>Lisinopril 10 MG Oral Tablet</td><td>07-20-2009 10:00:00</td><td>Active</td></tr><tr><td>ACE inhibitor or ARB</td><td>RxNorm</td><td>314076</td><td><span/>Lisinopril 10 MG Oral Tablet</td><td>02-04-2010 10:00:00</td><td>Active</td></tr><tr><td>Antihypertensive combinations</td><td>RxNorm</td><td>858828</td><td><span/>Enalapril Maleate 10 MG / Hydrochlorothiazide 25 MG Oral Tablet</td><td>02-04-2010 10:00:00</td><td>Active</td></tr><tr><td>Antiplatelets</td><td>RxNorm</td><td>243670</td><td><span/>Aspirin 81 MG Oral Tablet</td><td>03-31-2010 10:00:00</td><td>Active</td></tr></tbody></table></div>"
        },
        "mode": "snapshot",
        "entry": [ {
          "reference": "MedicationStatement/29796523-046a-4379-aaa7-29ec4c7ac161",
          "display": "Aspirin 81 MG Oral Tablet"
        }, {
          "reference": "MedicationStatement/85df9968-c9f2-4b00-9930-1b9acde7faa3",
          "display": "Albuterol 0.83 MG/ML Inhalant Solution"
        }, {
          "reference": "MedicationStatement/54a32182-bfb3-4b86-9cda-90bdea512249",
          "display": "salmeterol 0.05 MG/ACTUAT Inhalant Powder"
        }, {
          "reference": "MedicationStatement/0108918d-74d5-43c5-ac9d-b8e491718ece",
          "display": "Aspirin 81 MG Oral Tablet"
        }, {
          "reference": "MedicationStatement/c5dc2377-5dd9-4317-88d3-6db3dcfcb131",
          "display": "Lisinopril 10 MG Oral Tablet"
        }, {
          "reference": "MedicationStatement/298b27ed-9d5f-4eeb-8d03-63ae24c949aa",
          "display": "Lisinopril 10 MG Oral Tablet"
        }, {
          "reference": "MedicationStatement/9ab86bb5-2a63-40aa-9f18-a4cd26fe95c0",
          "display": "Enalapril Maleate 10 MG / Hydrochlorothiazide 25 MG Oral Tablet"
        } ]
      }, {
        "title": "Social History",
        "code": {
          "coding": [ {
            "system": "http://loinc.org",
            "code": "29762-2",
            "display": "Social History"
          } ]
        },
        "text": {
          "status": "additional",
          "div": "<div xmlns=\"http://www.w3.org/1999/xhtml\"><table><thead><tr><th>Group Description</th><th>Code System</th><th>Code</th><th>Code Description</th><th>Date and Time</th><th>Status</th></tr></thead><tbody><tr><td>Tobacco Use</td><td>SNOMED-CT</td><td>266919005</td><td><span/>Never smoker (Never Smoked)</td><td>07-14-2009 10:00:00</td><td>Active</td></tr><tr><td/><td>SNOMED-CT</td><td>449868002</td><td>Current every day smoker</td><td/><td/></tr></tbody></table></div>"
        },
        "mode": "snapshot",
        "entry": [ {
          "reference": "Observation/bdb475fe-4ad6-4dc9-bf59-bd286ca00bef"
        } ]
      }, {
        "title": "Results",
        "code": {
          "coding": [ {
            "system": "http://loinc.org",
            "code": "30954-2",
            "display": "Results"
          } ]
        },
        "text": {
          "status": "additional",
          "div": "<div xmlns=\"http://www.w3.org/1999/xhtml\"><table><thead><tr><th>Group Description</th><th>Code System</th><th>Code</th><th>Code Description</th><th>Value</th><th>Unit</th><th>Reference Range</th><th>Date and Time</th><th>Status</th></tr></thead><tbody><tr><td>High Density Lipoprotein (HDL)</td><td>LOINC</td><td>14646-4</td><td><span/>HDLc SerPl-sCnc</td><td>55</td><td>mg/dL</td><td>&amp;gt;=40 mg/dL</td><td>05-10-2010 10:00:00</td><td>Completed</td></tr><tr><td/><td>CPT</td><td>83701</td><td>Lipoprotein bld, hr fraction</td><td/><td/><td/><td/><td/></tr><tr><td/><td>SNOMED-CT</td><td>28036006</td><td>High density lipoprotein cholesterol measurement</td><td/><td/><td/><td/><td/></tr><tr><td>Low Density Lipoprotein (LDL)</td><td>LOINC</td><td>2089-1</td><td><span/>LDLc SerPl-mCnc</td><td>93.2</td><td>mg/dL</td><td>&amp;lt;130 mg/dL (calc)</td><td>05-10-2010 10:00:00</td><td>Completed</td></tr><tr><td/><td>CPT</td><td>83721</td><td>Assay of blood lipoprotein</td><td/><td/><td/><td/><td/></tr><tr><td/><td>SNOMED-CT</td><td>113079009</td><td>Low density lipoprotein cholesterol measurement</td><td/><td/><td/><td/><td/></tr><tr><td>Total Cholesterol</td><td>LOINC</td><td>2093-3</td><td><span/>Cholest SerPl-mCnc</td><td>179</td><td>mg/dL</td><td>125-200 mg/dL</td><td>05-10-2010 10:00:00</td><td>Completed</td></tr><tr><td/><td>CPT</td><td>82465</td><td>Assay, bld/serum cholesterol</td><td/><td/><td/><td/><td/></tr><tr><td/><td>SNOMED-CT</td><td>121868005</td><td>Total cholesterol measurement</td><td/><td/><td/><td/><td/></tr><tr><td>Triglycerides</td><td>LOINC</td><td>12951-0</td><td><span/>Trigl SerPl Calc-mCnc</td><td>154</td><td>mg/dL</td><td>10-39 years: 55-110 mg/dL | 40-59 years: 70-150 mg/dL | &amp;gt;60 years: 80-150 mg/dL | Therapeutic Target: &amp;lt;100 mg/dL </td><td>05-10-2010 10:00:00</td><td>Completed</td></tr><tr><td/><td>CPT</td><td>84478</td><td>Assay of triglycerides</td><td/><td/><td/><td/><td/></tr><tr><td/><td>SNOMED-CT</td><td>14740000</td><td>Triglycerides measurement</td><td/><td/><td/><td/><td/></tr></tbody></table></div>"
        },
        "mode": "snapshot",
        "entry": [ {
          "reference": "DiagnosticReport/179b746b-2a50-40bb-9e9a-c279778bcc2c",
          "display": "Lipid Panel"
        } ]
      }, {
        "title": "Procedures",
        "code": {
          "coding": [ {
            "system": "http://loinc.org",
            "code": "47519-4",
            "display": "HISTORY OF PROCEDURES"
          } ]
        },
        "text": {
          "status": "additional",
          "div": "<div xmlns=\"http://www.w3.org/1999/xhtml\"><table><thead><tr><th>Group Description</th><th>Code System</th><th>Code</th><th>Code Description</th><th>Date and Time</th><th>Status</th></tr></thead><tbody><tr><td>CABG</td><td>CPT</td><td>33535</td><td><span/>CABG, arterial, three</td><td>07-14-2009 10:00:00</td><td>Performed</td></tr><tr><td/><td>HCPCS</td><td>C9607</td><td>Perc d-e cor revasc chro sin</td><td/><td/></tr><tr><td/><td>ICD-9-CM</td><td>36.13</td><td>(Aorto)coronary bypass of three coronary arteries</td><td/><td/></tr><tr><td/><td>SNOMED-CT</td><td>10326007</td><td>Coronary artery bypass with autogenous graft, three grafts</td><td/><td/></tr><tr><td>Cardiac Surgery</td><td>CPT</td><td>33535</td><td><span/>CABG, arterial, three</td><td>07-14-2009 10:00:00</td><td>Performed</td></tr><tr><td/><td>SNOMED-CT</td><td>10326007</td><td>Coronary artery bypass with autogenous graft, three grafts</td><td/><td/></tr><tr><td>Asthma Symptom Assessment Tool</td><td>SNOMED-CT</td><td>401011001</td><td><span/>Peak expiratory flow rate monitoring using diary</td><td>03-31-2010 10:00:00</td><td>Performed</td></tr></tbody></table></div>"
        },
        "mode": "snapshot",
        "entry": [ {
          "reference": "Procedure/28389414-8f46-4016-883a-0c746c263da2",
          "display": "CABG, arterial, three"
        }, {
          "reference": "Procedure/54400176-9e45-4a55-a98e-ce77c81dc3d6",
          "display": "CABG, arterial, three"
        } ]
      }, {
        "title": "Problems",
        "code": {
          "coding": [ {
            "system": "http://loinc.org",
            "code": "11450-4",
            "display": "PROBLEM LIST"
          } ]
        },
        "text": {
          "status": "additional",
          "div": "<div xmlns=\"http://www.w3.org/1999/xhtml\"><table><thead><tr><th>Group Description</th><th>Code System</th><th>Code</th><th>Code Description</th><th>Date and Time</th><th>Status</th></tr></thead><tbody><tr><td>Asthma</td><td>SNOMED-CT</td><td>195979001</td><td><span/>Asthma unspecified</td><td>07-14-2009 10:00:00</td><td>Active</td></tr><tr><td/><td>ICD-10-CM</td><td>J45</td><td>Asthma</td><td/><td/></tr><tr><td/><td>ICD-9-CM</td><td>493.92</td><td>Asthma, unspecified type, with (acute) exacerbation</td><td/><td/></tr><tr><td>Asthma Daytime Symptoms Quantified</td><td>SNOMED-CT</td><td>370202007</td><td><span/>Asthma causes daytime symptoms 1 to 2 times per month</td><td>07-14-2009 10:00:00</td><td>Active</td></tr><tr><td>Asthma Nighttime Symptoms Quantified</td><td>SNOMED-CT</td><td>370205009</td><td><span/>Asthma causes night symptoms 1 to 2 times per month</td><td>07-14-2009 10:00:00</td><td>Active</td></tr><tr><td>Coronary Artery Disease includes MI</td><td>SNOMED-CT</td><td>57054005</td><td><span/>Acute myocardial infarction</td><td>07-14-2009 10:00:00</td><td>Active</td></tr><tr><td/><td>ICD-10-CM</td><td>I21.3</td><td>ST elevation (STEMI) myocardial infarction of unspecified site</td><td/><td/></tr><tr><td/><td>ICD-9-CM</td><td>410.90</td><td>Acute myocardial infarction of unspecified site, episode of care unspecified</td><td/><td/></tr><tr><td>Hypertension</td><td>SNOMED-CT</td><td>59621000</td><td><span/>Essential hypertension</td><td>07-14-2009 10:00:00</td><td>Active</td></tr><tr><td/><td>ICD-10-CM</td><td>I10</td><td>Essential (primary) hypertension</td><td/><td/></tr><tr><td/><td>ICD-9-CM</td><td>401.9</td><td>Unspecified essential hypertension</td><td/><td/></tr><tr><td>Asthma Persistent</td><td>SNOMED-CT</td><td>427295004</td><td><span/>Moderate persistent asthma</td><td>07-20-2009 10:00:00</td><td>Active</td></tr><tr><td/><td>ICD-10-CM</td><td>J45.42</td><td>Moderate persistent asthma with status asthmaticus</td><td/><td/></tr><tr><td>Myocardial Infarction</td><td>SNOMED-CT</td><td>304914007</td><td><span/>Acute Q wave myocardial infarction</td><td>07-20-2009 10:00:00</td><td>Active</td></tr><tr><td/><td>ICD-10-CM</td><td>I21.3</td><td>ST elevation (STEMI) myocardial infarction of unspecified site</td><td/><td/></tr><tr><td/><td>ICD-9-CM</td><td>410.90</td><td>Acute myocardial infarction of unspecified site, episode of care unspecified</td><td/><td/></tr><tr><td>Asthma Daytime Symptoms Quantified</td><td>SNOMED-CT</td><td>370202007</td><td><span/>Asthma causes daytime symptoms 1 to 2 times per month</td><td>08-25-2010 10:00:00</td><td>Active</td></tr><tr><td>Asthma Nighttime Symptoms Quantified</td><td>SNOMED-CT</td><td>370205009</td><td><span/>Asthma causes night symptoms 1 to 2 times per month</td><td>08-25-2010 10:00:00</td><td>Active</td></tr></tbody></table></div>"
        },
        "mode": "snapshot",
        "entry": [ {
          "reference": "Condition/de4bddf1-b72f-44d8-bee5-9d2b1dbc7fd3",
          "display": "Acute Q wave myocardial infarction"
        } ]
      }, {
        "title": "Vital Signs",
        "code": {
          "coding": [ {
            "system": "http://loinc.org",
            "code": "8716-3",
            "display": "Vital Signs"
          } ]
        },
        "text": {
          "status": "additional",
          "div": "<div xmlns=\"http://www.w3.org/1999/xhtml\"><table><thead><tr><th>Group Description</th><th>Code System</th><th>Code</th><th>Code Description</th><th>Value</th><th>Unit</th><th>Date and Time</th><th>Status</th></tr></thead><tbody><tr><td>BMI</td><td>LOINC</td><td>39156-5</td><td><span/>BMI</td><td>23.6</td><td>kg/m2</td><td>03-31-2010 10:00:00</td><td>Finding</td></tr><tr><td>Diastolic Blood Pressure</td><td>LOINC</td><td>8462-4</td><td><span/>BP Diastolic</td><td>98</td><td>mm[Hg]</td><td>03-31-2010 10:00:00</td><td>Finding</td></tr><tr><td>Systolic Blood Pressure</td><td>LOINC</td><td>8480-6</td><td><span/>BP Systolic</td><td>154</td><td>mm[Hg]</td><td>03-31-2010 10:00:00</td><td>Finding</td></tr><tr><td>BMI</td><td>LOINC</td><td>39156-5</td><td><span/>BMI</td><td>24</td><td>kg/m2</td><td>05-10-2010 10:00:00</td><td>Finding</td></tr><tr><td>Diastolic Blood Pressure</td><td>LOINC</td><td>8462-4</td><td><span/>BP Diastolic</td><td>84</td><td>mm[Hg]</td><td>05-10-2010 10:00:00</td><td>Finding</td></tr><tr><td>Systolic Blood Pressure</td><td>LOINC</td><td>8480-6</td><td><span/>BP Systolic</td><td>135</td><td>mm[Hg]</td><td>05-10-2010 10:00:00</td><td>Finding</td></tr><tr><td>BMI</td><td>LOINC</td><td>39156-5</td><td><span/>BMI</td><td>23.1</td><td>kg/m2</td><td>08-25-2010 10:00:00</td><td>Finding</td></tr><tr><td>BMI</td><td>LOINC</td><td>39156-5</td><td><span/>BMI</td><td>22.8</td><td>kg/m2</td><td>09-24-2010 10:00:00</td><td>Finding</td></tr><tr><td>Diastolic Blood Pressure</td><td>LOINC</td><td>8462-4</td><td><span/>BP Diastolic</td><td>82</td><td>mm[Hg]</td><td>09-24-2010 10:00:00</td><td>Finding</td></tr><tr><td>Systolic Blood Pressure</td><td>LOINC</td><td>8480-6</td><td><span/>BP Systolic</td><td>134</td><td>mm[Hg]</td><td>09-24-2010 10:00:00</td><td>Finding</td></tr></tbody></table></div>"
        },
        "mode": "snapshot",
        "entry": [ {
          "reference": "Observation/c2f7d456-3c3c-48c9-9d18-fd2c44e5d393",
          "display": "BMI"
        }, {
          "reference": "Observation/e3ae088a-46d6-48d7-9c9e-39006a669f0b",
          "display": "BP Systolic"
        }, {
          "reference": "Observation/11942ef8-4d76-4cb2-a26c-868f689d7ffe",
          "display": "BP Diastolic"
        }, {
          "reference": "Observation/7238e985-2de8-4039-a871-48bcf18cd778",
          "display": "BMI"
        }, {
          "reference": "Observation/40e4240c-28a6-431b-ac2c-437332c46886",
          "display": "BP Systolic"
        }, {
          "reference": "Observation/18e1860e-5812-40e7-9e39-49fa745fc372",
          "display": "BP Diastolic"
        }, {
          "reference": "Observation/34112f07-5a26-41a8-b954-4dd9a45dba82",
          "display": "BP Systolic"
        }, {
          "reference": "Observation/9f703ed6-f356-470f-8cf5-ad227b612de0",
          "display": "BMI"
        }, {
          "reference": "Observation/9cff7af0-8de7-45d0-9e6d-1e68d1e5f71a",
          "display": "BP Diastolic"
        }, {
          "reference": "Observation/b4948264-f473-457d-89f5-7e06600d4917",
          "display": "BMI"
        } ]
      }, {
        "title": "Encounters",
        "code": {
          "coding": [ {
            "system": "http://loinc.org",
            "code": "46240-8",
            "display": "History of encounters"
          } ]
        },
        "text": {
          "status": "additional",
          "div": "<div xmlns=\"http://www.w3.org/1999/xhtml\"><table><thead><tr><th>Group Description</th><th>Code System</th><th>Code</th><th>Code Description</th><th>Date and Time</th><th>Status</th></tr></thead><tbody><tr><td>Encounter Acute Inpt</td><td>CPT</td><td>99251</td><td><span/>Initial inpatient consult</td><td>07-14-2009 10:00:00</td><td>Performed</td></tr><tr><td>Encounter Inpatient Discharge</td><td>CPT</td><td>99238</td><td><span/>Hospital discharge day</td><td>07-20-2009 10:00:00</td><td>Performed</td></tr><tr><td>Encounter Office &amp; Outpatient Consult</td><td>CPT</td><td>99241</td><td><span/>Office consultation</td><td>03-31-2010 10:00:00</td><td>Performed</td></tr><tr><td>Encounter Outpatient</td><td>CPT</td><td>99213</td><td><span/>Office/outpatient visit, est</td><td>05-10-2010 10:00:00</td><td>Performed</td></tr><tr><td/><td>ICD-9-CM</td><td>V70.0</td><td>Routine general medical examination at a health care facility</td><td/><td/></tr><tr><td>Encounter Office &amp; Outpatient Consult</td><td>CPT</td><td>99241</td><td><span/>Office consultation</td><td>08-25-2010 10:00:00</td><td>Performed</td></tr><tr><td>Encounter Outpatient</td><td>CPT</td><td>99213</td><td><span/>Office/outpatient visit, est</td><td>09-24-2010 10:00:00</td><td>Performed</td></tr><tr><td/><td>ICD-9-CM</td><td>V70.0</td><td>Routine general medical examination at a health care facility</td><td/><td/></tr></tbody></table></div>"
        },
        "mode": "snapshot",
        "entry": [ {
          "reference": "Encounter/fff2eb7d-d6d9-4ce9-a774-b9a1699d6bfb",
          "display": "Office consultation"
        }, {
          "reference": "Encounter/fc15300c-2890-4bbc-8870-0552449e19ba",
          "display": "Office/outpatient visit, est"
        }, {
          "reference": "Encounter/726b0e55-1c21-4050-9bf5-eaf0c2776cd2",
          "display": "Hospital discharge day"
        }, {
          "reference": "Encounter/30fd1909-ff3a-4ab9-ba52-3705da2ba5b4",
          "display": "Office/outpatient visit, est"
        }, {
          "reference": "Encounter/726e7e3d-093c-45a0-86de-492caf582399",
          "display": "Office consultation"
        }, {
          "reference": "Encounter/cc655aaf-53d0-4576-a6f5-7dd5f40c4aac",
          "display": "Initial inpatient consult"
        } ]
      } ]
    }
  }, {
    "resource": {
      "resourceType": "Patient",
      "id": "10a0dba5-f915-4d0a-a7c4-0e79a67ece0d",
      "extension": [ {
        "url": "http://hl7.org/fhir/StructureDefinition/patient-religion",
        "valueCodeableConcept": {
          "coding": [ {
            "system": "urn:oid:2.16.840.1.113883.5.1076",
            "code": "1077",
            "display": "Protestant"
          } ]
        }
      }, {
        "url": "http://hl7.org/fhir/us/core/StructureDefinition/us-core-race",
        "extension": [ {
          "url": "text",
          "valueString": "Other Race"
        }, {
          "url": "ombCategory",
          "valueCoding": {
            "system": "urn:oid:2.16.840.1.113883.6.238",
            "code": "2131-1",
            "display": "Other Race"
          }
        } ]
      }, {
        "url": "http://hl7.org/fhir/us/core/StructureDefinition/us-core-ethnicity",
        "extension": [ {
          "url": "text",
          "valueString": "Hispanic or Latino"
        }, {
          "url": "ombCategory",
          "valueCoding": {
            "system": "urn:oid:2.16.840.1.113883.6.238",
            "code": "2135-2",
            "display": "Hispanic or Latino"
          }
        } ]
      }, {
        "url": "http://hl7.org/fhir/StructureDefinition/patient-birthPlace",
        "valueAddress": {
          "city": "Ruidoso",
          "state": "NM",
          "postalCode": "88345",
          "country": "US"
        }
      } ],
      "identifier": [ {
        "use": "official",
        "system": "urn:oid:2.16.840.1.113883.19.5.99999.2",
        "value": "998991"
      }, {
        "use": "official",
        "system": "urn:oid:2.16.840.1.113883.4.1",
        "value": "111-00-2330"
      } ],
      "name": [ {
        "use": "usual",
        "family": "Roberson",
        "given": [ "Charles" ]
      } ],
      "telecom": [ {
        "system": "phone",
        "value": "(239)280-9894",
        "use": "mobile"
      } ],
      "gender": "male",
      "birthDate": "1959-04-19",
      "address": [ {
        "use": "home",
        "line": [ "3022 Sunburst Drive" ],
        "city": "Fort Myers",
        "state": "FL",
        "postalCode": "33901",
        "country": "US"
      } ],
      "maritalStatus": {
        "coding": [ {
          "system": "http://terminology.hl7.org/CodeSystem/v3-MaritalStatus",
          "code": "M",
          "display": "Married"
        } ]
      },
      "contact": [ {
        "relationship": [ {
          "coding": [ {
            "system": "http://terminology.hl7.org/CodeSystem/v2-0131",
            "code": "C",
            "display": "Emergency Contact"
          } ]
        } ],
        "name": {
          "family": "Cross",
          "given": [ "James" ],
          "prefix": [ "Mr." ]
        },
        "telecom": [ {
          "system": "phone",
          "value": "(602)437-8869",
          "use": "home"
        }, {
          "system": "email",
          "value": "JamesDCross@superrito.com",
          "use": "work"
        } ],
        "address": {
          "use": "home",
          "line": [ "335 Burnside Court" ],
          "city": "Phoenix",
          "state": "AZ",
          "postalCode": "85040",
          "country": "US"
        }
      } ],
      "communication": [ {
        "language": {
          "coding": [ {
            "system": "urn:ietf:bcp:47",
            "code": "spa"
          } ]
        },
        "preferred": true
      } ],
      "managingOrganization": {
        "reference": "Organization/c8c0620f-dfac-4e02-8e60-76fecf0d875a",
        "display": "Community Health and Hospitals"
      }
    }
  }, {
    "resource": {
      "resourceType": "Organization",
      "id": "c8c0620f-dfac-4e02-8e60-76fecf0d875a",
      "identifier": [ {
        "use": "official",
        "value": "2.16.840.1.113883.4.6"
      } ],
      "name": "Community Health and Hospitals",
      "telecom": [ {
        "system": "phone",
        "value": " 555-555-5000",
        "use": "work"
      } ],
      "address": [ {
        "line": [ "1001 Village Avenue" ],
        "city": "Portland",
        "state": "OR",
        "postalCode": "99123",
        "country": "US"
      } ]
    }
  }, {
    "resource": {
      "resourceType": "Practitioner",
      "id": "44f590cb-7a4c-4502-a046-33f4d32abdc1",
      "identifier": [ {
        "use": "official",
        "system": "urn:oid:2.16.840.1.113883.4.6",
        "value": "99999999"
      } ],
      "name": [ {
        "family": "Seven",
        "given": [ "Henry" ],
        "suffix": [ "MD" ]
      } ],
      "telecom": [ {
        "system": "phone",
        "value": "555-555-1002",
        "use": "work"
      } ],
      "address": [ {
        "line": [ "1002 Healthcare Drive" ],
        "city": "Portland",
        "state": "OR",
        "postalCode": "99123",
        "country": "US"
      } ]
    }
  }, {
    "resource": {
      "resourceType": "Practitioner",
      "id": "9bf2f533-42fb-4ccd-b43e-84fb8a46102a",
      "identifier": [ {
        "use": "official",
        "system": "http://hl7.org/fhir/sid/us-npi",
        "value": "999999999"
      } ],
      "name": [ {
        "family": "Seven",
        "given": [ "Henry" ]
      } ],
      "telecom": [ {
        "system": "phone",
        "value": "555-555-1002",
        "use": "work"
      } ],
      "address": [ {
        "line": [ "1001 Village Avenue" ],
        "city": "Portland",
        "state": "OR",
        "postalCode": "99123",
        "country": "US"
      } ]
    }
  }, {
    "resource": {
      "resourceType": "Practitioner",
      "id": "1cfc22c4-68c4-4e01-89f9-bf87e91bd017",
      "identifier": [ {
        "use": "official",
        "system": "http://hl7.org/fhir/sid/us-npi",
        "value": "PseudoMD-1"
      } ],
      "name": [ {
        "family": "Seven",
        "given": [ "Henry" ],
        "suffix": [ "MD" ]
      } ],
      "telecom": [ {
        "system": "phone",
        "value": "+1-555-555-5000",
        "use": "home"
      } ],
      "address": [ {
        "line": [ "1001 Village Avenue" ],
        "city": "Portland",
        "state": "OR",
        "postalCode": "99123",
        "country": "US"
      } ]
    }
  }, {
    "resource": {
      "resourceType": "Organization",
      "id": "7d06f880-a74b-4d28-8b39-2c10807c6bba",
      "identifier": [ {
        "use": "official",
        "system": "urn:oid:2.16.840.1.113883.4.6",
        "value": "99999999"
      } ],
      "name": "Community Health and Hospitals",
      "telecom": [ {
        "system": "phone",
        "value": " 555-555-1002",
        "use": "work"
      } ],
      "address": [ {
        "use": "work",
        "line": [ "1002 Healthcare Drive" ],
        "city": "Portland",
        "state": "OR",
        "postalCode": "99123",
        "country": "US"
      } ]
    }
  }, {
    "resource": {
      "resourceType": "AllergyIntolerance",
      "id": "c14c0f56-f6ff-4569-8291-6e6ea9ae2fc0",
      "identifier": [ {
        "use": "official",
        "value": "36e3e930-7b14-11db-9fe1-0800200c9a66"
      } ],
      "clinicalStatus": {
        "coding": [ {
          "system": "http://terminology.hl7.org/CodeSystem/allergyintolerance-clinical",
          "code": "active",
          "display": "Active"
        } ]
      },
      "verificationStatus": {
        "coding": [ {
          "system": "http://terminology.hl7.org/CodeSystem/allergyintolerance-verification",
          "code": "confirmed",
          "display": "Confirmed"
        } ]
      },
      "type": "allergy",
      "category": [ "medication" ],
      "code": {
        "coding": [ {
          "system": "http://www.nlm.nih.gov/research/umls/rxnorm",
          "code": "905148",
          "display": "Amikacin Sulfate 50 MG/ML Injectable Solution"
        } ],
        "text": "Amikacin + Amikacin Sulfate 50 MG/ML Injectable Solution"
      },
      "patient": {
        "reference": "Patient/10a0dba5-f915-4d0a-a7c4-0e79a67ece0d",
        "display": "Charles Roberson"
      },
      "recordedDate": "2009-07-14T10:00:00+02:00"
    }
  }, {
    "resource": {
      "resourceType": "AllergyIntolerance",
      "id": "7f144321-fda3-46bd-a8f5-7b15356a0f8e",
      "identifier": [ {
        "use": "official",
        "value": "36e3e930-7b14-11db-9fe1-0800200c9a66"
      } ],
      "clinicalStatus": {
        "coding": [ {
          "system": "http://terminology.hl7.org/CodeSystem/allergyintolerance-clinical",
          "code": "active",
          "display": "Active"
        } ]
      },
      "verificationStatus": {
        "coding": [ {
          "system": "http://terminology.hl7.org/CodeSystem/allergyintolerance-verification",
          "code": "confirmed",
          "display": "Confirmed"
        } ]
      },
      "type": "allergy",
      "category": [ "medication" ],
      "code": {
        "coding": [ {
          "system": "urn:oid:2.16.840.1.113883.3.26.1.5",
          "code": "N0000011298",
          "display": "Penicillin V"
        } ],
        "text": "Penicillin V + Penicillin V"
      },
      "patient": {
        "reference": "Patient/10a0dba5-f915-4d0a-a7c4-0e79a67ece0d",
        "display": "Charles Roberson"
      },
      "recordedDate": "2009-07-14T10:00:00+02:00"
    }
  }, {
    "resource": {
      "resourceType": "AllergyIntolerance",
      "id": "f411b0aa-f24f-4206-a77b-8b7b29f41528",
      "identifier": [ {
        "use": "official",
        "value": "36e3e930-7b14-11db-9fe1-0800200c9a66"
      } ],
      "clinicalStatus": {
        "coding": [ {
          "system": "http://terminology.hl7.org/CodeSystem/allergyintolerance-clinical",
          "code": "active",
          "display": "Active"
        } ]
      },
      "verificationStatus": {
        "coding": [ {
          "system": "http://terminology.hl7.org/CodeSystem/allergyintolerance-verification",
          "code": "confirmed",
          "display": "Confirmed"
        } ]
      },
      "type": "allergy",
      "category": [ "food" ],
      "code": {
        "coding": [ {
          "system": "http://fdasis.nlm.nih.gov",
          "code": "291P45F896",
          "display": "Eggs"
        }, {
          "system": "urn:oid:2.16.840.1.113883.6.103",
          "code": "V15.03",
          "display": "Allergy to eggs"
        } ],
        "text": "Allergy to Eggs + Eggs"
      },
      "patient": {
        "reference": "Patient/10a0dba5-f915-4d0a-a7c4-0e79a67ece0d",
        "display": "Charles Roberson"
      },
      "recordedDate": "2009-07-14T10:00:00+02:00"
    }
  }, {
    "resource": {
      "resourceType": "MedicationStatement",
      "id": "29796523-046a-4379-aaa7-29ec4c7ac161",
      "extension": [ {
        "url": "http://hl7.org/fhir/3.0/StructureDefinition/extension-MedicationStatement.status",
        "valueCode": "UNKNOWN"
      } ],
      "identifier": [ {
        "use": "official",
        "value": "cdbd33f0-6cde-11db-9fe1-0800200c9a66"
      } ],
      "status": "completed",
      "medicationReference": {
        "reference": "Medication/adffde9e-c60f-4bb2-9bb1-467d559d7ba0",
        "display": "Aspirin 81 MG Oral Tablet"
      },
      "subject": {
        "reference": "Patient/10a0dba5-f915-4d0a-a7c4-0e79a67ece0d",
        "display": "Charles Roberson"
      },
      "effectivePeriod": {
        "start": "2009-07-14T10:00:00+02:00"
      }
    }
  }, {
    "resource": {
      "resourceType": "Medication",
      "id": "adffde9e-c60f-4bb2-9bb1-467d559d7ba0",
      "code": {
        "coding": [ {
          "system": "http://www.nlm.nih.gov/research/umls/rxnorm",
          "code": "243670",
          "display": "Aspirin 81 MG Oral Tablet"
        } ]
      }
    }
  }, {
    "resource": {
      "resourceType": "MedicationStatement",
      "id": "85df9968-c9f2-4b00-9930-1b9acde7faa3",
      "extension": [ {
        "url": "http://hl7.org/fhir/3.0/StructureDefinition/extension-MedicationStatement.status",
        "valueCode": "UNKNOWN"
      } ],
      "identifier": [ {
        "use": "official",
        "value": "cdbd33f0-6cde-11db-9fe1-0800200c9a66"
      } ],
      "status": "completed",
      "medicationReference": {
        "reference": "Medication/ececd6cb-6fbb-4797-8028-568ccd91aa8e",
        "display": "Albuterol 0.83 MG/ML Inhalant Solution"
      },
      "subject": {
        "reference": "Patient/10a0dba5-f915-4d0a-a7c4-0e79a67ece0d",
        "display": "Charles Roberson"
      },
      "effectivePeriod": {
        "start": "2009-07-14T10:00:00+02:00"
      }
    }
  }, {
    "resource": {
      "resourceType": "Medication",
      "id": "ececd6cb-6fbb-4797-8028-568ccd91aa8e",
      "code": {
        "coding": [ {
          "system": "http://www.nlm.nih.gov/research/umls/rxnorm",
          "code": "630208",
          "display": "Albuterol 0.83 MG/ML Inhalant Solution"
        } ]
      }
    }
  }, {
    "resource": {
      "resourceType": "MedicationStatement",
      "id": "54a32182-bfb3-4b86-9cda-90bdea512249",
      "extension": [ {
        "url": "http://hl7.org/fhir/3.0/StructureDefinition/extension-MedicationStatement.status",
        "valueCode": "UNKNOWN"
      } ],
      "identifier": [ {
        "use": "official",
        "value": "cdbd33f0-6cde-11db-9fe1-0800200c9a66"
      } ],
      "status": "completed",
      "medicationReference": {
        "reference": "Medication/d2147d64-3ce7-439d-a5f2-37c476b2a714",
        "display": "salmeterol 0.05 MG/ACTUAT Inhalant Powder"
      },
      "subject": {
        "reference": "Patient/10a0dba5-f915-4d0a-a7c4-0e79a67ece0d",
        "display": "Charles Roberson"
      },
      "effectivePeriod": {
        "start": "2009-07-14T10:00:00+02:00"
      }
    }
  }, {
    "resource": {
      "resourceType": "Medication",
      "id": "d2147d64-3ce7-439d-a5f2-37c476b2a714",
      "code": {
        "coding": [ {
          "system": "http://www.nlm.nih.gov/research/umls/rxnorm",
          "code": "318142",
          "display": "salmeterol 0.05 MG/ACTUAT Inhalant Powder"
        } ]
      }
    }
  }, {
    "resource": {
      "resourceType": "MedicationStatement",
      "id": "0108918d-74d5-43c5-ac9d-b8e491718ece",
      "extension": [ {
        "url": "http://hl7.org/fhir/3.0/StructureDefinition/extension-MedicationStatement.status",
        "valueCode": "UNKNOWN"
      } ],
      "identifier": [ {
        "use": "official",
        "value": "cdbd33f0-6cde-11db-9fe1-0800200c9a66"
      } ],
      "status": "completed",
      "medicationReference": {
        "reference": "Medication/adffde9e-c60f-4bb2-9bb1-467d559d7ba0",
        "display": "Aspirin 81 MG Oral Tablet"
      },
      "subject": {
        "reference": "Patient/10a0dba5-f915-4d0a-a7c4-0e79a67ece0d",
        "display": "Charles Roberson"
      },
      "effectivePeriod": {
        "start": "2010-03-31T10:00:00+02:00"
      }
    }
  }, {
    "resource": {
      "resourceType": "MedicationStatement",
      "id": "c5dc2377-5dd9-4317-88d3-6db3dcfcb131",
      "extension": [ {
        "url": "http://hl7.org/fhir/3.0/StructureDefinition/extension-MedicationStatement.status",
        "valueCode": "UNKNOWN"
      } ],
      "identifier": [ {
        "use": "official",
        "value": "cdbd33f0-6cde-11db-9fe1-0800200c9a66"
      } ],
      "status": "completed",
      "medicationReference": {
        "reference": "Medication/04ef8b3e-fb85-4094-8f2e-b76a57beb370",
        "display": "Lisinopril 10 MG Oral Tablet"
      },
      "subject": {
        "reference": "Patient/10a0dba5-f915-4d0a-a7c4-0e79a67ece0d",
        "display": "Charles Roberson"
      },
      "effectivePeriod": {
        "start": "2009-07-20T10:00:00+02:00"
      }
    }
  }, {
    "resource": {
      "resourceType": "Medication",
      "id": "04ef8b3e-fb85-4094-8f2e-b76a57beb370",
      "code": {
        "coding": [ {
          "system": "http://www.nlm.nih.gov/research/umls/rxnorm",
          "code": "314076",
          "display": "Lisinopril 10 MG Oral Tablet"
        } ]
      }
    }
  }, {
    "resource": {
      "resourceType": "MedicationStatement",
      "id": "298b27ed-9d5f-4eeb-8d03-63ae24c949aa",
      "extension": [ {
        "url": "http://hl7.org/fhir/3.0/StructureDefinition/extension-MedicationStatement.status",
        "valueCode": "UNKNOWN"
      } ],
      "identifier": [ {
        "use": "official",
        "value": "cdbd33f0-6cde-11db-9fe1-0800200c9a66"
      } ],
      "status": "completed",
      "medicationReference": {
        "reference": "Medication/04ef8b3e-fb85-4094-8f2e-b76a57beb370",
        "display": "Lisinopril 10 MG Oral Tablet"
      },
      "subject": {
        "reference": "Patient/10a0dba5-f915-4d0a-a7c4-0e79a67ece0d",
        "display": "Charles Roberson"
      },
      "effectivePeriod": {
        "start": "2010-02-04T10:00:00+01:00"
      }
    }
  }, {
    "resource": {
      "resourceType": "MedicationStatement",
      "id": "9ab86bb5-2a63-40aa-9f18-a4cd26fe95c0",
      "extension": [ {
        "url": "http://hl7.org/fhir/3.0/StructureDefinition/extension-MedicationStatement.status",
        "valueCode": "UNKNOWN"
      } ],
      "identifier": [ {
        "use": "official",
        "value": "cdbd33f0-6cde-11db-9fe1-0800200c9a66"
      } ],
      "status": "completed",
      "medicationReference": {
        "reference": "Medication/95c44c0b-333d-4546-afd3-2a307d153b4d",
        "display": "Enalapril Maleate 10 MG / Hydrochlorothiazide 25 MG Oral Tablet"
      },
      "subject": {
        "reference": "Patient/10a0dba5-f915-4d0a-a7c4-0e79a67ece0d",
        "display": "Charles Roberson"
      },
      "effectivePeriod": {
        "start": "2010-02-04T10:00:00+01:00"
      }
    }
  }, {
    "resource": {
      "resourceType": "Medication",
      "id": "95c44c0b-333d-4546-afd3-2a307d153b4d",
      "code": {
        "coding": [ {
          "system": "http://www.nlm.nih.gov/research/umls/rxnorm",
          "code": "858828",
          "display": "Enalapril Maleate 10 MG / Hydrochlorothiazide 25 MG Oral Tablet"
        } ]
      }
    }
  }, {
    "resource": {
      "resourceType": "Observation",
      "id": "bdb475fe-4ad6-4dc9-bf59-bd286ca00bef",
      "identifier": [ {
        "use": "official",
        "system": "urn:oid:2.16.840.1.113883.19",
        "value": "123456789"
      } ],
      "status": "final",
      "code": {
        "coding": [ {
          "system": "urn:oid:2.16.840.1.113883.5.4",
          "code": "ASSERTION"
        } ]
      },
      "subject": {
        "reference": "Patient/10a0dba5-f915-4d0a-a7c4-0e79a67ece0d",
        "display": "Charles Roberson"
      },
      "effectivePeriod": {
        "start": "2009-07-14T10:00:00+02:00"
      },
      "valueCodeableConcept": {
        "coding": [ {
          "system": "http://snomed.info/sct",
          "code": "266919005",
          "display": "Never smoker (Never Smoked)"
        }, {
          "system": "http://snomed.info/sct",
          "code": "449868002",
          "display": "Current every day smoker"
        } ]
      }
    }
  }, {
    "resource": {
      "resourceType": "DiagnosticReport",
      "id": "179b746b-2a50-40bb-9e9a-c279778bcc2c",
      "identifier": [ {
        "use": "official",
        "value": "7d5a02b0-67a4-11db-bd13-0800200c9a66"
      } ],
      "status": "final",
      "category": [ {
        "coding": [ {
          "system": "http://terminology.hl7.org/CodeSystem/v2-0074",
          "code": "LAB",
          "display": "Laboratory"
        } ]
      } ],
      "code": {
        "coding": [ {
          "system": "http://snomed.info/sct",
          "code": "16254007",
          "display": "Lipid Panel"
        } ]
      },
      "subject": {
        "reference": "Patient/10a0dba5-f915-4d0a-a7c4-0e79a67ece0d",
        "display": "Charles Roberson"
      },
      "result": [ {
        "reference": "Observation/1f7ee50f-0b98-4b58-b832-b639752d4c28",
        "display": "LDLc SerPl-mCnc"
      }, {
        "reference": "Observation/8c9f7f5c-9016-40dd-b7ce-11cc19251233",
        "display": "HDLc SerPl-sCnc"
      }, {
        "reference": "Observation/a9c6cfd5-bba5-41fa-9526-cf2f2ad2842e",
        "display": "Trigl SerPl Calc-mCnc"
      }, {
        "reference": "Observation/d74a1812-65f9-48ec-937a-1a32bc18b514",
        "display": "Cholest SerPl-mCnc"
      } ]
    }
  }, {
    "resource": {
      "resourceType": "Observation",
      "id": "1f7ee50f-0b98-4b58-b832-b639752d4c28",
      "identifier": [ {
        "use": "official",
        "value": "107c2dc0-67a5-11db-bd13-0800200c9a66"
      } ],
      "status": "final",
      "category": [ {
        "coding": [ {
          "system": "http://terminology.hl7.org/CodeSystem/observation-category",
          "code": "laboratory"
        } ]
      } ],
      "code": {
        "coding": [ {
          "system": "http://loinc.org",
          "code": "2089-1",
          "display": "LDLc SerPl-mCnc"
        }, {
          "system": "http://www.ama-assn.org/go/cpt",
          "code": "83721",
          "display": "Assay of blood lipoprotein"
        }, {
          "system": "http://snomed.info/sct",
          "code": "113079009",
          "display": "Low density lipoprotein cholesterol measurement"
        } ]
      },
      "subject": {
        "reference": "Patient/10a0dba5-f915-4d0a-a7c4-0e79a67ece0d",
        "display": "Charles Roberson"
      },
      "effectivePeriod": {
        "start": "2010-05-10T10:00:00+02:00"
      },
      "valueQuantity": {
        "value": 93.2,
        "unit": "mg/dL",
        "system": "http://unitsofmeasure.org",
        "code": "mg/dL"
      },
      "interpretation": [ {
        "coding": [ {
          "system": "http://terminology.hl7.org/CodeSystem/v3-ObservationInterpretation",
          "code": "N"
        } ]
      } ],
      "referenceRange": [ {
        "text": "<130 mg/dL (calc)"
      } ]
    }
  }, {
    "resource": {
      "resourceType": "Observation",
      "id": "8c9f7f5c-9016-40dd-b7ce-11cc19251233",
      "identifier": [ {
        "use": "official",
        "value": "107c2dc0-67a5-11db-bd13-0800200c9a66"
      } ],
      "status": "final",
      "category": [ {
        "coding": [ {
          "system": "http://terminology.hl7.org/CodeSystem/observation-category",
          "code": "laboratory"
        } ]
      } ],
      "code": {
        "coding": [ {
          "system": "http://loinc.org",
          "code": "14646-4",
          "display": "HDLc SerPl-sCnc"
        }, {
          "system": "http://www.ama-assn.org/go/cpt",
          "code": "83701",
          "display": "Lipoprotein bld, hr fraction"
        }, {
          "system": "http://snomed.info/sct",
          "code": "28036006",
          "display": "High density lipoprotein cholesterol measurement"
        } ]
      },
      "subject": {
        "reference": "Patient/10a0dba5-f915-4d0a-a7c4-0e79a67ece0d",
        "display": "Charles Roberson"
      },
      "effectivePeriod": {
        "start": "2010-05-10T10:00:00+02:00"
      },
      "valueQuantity": {
        "value": 55,
        "unit": "mg/dL",
        "system": "http://unitsofmeasure.org",
        "code": "mg/dL"
      },
      "interpretation": [ {
        "coding": [ {
          "system": "http://terminology.hl7.org/CodeSystem/v3-ObservationInterpretation",
          "code": "N"
        } ]
      } ],
      "referenceRange": [ {
        "text": ">=40 mg/dL"
      } ]
    }
  }, {
    "resource": {
      "resourceType": "Observation",
      "id": "a9c6cfd5-bba5-41fa-9526-cf2f2ad2842e",
      "identifier": [ {
        "use": "official",
        "value": "107c2dc0-67a5-11db-bd13-0800200c9a66"
      } ],
      "status": "final",
      "category": [ {
        "coding": [ {
          "system": "http://terminology.hl7.org/CodeSystem/observation-category",
          "code": "laboratory"
        } ]
      } ],
      "code": {
        "coding": [ {
          "system": "http://loinc.org",
          "code": "12951-0",
          "display": "Trigl SerPl Calc-mCnc"
        }, {
          "system": "http://www.ama-assn.org/go/cpt",
          "code": "84478",
          "display": "Assay of triglycerides"
        }, {
          "system": "http://snomed.info/sct",
          "code": "14740000",
          "display": "Triglycerides measurement"
        } ]
      },
      "subject": {
        "reference": "Patient/10a0dba5-f915-4d0a-a7c4-0e79a67ece0d",
        "display": "Charles Roberson"
      },
      "effectivePeriod": {
        "start": "2010-05-10T10:00:00+02:00"
      },
      "valueQuantity": {
        "value": 154,
        "unit": "mg/dL",
        "system": "http://unitsofmeasure.org",
        "code": "mg/dL"
      },
      "interpretation": [ {
        "coding": [ {
          "system": "http://terminology.hl7.org/CodeSystem/v3-ObservationInterpretation",
          "code": "N"
        } ]
      } ],
      "referenceRange": [ {
        "text": "10-39 years: 55-110 mg/dL | 40-59 years: 70-150 mg/dL | >60 years: 80-150 mg/dL | Therapeutic Target: <100 mg/dL "
      } ]
    }
  }, {
    "resource": {
      "resourceType": "Observation",
      "id": "d74a1812-65f9-48ec-937a-1a32bc18b514",
      "identifier": [ {
        "use": "official",
        "value": "107c2dc0-67a5-11db-bd13-0800200c9a66"
      } ],
      "status": "final",
      "category": [ {
        "coding": [ {
          "system": "http://terminology.hl7.org/CodeSystem/observation-category",
          "code": "laboratory"
        } ]
      } ],
      "code": {
        "coding": [ {
          "system": "http://loinc.org",
          "code": "2093-3",
          "display": "Cholest SerPl-mCnc"
        }, {
          "system": "http://www.ama-assn.org/go/cpt",
          "code": "82465",
          "display": "Assay, bld/serum cholesterol"
        }, {
          "system": "http://snomed.info/sct",
          "code": "121868005",
          "display": "Total cholesterol measurement"
        } ]
      },
      "subject": {
        "reference": "Patient/10a0dba5-f915-4d0a-a7c4-0e79a67ece0d",
        "display": "Charles Roberson"
      },
      "effectivePeriod": {
        "start": "2010-05-10T10:00:00+02:00"
      },
      "valueQuantity": {
        "value": 179,
        "unit": "mg/dL",
        "system": "http://unitsofmeasure.org",
        "code": "mg/dL"
      },
      "interpretation": [ {
        "coding": [ {
          "system": "http://terminology.hl7.org/CodeSystem/v3-ObservationInterpretation",
          "code": "N"
        } ]
      } ],
      "referenceRange": [ {
        "text": "125-200 mg/dL"
      } ]
    }
  }, {
    "resource": {
      "resourceType": "Procedure",
      "id": "28389414-8f46-4016-883a-0c746c263da2",
      "identifier": [ {
        "use": "official",
        "value": "e401f340-7be2-11db-9fe1-0800200c9a66"
      } ],
      "status": "completed",
      "code": {
        "coding": [ {
          "system": "http://www.ama-assn.org/go/cpt",
          "code": "33535",
          "display": "CABG, arterial, three"
        }, {
          "system": "urn:oid:2.16.840.1.113883.6.13",
          "code": "C9607",
          "display": "Perc d-e cor revasc chro sin"
        }, {
          "system": "urn:oid:2.16.840.1.113883.6.103",
          "code": "36.13",
          "display": "(Aorto)coronary bypass of three coronary arteries"
        }, {
          "system": "http://snomed.info/sct",
          "code": "10326007",
          "display": "Coronary artery bypass with autogenous graft, three grafts"
        } ]
      },
      "subject": {
        "reference": "Patient/10a0dba5-f915-4d0a-a7c4-0e79a67ece0d",
        "display": "Charles Roberson"
      },
      "performedPeriod": {
        "start": "2009-07-14T10:00:00+02:00"
      }
    }
  }, {
    "resource": {
      "resourceType": "Procedure",
      "id": "54400176-9e45-4a55-a98e-ce77c81dc3d6",
      "identifier": [ {
        "use": "official",
        "value": "e401f340-7be2-11db-9fe1-0800200c9a66"
      } ],
      "status": "completed",
      "code": {
        "coding": [ {
          "system": "http://www.ama-assn.org/go/cpt",
          "code": "33535",
          "display": "CABG, arterial, three"
        }, {
          "system": "http://snomed.info/sct",
          "code": "10326007",
          "display": "Coronary artery bypass with autogenous graft, three grafts"
        } ]
      },
      "subject": {
        "reference": "Patient/10a0dba5-f915-4d0a-a7c4-0e79a67ece0d",
        "display": "Charles Roberson"
      },
      "performedPeriod": {
        "start": "2009-07-14T10:00:00+02:00"
      }
    }
  }, {
    "resource": {
      "resourceType": "Condition",
      "id": "de4bddf1-b72f-44d8-bee5-9d2b1dbc7fd3",
      "identifier": [ {
        "use": "official",
        "value": "9d3d416d-45ab-4da1-912f-4583e0632000"
      } ],
      "clinicalStatus": {
        "coding": [ {
          "system": "http://terminology.hl7.org/CodeSystem/condition-clinical",
          "code": "active",
          "display": "Active"
        } ]
      },
      "verificationStatus": {
        "coding": [ {
          "system": "http://terminology.hl7.org/CodeSystem/condition-ver-status",
          "code": "confirmed",
          "display": "Confirmed"
        } ]
      },
      "category": [ {
        "coding": [ {
          "system": "http://terminology.hl7.org/CodeSystem/condition-category",
          "code": "problem-list-item",
          "display": "Problem List Item"
        } ]
      } ],
      "code": {
        "coding": [ {
          "system": "http://snomed.info/sct",
          "code": "304914007",
          "display": "Acute Q wave myocardial infarction"
        }, {
          "system": "urn:oid:2.16.840.1.113883.6.90",
          "code": "I21.3",
          "display": "ST elevation (STEMI) myocardial infarction of unspecified site"
        }, {
          "system": "urn:oid:2.16.840.1.113883.6.103",
          "code": "410.90",
          "display": "Acute myocardial infarction of unspecified site, episode of care unspecified"
        } ]
      },
      "subject": {
        "reference": "Patient/10a0dba5-f915-4d0a-a7c4-0e79a67ece0d",
        "display": "Charles Roberson"
      },
      "onsetDateTime": "2009-07-20T10:00:00+02:00"
    }
  }, {
    "resource": {
      "resourceType": "Observation",
      "id": "c2f7d456-3c3c-48c9-9d18-fd2c44e5d393",
      "identifier": [ {
        "use": "official",
        "value": "c6f88321-67ad-11db-bd13-0800200c9a66"
      } ],
      "status": "final",
      "category": [ {
        "coding": [ {
          "system": "http://terminology.hl7.org/CodeSystem/observation-category",
          "code": "vital-signs",
          "display": "Vital Signs"
        } ]
      } ],
      "code": {
        "coding": [ {
          "system": "http://loinc.org",
          "code": "39156-5",
          "display": "BMI"
        } ]
      },
      "subject": {
        "reference": "Patient/10a0dba5-f915-4d0a-a7c4-0e79a67ece0d",
        "display": "Charles Roberson"
      },
      "effectivePeriod": {
        "start": "2010-03-31T10:00:00+02:00"
      },
      "valueQuantity": {
        "value": 23.6,
        "unit": "kg/m2",
        "system": "http://unitsofmeasure.org",
        "code": "kg/m2"
      }
    }
  }, {
    "resource": {
      "resourceType": "Observation",
      "id": "e3ae088a-46d6-48d7-9c9e-39006a669f0b",
      "identifier": [ {
        "use": "official",
        "value": "c6f88321-67ad-11db-bd13-0800200c9a66"
      } ],
      "status": "final",
      "category": [ {
        "coding": [ {
          "system": "http://terminology.hl7.org/CodeSystem/observation-category",
          "code": "vital-signs",
          "display": "Vital Signs"
        } ]
      } ],
      "code": {
        "coding": [ {
          "system": "http://loinc.org",
          "code": "8480-6",
          "display": "BP Systolic"
        } ]
      },
      "subject": {
        "reference": "Patient/10a0dba5-f915-4d0a-a7c4-0e79a67ece0d",
        "display": "Charles Roberson"
      },
      "effectivePeriod": {
        "start": "2010-03-31T10:00:00+02:00"
      },
      "valueQuantity": {
        "value": 154,
        "unit": "mm[Hg]",
        "system": "http://unitsofmeasure.org",
        "code": "mm[Hg]"
      }
    }
  }, {
    "resource": {
      "resourceType": "Observation",
      "id": "11942ef8-4d76-4cb2-a26c-868f689d7ffe",
      "identifier": [ {
        "use": "official",
        "value": "c6f88321-67ad-11db-bd13-0800200c9a66"
      } ],
      "status": "final",
      "category": [ {
        "coding": [ {
          "system": "http://terminology.hl7.org/CodeSystem/observation-category",
          "code": "vital-signs",
          "display": "Vital Signs"
        } ]
      } ],
      "code": {
        "coding": [ {
          "system": "http://loinc.org",
          "code": "8462-4",
          "display": "BP Diastolic"
        } ]
      },
      "subject": {
        "reference": "Patient/10a0dba5-f915-4d0a-a7c4-0e79a67ece0d",
        "display": "Charles Roberson"
      },
      "effectivePeriod": {
        "start": "2010-03-31T10:00:00+02:00"
      },
      "valueQuantity": {
        "value": 98,
        "unit": "mm[Hg]",
        "system": "http://unitsofmeasure.org",
        "code": "mm[Hg]"
      }
    }
  }, {
    "resource": {
      "resourceType": "Observation",
      "id": "7238e985-2de8-4039-a871-48bcf18cd778",
      "identifier": [ {
        "use": "official",
        "value": "c6f88321-67ad-11db-bd13-0800200c9a66"
      } ],
      "status": "final",
      "category": [ {
        "coding": [ {
          "system": "http://terminology.hl7.org/CodeSystem/observation-category",
          "code": "vital-signs",
          "display": "Vital Signs"
        } ]
      } ],
      "code": {
        "coding": [ {
          "system": "http://loinc.org",
          "code": "39156-5",
          "display": "BMI"
        } ]
      },
      "subject": {
        "reference": "Patient/10a0dba5-f915-4d0a-a7c4-0e79a67ece0d",
        "display": "Charles Roberson"
      },
      "effectivePeriod": {
        "start": "2010-09-24T10:00:00+02:00"
      },
      "valueQuantity": {
        "value": 22.8,
        "unit": "kg/m2",
        "system": "http://unitsofmeasure.org",
        "code": "kg/m2"
      }
    }
  }, {
    "resource": {
      "resourceType": "Observation",
      "id": "40e4240c-28a6-431b-ac2c-437332c46886",
      "identifier": [ {
        "use": "official",
        "value": "c6f88321-67ad-11db-bd13-0800200c9a66"
      } ],
      "status": "final",
      "category": [ {
        "coding": [ {
          "system": "http://terminology.hl7.org/CodeSystem/observation-category",
          "code": "vital-signs",
          "display": "Vital Signs"
        } ]
      } ],
      "code": {
        "coding": [ {
          "system": "http://loinc.org",
          "code": "8480-6",
          "display": "BP Systolic"
        } ]
      },
      "subject": {
        "reference": "Patient/10a0dba5-f915-4d0a-a7c4-0e79a67ece0d",
        "display": "Charles Roberson"
      },
      "effectivePeriod": {
        "start": "2010-09-24T10:00:00+02:00"
      },
      "valueQuantity": {
        "value": 134,
        "unit": "mm[Hg]",
        "system": "http://unitsofmeasure.org",
        "code": "mm[Hg]"
      }
    }
  }, {
    "resource": {
      "resourceType": "Observation",
      "id": "18e1860e-5812-40e7-9e39-49fa745fc372",
      "identifier": [ {
        "use": "official",
        "value": "c6f88321-67ad-11db-bd13-0800200c9a66"
      } ],
      "status": "final",
      "category": [ {
        "coding": [ {
          "system": "http://terminology.hl7.org/CodeSystem/observation-category",
          "code": "vital-signs",
          "display": "Vital Signs"
        } ]
      } ],
      "code": {
        "coding": [ {
          "system": "http://loinc.org",
          "code": "8462-4",
          "display": "BP Diastolic"
        } ]
      },
      "subject": {
        "reference": "Patient/10a0dba5-f915-4d0a-a7c4-0e79a67ece0d",
        "display": "Charles Roberson"
      },
      "effectivePeriod": {
        "start": "2010-09-24T10:00:00+02:00"
      },
      "valueQuantity": {
        "value": 82,
        "unit": "mm[Hg]",
        "system": "http://unitsofmeasure.org",
        "code": "mm[Hg]"
      }
    }
  }, {
    "resource": {
      "resourceType": "Observation",
      "id": "34112f07-5a26-41a8-b954-4dd9a45dba82",
      "identifier": [ {
        "use": "official",
        "value": "c6f88321-67ad-11db-bd13-0800200c9a66"
      } ],
      "status": "final",
      "category": [ {
        "coding": [ {
          "system": "http://terminology.hl7.org/CodeSystem/observation-category",
          "code": "vital-signs",
          "display": "Vital Signs"
        } ]
      } ],
      "code": {
        "coding": [ {
          "system": "http://loinc.org",
          "code": "8480-6",
          "display": "BP Systolic"
        } ]
      },
      "subject": {
        "reference": "Patient/10a0dba5-f915-4d0a-a7c4-0e79a67ece0d",
        "display": "Charles Roberson"
      },
      "effectivePeriod": {
        "start": "2010-05-10T10:00:00+02:00"
      },
      "valueQuantity": {
        "value": 135,
        "unit": "mm[Hg]",
        "system": "http://unitsofmeasure.org",
        "code": "mm[Hg]"
      }
    }
  }, {
    "resource": {
      "resourceType": "Observation",
      "id": "9f703ed6-f356-470f-8cf5-ad227b612de0",
      "identifier": [ {
        "use": "official",
        "value": "c6f88321-67ad-11db-bd13-0800200c9a66"
      } ],
      "status": "final",
      "category": [ {
        "coding": [ {
          "system": "http://terminology.hl7.org/CodeSystem/observation-category",
          "code": "vital-signs",
          "display": "Vital Signs"
        } ]
      } ],
      "code": {
        "coding": [ {
          "system": "http://loinc.org",
          "code": "39156-5",
          "display": "BMI"
        } ]
      },
      "subject": {
        "reference": "Patient/10a0dba5-f915-4d0a-a7c4-0e79a67ece0d",
        "display": "Charles Roberson"
      },
      "effectivePeriod": {
        "start": "2010-05-10T10:00:00+02:00"
      },
      "valueQuantity": {
        "value": 24,
        "unit": "kg/m2",
        "system": "http://unitsofmeasure.org",
        "code": "kg/m2"
      }
    }
  }, {
    "resource": {
      "resourceType": "Observation",
      "id": "9cff7af0-8de7-45d0-9e6d-1e68d1e5f71a",
      "identifier": [ {
        "use": "official",
        "value": "c6f88321-67ad-11db-bd13-0800200c9a66"
      } ],
      "status": "final",
      "category": [ {
        "coding": [ {
          "system": "http://terminology.hl7.org/CodeSystem/observation-category",
          "code": "vital-signs",
          "display": "Vital Signs"
        } ]
      } ],
      "code": {
        "coding": [ {
          "system": "http://loinc.org",
          "code": "8462-4",
          "display": "BP Diastolic"
        } ]
      },
      "subject": {
        "reference": "Patient/10a0dba5-f915-4d0a-a7c4-0e79a67ece0d",
        "display": "Charles Roberson"
      },
      "effectivePeriod": {
        "start": "2010-05-10T10:00:00+02:00"
      },
      "valueQuantity": {
        "value": 84,
        "unit": "mm[Hg]",
        "system": "http://unitsofmeasure.org",
        "code": "mm[Hg]"
      }
    }
  }, {
    "resource": {
      "resourceType": "Observation",
      "id": "b4948264-f473-457d-89f5-7e06600d4917",
      "identifier": [ {
        "use": "official",
        "value": "c6f88321-67ad-11db-bd13-0800200c9a66"
      } ],
      "status": "final",
      "category": [ {
        "coding": [ {
          "system": "http://terminology.hl7.org/CodeSystem/observation-category",
          "code": "vital-signs",
          "display": "Vital Signs"
        } ]
      } ],
      "code": {
        "coding": [ {
          "system": "http://loinc.org",
          "code": "39156-5",
          "display": "BMI"
        } ]
      },
      "subject": {
        "reference": "Patient/10a0dba5-f915-4d0a-a7c4-0e79a67ece0d",
        "display": "Charles Roberson"
      },
      "effectivePeriod": {
        "start": "2010-08-25T10:00:00+02:00"
      },
      "valueQuantity": {
        "value": 23.1,
        "unit": "kg/m2",
        "system": "http://unitsofmeasure.org",
        "code": "kg/m2"
      }
    }
  }, {
    "resource": {
      "resourceType": "Encounter",
      "id": "fff2eb7d-d6d9-4ce9-a774-b9a1699d6bfb",
      "identifier": [ {
        "use": "official",
        "value": "2a620155-9d11-439e-92b3-5d9815ff4de8"
      } ],
      "status": "finished",
      "type": [ {
        "coding": [ {
          "system": "http://www.ama-assn.org/go/cpt",
          "code": "99241",
          "display": "Office consultation"
        } ]
      } ],
      "subject": {
        "reference": "Patient/10a0dba5-f915-4d0a-a7c4-0e79a67ece0d",
        "display": "Charles Roberson"
      },
      "period": {
        "start": "2010-03-31T10:00:00+02:00"
      }
    }
  }, {
    "resource": {
      "resourceType": "Encounter",
      "id": "fc15300c-2890-4bbc-8870-0552449e19ba",
      "identifier": [ {
        "use": "official",
        "value": "2a620155-9d11-439e-92b3-5d9815ff4de8"
      } ],
      "status": "finished",
      "type": [ {
        "coding": [ {
          "system": "http://www.ama-assn.org/go/cpt",
          "code": "99213",
          "display": "Office/outpatient visit, est"
        }, {
          "system": "urn:oid:2.16.840.1.113883.6.103",
          "code": "V70.0",
          "display": "Routine general medical examination at a health care facility"
        } ]
      } ],
      "subject": {
        "reference": "Patient/10a0dba5-f915-4d0a-a7c4-0e79a67ece0d",
        "display": "Charles Roberson"
      },
      "period": {
        "start": "2010-09-24T10:00:00+02:00"
      }
    }
  }, {
    "resource": {
      "resourceType": "Encounter",
      "id": "726b0e55-1c21-4050-9bf5-eaf0c2776cd2",
      "identifier": [ {
        "use": "official",
        "value": "2a620155-9d11-439e-92b3-5d9815ff4de8"
      } ],
      "status": "finished",
      "type": [ {
        "coding": [ {
          "system": "http://www.ama-assn.org/go/cpt",
          "code": "99238",
          "display": "Hospital discharge day"
        } ]
      } ],
      "subject": {
        "reference": "Patient/10a0dba5-f915-4d0a-a7c4-0e79a67ece0d",
        "display": "Charles Roberson"
      },
      "period": {
        "start": "2009-07-20T10:00:00+02:00"
      },
      "reasonCode": [ {
        "coding": [ {
          "system": "http://snomed.info/sct",
          "code": "427295004",
          "display": "Asthma Persistent"
        } ]
      }, {
        "coding": [ {
          "system": "http://snomed.info/sct",
          "code": "304914007",
          "display": "Myocardial Infarction"
        } ]
      } ],
      "reasonReference": [ {
        "reference": "Condition/79398b9c-3543-4105-a8fc-5f87f37d0dee",
        "display": "Myocardial Infarction"
      }, {
        "reference": "Condition/90a337f7-ee25-4bb1-acf4-123efe2fe071",
        "display": "Asthma Persistent"
      } ]
    }
  }, {
    "resource": {
      "resourceType": "Condition",
      "id": "79398b9c-3543-4105-a8fc-5f87f37d0dee",
      "identifier": [ {
        "use": "official",
        "system": "urn:uuid:db734647-fc99-424c-a864-7e3cda82e703",
        "value": "45665"
      } ],
      "clinicalStatus": {
        "coding": [ {
          "system": "http://terminology.hl7.org/CodeSystem/condition-clinical",
          "code": "active",
          "display": "Active"
        } ]
      },
      "category": [ {
        "coding": [ {
          "system": "http://hl7.org/fhir/condition-category",
          "code": "encounter-diagnosis",
          "display": "Encounter Diagnosis"
        } ]
      } ],
      "code": {
        "coding": [ {
          "system": "http://snomed.info/sct",
          "code": "304914007",
          "display": "Myocardial Infarction"
        }, {
          "system": "urn:oid:2.16.840.1.113883.6.90",
          "code": "I21.3",
          "display": "ST elevation (STEMI) myocardial infarction of unspecified site"
        }, {
          "system": "urn:oid:2.16.840.1.113883.6.103",
          "code": "410.90",
          "display": "Acute myocardial infarction of unspecified site, episode of care unspecified"
        } ]
      },
      "subject": {
        "reference": "Patient/10a0dba5-f915-4d0a-a7c4-0e79a67ece0d",
        "display": "Charles Roberson"
      },
      "onsetDateTime": "2009-07-20T10:00:00+02:00"
    }
  }, {
    "resource": {
      "resourceType": "Condition",
      "id": "90a337f7-ee25-4bb1-acf4-123efe2fe071",
      "identifier": [ {
        "use": "official",
        "system": "urn:uuid:db734647-fc99-424c-a864-7e3cda82e703",
        "value": "45665"
      } ],
      "clinicalStatus": {
        "coding": [ {
          "system": "http://terminology.hl7.org/CodeSystem/condition-clinical",
          "code": "active",
          "display": "Active"
        } ]
      },
      "category": [ {
        "coding": [ {
          "system": "http://hl7.org/fhir/condition-category",
          "code": "encounter-diagnosis",
          "display": "Encounter Diagnosis"
        } ]
      } ],
      "code": {
        "coding": [ {
          "system": "http://snomed.info/sct",
          "code": "427295004",
          "display": "Asthma Persistent"
        }, {
          "system": "urn:oid:2.16.840.1.113883.6.90",
          "code": "J45.42",
          "display": "Moderate persistent asthma with status asthmaticus"
        } ]
      },
      "subject": {
        "reference": "Patient/10a0dba5-f915-4d0a-a7c4-0e79a67ece0d",
        "display": "Charles Roberson"
      },
      "onsetDateTime": "2009-07-20T10:00:00+02:00"
    }
  }, {
    "resource": {
      "resourceType": "Encounter",
      "id": "30fd1909-ff3a-4ab9-ba52-3705da2ba5b4",
      "identifier": [ {
        "use": "official",
        "value": "2a620155-9d11-439e-92b3-5d9815ff4de8"
      } ],
      "status": "finished",
      "type": [ {
        "coding": [ {
          "system": "http://www.ama-assn.org/go/cpt",
          "code": "99213",
          "display": "Office/outpatient visit, est"
        }, {
          "system": "urn:oid:2.16.840.1.113883.6.103",
          "code": "V70.0",
          "display": "Routine general medical examination at a health care facility"
        } ]
      } ],
      "subject": {
        "reference": "Patient/10a0dba5-f915-4d0a-a7c4-0e79a67ece0d",
        "display": "Charles Roberson"
      },
      "period": {
        "start": "2010-05-10T10:00:00+02:00"
      }
    }
  }, {
    "resource": {
      "resourceType": "Encounter",
      "id": "726e7e3d-093c-45a0-86de-492caf582399",
      "identifier": [ {
        "use": "official",
        "value": "2a620155-9d11-439e-92b3-5d9815ff4de8"
      } ],
      "status": "finished",
      "type": [ {
        "coding": [ {
          "system": "http://www.ama-assn.org/go/cpt",
          "code": "99241",
          "display": "Office consultation"
        } ]
      } ],
      "subject": {
        "reference": "Patient/10a0dba5-f915-4d0a-a7c4-0e79a67ece0d",
        "display": "Charles Roberson"
      },
      "period": {
        "start": "2010-08-25T10:00:00+02:00"
      },
      "reasonCode": [ {
        "coding": [ {
          "system": "http://snomed.info/sct",
          "code": "370202007",
          "display": "Asthma Daytime Symptoms Quantified"
        } ]
      }, {
        "coding": [ {
          "system": "http://snomed.info/sct",
          "code": "370205009",
          "display": "Asthma Nighttime Symptoms Quantified"
        } ]
      } ],
      "reasonReference": [ {
        "reference": "Condition/90a337f7-ee25-4bb1-acf4-123efe2fe071",
        "display": "Asthma Persistent"
      }, {
        "reference": "Condition/90a337f7-ee25-4bb1-acf4-123efe2fe071",
        "display": "Asthma Persistent"
      } ]
    }
  }, {
    "resource": {
      "resourceType": "Encounter",
      "id": "cc655aaf-53d0-4576-a6f5-7dd5f40c4aac",
      "identifier": [ {
        "use": "official",
        "value": "2a620155-9d11-439e-92b3-5d9815ff4de8"
      } ],
      "status": "finished",
      "type": [ {
        "coding": [ {
          "system": "http://www.ama-assn.org/go/cpt",
          "code": "99251",
          "display": "Initial inpatient consult"
        } ]
      } ],
      "subject": {
        "reference": "Patient/10a0dba5-f915-4d0a-a7c4-0e79a67ece0d",
        "display": "Charles Roberson"
      },
      "period": {
        "start": "2009-07-14T10:00:00+02:00"
      },
      "reasonCode": [ {
        "coding": [ {
          "system": "http://snomed.info/sct",
          "code": "195979001",
          "display": "Asthma"
        } ]
      }, {
        "coding": [ {
          "system": "http://snomed.info/sct",
          "code": "370202007",
          "display": "Asthma Daytime Symptoms Quantified"
        } ]
      }, {
        "coding": [ {
          "system": "http://snomed.info/sct",
          "code": "370205009",
          "display": "Asthma Nighttime Symptoms Quantified"
        } ]
      }, {
        "coding": [ {
          "system": "http://snomed.info/sct",
          "code": "57054005",
          "display": "Coronary Artery Disease includes MI"
        } ]
      }, {
        "coding": [ {
          "system": "http://snomed.info/sct",
          "code": "59621000",
          "display": "Hypertension"
        } ]
      } ],
      "reasonReference": [ {
        "reference": "Condition/90a337f7-ee25-4bb1-acf4-123efe2fe071",
        "display": "Asthma Persistent"
      }, {
        "reference": "Condition/90a337f7-ee25-4bb1-acf4-123efe2fe071",
        "display": "Asthma Persistent"
      }, {
        "reference": "Condition/90a337f7-ee25-4bb1-acf4-123efe2fe071",
        "display": "Asthma Persistent"
      }, {
        "reference": "Condition/90a337f7-ee25-4bb1-acf4-123efe2fe071",
        "display": "Asthma Persistent"
      }, {
        "reference": "Condition/90a337f7-ee25-4bb1-acf4-123efe2fe071",
        "display": "Asthma Persistent"
      } ]
    }
  } ]
}