{
  "resourceType": "Bundle",
  "entry": [ {
    "resource": {
      "resourceType": "Composition",
      "id": "d8d940fa-6b10-4ccd-8bc2-60b3b801f047",
      "identifier": {
        "use": "official",
        "value": "db734647-fc99-424c-a864-7e3cda82e703"
      },
      "status": "preliminary",
      "type": {
        "coding": [ {
          "system": "http://loinc.org",
          "code": "34133-9",
          "display": "Summarization of Episode Note"
        } ]
      },
      "category": [ {
        "coding": [ {
          "system": "http://hl7.org/fhir/ValueSet/doc-classcodes",
          "code": "LP173421-7",
          "display": "Note"
        } ]
      } ],
      "subject": {
        "reference": "Patient/4f31a365-bfde-4f89-8b4e-32a7effa2fc3",
        "display": "Tiffany Knight"
      },
      "date": "2014-04-16T11:55:30+02:00",
      "author": [ {
        "reference": "Practitioner/47b96888-e4fb-483e-9f46-c42db085b9c2",
        "display": "Henry Seven MD"
      } ],
      "title": "Community Health and Hospitals: Health Summary",
      "confidentiality": "N",
      "attester": [ {
        "mode": "legal",
        "time": "2013-04-18T09:00:00+05:00",
        "party": {
          "reference": "Practitioner/73360510-5c80-43b0-9b5b-11afcf95ad81",
          "display": "Henry Seven"
        }
      }, {
        "mode": "professional",
        "time": "2014-04-16T11:55:30+02:00",
        "party": {
          "reference": "Practitioner/73360510-5c80-43b0-9b5b-11afcf95ad81",
          "display": "Henry Seven"
        }
      } ],
      "custodian": {
        "reference": "Organization/e94c80eb-fd46-4cbc-a073-bd029f0308c8",
        "display": "Community Health and Hospitals"
      },
      "event": [ {
        "period": {
          "start": "2010-03-31T10:00:00+02:00",
          "end": "2010-09-10T10:00:00+02:00"
        },
        "detail": [ {
          "reference": "Practitioner/71f9a745-d615-42b6-9fc4-bcf1a7d9094e",
          "display": "Henry Seven MD"
        } ]
      } ],
      "section": [ {
        "title": "Encounters",
        "code": {
          "coding": [ {
            "system": "http://loinc.org",
            "code": "46240-8",
            "display": "History of encounters"
          } ]
        },
        "text": {
          "status": "additional",
          "div": "<div xmlns=\"http://www.w3.org/1999/xhtml\"><table><thead><tr><th>Group Description</th><th>Code System</th><th>Code</th><th>Code Description</th><th>Date and Time</th><th>Status</th></tr></thead><tbody><tr><td>Encounter Outpatient</td><td>CPT</td><td>99213</td><td><span/>Office/outpatient visit, est</td><td>03-31-2010 10:00:00</td><td>Performed</td></tr><tr><td/><td>ICD-9-CM</td><td>V70.0</td><td>Routine general medical examination at a health care facility</td><td/><td/></tr><tr><td>Encounter Outpatient</td><td>CPT</td><td>99213</td><td><span/>Office/outpatient visit, est</td><td>05-02-2010 10:00:00</td><td>Performed</td></tr><tr><td/><td>ICD-9-CM</td><td>V70.0</td><td>Routine general medical examination at a health care facility</td><td/><td/></tr><tr><td>Encounter Outpatient</td><td>CPT</td><td>99213</td><td><span/>Office/outpatient visit, est</td><td>06-10-2010 10:00:00</td><td>Performed</td></tr><tr><td/><td>ICD-9-CM</td><td>V70.0</td><td>Routine general medical examination at a health care facility</td><td/><td/></tr><tr><td>Encounter Prev Med Group Counseling</td><td>CPT</td><td>99412</td><td><span/>Preventive counseling, group</td><td>09-10-2010 10:00:00</td><td>Performed</td></tr></tbody></table></div>"
        },
        "mode": "snapshot",
        "entry": [ {
          "reference": "Encounter/e8d483a1-71af-486b-baa5-0f3d62ab463d",
          "display": "Preventive counseling, group"
        }, {
          "reference": "Encounter/19e0fcfb-9ee2-4feb-8284-0417e0f3c597",
          "display": "Office/outpatient visit, est"
        }, {
          "reference": "Encounter/19db7ea0-4eb2-484b-8174-5240aa357358",
          "display": "Office/outpatient visit, est"
        }, {
          "reference": "Encounter/8a4b1422-7ebb-4204-9498-35842bbd36a3",
          "display": "Office/outpatient visit, est"
        } ]
      }, {
        "title": "Procedures",
        "code": {
          "coding": [ {
            "system": "http://loinc.org",
            "code": "47519-4",
            "display": "HISTORY OF PROCEDURES"
          } ]
        },
        "text": {
          "status": "additional",
          "div": "<div xmlns=\"http://www.w3.org/1999/xhtml\"><table><thead><tr><th>Group Description</th><th>Code System</th><th>Code</th><th>Code Description</th><th>Date and Time</th><th>Status</th></tr></thead><tbody><tr><td>Pneumococcal Vaccine all ages</td><td>CPT</td><td>90669</td><td><span/>Pneumococcal vacc, ped&amp;lt;5</td><td>03-31-2010 10:00:00</td><td>Performed</td></tr><tr><td/><td>CVX</td><td>100</td><td>pneumococcal conjugate PCV 7</td><td/><td/></tr><tr><td>Ejection Fraction</td><td>SNOMED-CT</td><td>70822001</td><td><span/>Cardiac ejection fraction, function</td><td>04-16-2010 10:00:00</td><td>Performed</td></tr><tr><td>Tobacco Use Cessation Counseling</td><td>CPT</td><td>99406</td><td><span/>Behav chng smoking 3-10 min</td><td>05-02-2010 10:00:00</td><td>Performed</td></tr><tr><td/><td>SNOMED-CT</td><td>384742004</td><td>Smoking cessation assistance</td><td/><td/></tr><tr><td>dietary consultation order</td><td>SNOMED-CT</td><td>103699006</td><td><span/>Patient referral to dietitian</td><td>05-02-2010 10:00:00</td><td>Performed</td></tr><tr><td>Breast Cancer Screening</td><td>CPT</td><td>77057</td><td><span/>Mammogram, screening</td><td>09-10-2010 10:00:00</td><td>Performed</td></tr><tr><td/><td>HCPCS</td><td>G0202</td><td>Screeningmammographydigital</td><td/><td/></tr><tr><td/><td>ICD-10-CM</td><td>Z12.31</td><td>Encounter for screening mammogram for malignant neoplasm of breast</td><td/><td/></tr><tr><td/><td>ICD-9-CM</td><td>V76.12</td><td>Other screening mammogram</td><td/><td/></tr><tr><td/><td>SNOMED-CT</td><td>24623002</td><td>Screening mammography</td><td/><td/></tr><tr><td>Influenza Vaccination</td><td>CPT</td><td>90661</td><td><span/>Flu vacc cell cult prsv free</td><td>09-10-2010 10:00:00</td><td>Performed</td></tr><tr><td/><td>CVX</td><td>135</td><td>Influenza, high dose seasonal</td><td/><td/></tr></tbody></table></div>"
        },
        "mode": "snapshot",
        "entry": [ {
          "reference": "Procedure/7c7376ff-c63c-4eb1-8319-f15b55c3beab",
          "display": "Pneumococcal vacc, ped<5"
        } ]
      }, {
        "title": "Medications",
        "code": {
          "coding": [ {
            "system": "http://loinc.org",
            "code": "10160-0",
            "display": "History of Medication Use"
          } ]
        },
        "text": {
          "status": "additional",
          "div": "<div xmlns=\"http://www.w3.org/1999/xhtml\"><table><thead><tr><th>Group Description</th><th>Code System</th><th>Code</th><th>Code Description</th><th>Date and Time</th><th>Status</th></tr></thead><tbody><tr><td>ACE inhibitor or ARB</td><td>RxNorm</td><td>314076</td><td><span/>Lisinopril 10 MG Oral Tablet</td><td>05-02-2010 10:00:00</td><td>Active</td></tr><tr><td>Antiplatelets</td><td>RxNorm</td><td>243670</td><td><span/>Aspirin 81 MG Oral Tablet</td><td>05-02-2010 10:00:00</td><td>Active</td></tr><tr><td>Beta Blocker Therapy</td><td>RxNorm</td><td>866924</td><td><span/>Metoprolol Tartrate 25 MG Oral Tablet</td><td>05-02-2010 10:00:00</td><td>Active</td></tr></tbody></table></div>"
        },
        "mode": "snapshot",
        "entry": [ {
          "reference": "MedicationStatement/f23fd4a7-e7ee-42f8-8321-d29cb7ad0ac2",
          "display": "Aspirin 81 MG Oral Tablet"
        }, {
          "reference": "MedicationStatement/f6e5b9d5-2b31-44b4-95a3-c756be44ea04",
          "display": "Lisinopril 10 MG Oral Tablet"
        }, {
          "reference": "MedicationStatement/83277662-620f-4142-8d9f-923fca9d1499",
          "display": "Metoprolol Tartrate 25 MG Oral Tablet"
        } ]
      }, {
        "title": "Results",
        "code": {
          "coding": [ {
            "system": "http://loinc.org",
            "code": "30954-2",
            "display": "Results"
          } ]
        },
        "text": {
          "status": "additional",
          "div": "<div xmlns=\"http://www.w3.org/1999/xhtml\"><table><thead><tr><th>Group Description</th><th>Code System</th><th>Code</th><th>Code Description</th><th>Value</th><th>Unit</th><th>Reference Range</th><th>Date and Time</th><th>Status</th></tr></thead><tbody><tr><td>High Density Lipoprotein (HDL)</td><td>LOINC</td><td>14646-4</td><td><span/>HDLc SerPl-sCnc</td><td>55</td><td>mg/dL</td><td>&amp;gt;=40 mg/dL</td><td>05-02-2010 10:00:00</td><td>Completed</td></tr><tr><td/><td>CPT</td><td>83701</td><td>Lipoprotein bld, hr fraction</td><td/><td/><td/><td/><td/></tr><tr><td/><td>SNOMED-CT</td><td>28036006</td><td>High density lipoprotein cholesterol measurement</td><td/><td/><td/><td/><td/></tr><tr><td>Low Density Lipoprotein (LDL)</td><td>LOINC</td><td>2089-1</td><td><span/>LDLc SerPl-mCnc</td><td>70</td><td>mg/dL</td><td>&amp;lt;130 mg/dL (calc)</td><td>05-02-2010 10:00:00</td><td>Completed</td></tr><tr><td/><td>CPT</td><td>83721</td><td>Assay of blood lipoprotein</td><td/><td/><td/><td/><td/></tr><tr><td/><td>SNOMED-CT</td><td>113079009</td><td>Low density lipoprotein cholesterol measurement</td><td/><td/><td/><td/><td/></tr><tr><td>Total Cholesterol</td><td>LOINC</td><td>2093-3</td><td><span/>Cholest SerPl-mCnc</td><td>145</td><td>mg/dL</td><td>125-200 mg/dL</td><td>05-02-2010 10:00:00</td><td>Completed</td></tr><tr><td/><td>CPT</td><td>82465</td><td>Assay, bld/serum cholesterol</td><td/><td/><td/><td/><td/></tr><tr><td/><td>SNOMED-CT</td><td>121868005</td><td>Total cholesterol measurement</td><td/><td/><td/><td/><td/></tr><tr><td>Triglycerides</td><td>LOINC</td><td>12951-0</td><td><span/>Trigl SerPl Calc-mCnc</td><td>100</td><td>mg/dL</td><td>10-39 years: 55-110 mg/dL | 40-59 years: 70-150 mg/dL | &amp;gt;60 years: 80-150 mg/dL | Therapeutic Target: &amp;lt;100 mg/dL </td><td>05-02-2010 10:00:00</td><td>Completed</td></tr><tr><td/><td>CPT</td><td>84478</td><td>Assay of triglycerides</td><td/><td/><td/><td/><td/></tr><tr><td/><td>SNOMED-CT</td><td>14740000</td><td>Triglycerides measurement</td><td/><td/><td/><td/><td/></tr></tbody></table></div>"
        },
        "mode": "snapshot",
        "entry": [ {
          "reference": "DiagnosticReport/29daa5c8-dcc5-4820-8ba3-b37705080335",
          "display": "Lipid Panel"
        } ]
      }, {
        "title": "Vital Signs",
        "code": {
          "coding": [ {
            "system": "http://loinc.org",
            "code": "8716-3",
            "display": "Vital Signs"
          } ]
        },
        "text": {
          "status": "additional",
          "div": "<div xmlns=\"http://www.w3.org/1999/xhtml\"><table><thead><tr><th>Group Description</th><th>Code System</th><th>Code</th><th>Code Description</th><th>Value</th><th>Unit</th><th>Date and Time</th><th>Status</th></tr></thead><tbody><tr><td>BMI</td><td>LOINC</td><td>39156-5</td><td><span/>BMI</td><td>37.8</td><td>kg/m2</td><td>03-31-2010 10:00:00</td><td>Finding</td></tr><tr><td>Diastolic Blood Pressure</td><td>LOINC</td><td>8462-4</td><td><span/>BP Diastolic</td><td>88</td><td>mm[Hg]</td><td>05-02-2010 10:00:00</td><td>Finding</td></tr><tr><td>Heart Rate</td><td>LOINC</td><td>8867-4</td><td><span/>Heart Rate</td><td>68</td><td>/min</td><td>05-02-2010 10:00:00</td><td>Finding</td></tr><tr><td>Systolic Blood Pressure</td><td>LOINC</td><td>8480-6</td><td><span/>BP Systolic</td><td>139</td><td>mm[Hg]</td><td>05-02-2010 10:00:00</td><td>Finding</td></tr><tr><td>BMI</td><td>LOINC</td><td>39156-5</td><td><span/>BMI</td><td>36</td><td>kg/m2</td><td>06-10-2010 10:00:00</td><td>Finding</td></tr><tr><td>Diastolic Blood Pressure</td><td>LOINC</td><td>8462-4</td><td><span/>BP Diastolic</td><td>88</td><td>mm[Hg]</td><td>06-10-2010 10:00:00</td><td>Finding</td></tr><tr><td>Heart Rate</td><td>LOINC</td><td>8867-4</td><td><span/>Heart Rate</td><td>70</td><td>/min</td><td>06-10-2010 10:00:00</td><td>Finding</td></tr><tr><td>Systolic Blood Pressure</td><td>LOINC</td><td>8480-6</td><td><span/>BP Systolic</td><td>137</td><td>mm[Hg]</td><td>06-10-2010 10:00:00</td><td>Finding</td></tr></tbody></table></div>"
        },
        "mode": "snapshot",
        "entry": [ {
          "reference": "Observation/a117f298-26b0-447a-9475-fe5329dc5d32",
          "display": "BMI"
        }, {
          "reference": "Observation/986ef87f-e34e-4d85-a33c-5df295f7f293",
          "display": "BP Diastolic"
        }, {
          "reference": "Observation/1b9097ff-35dc-4580-afab-1e9ba458cab3",
          "display": "Heart Rate"
        }, {
          "reference": "Observation/f1c70aa5-98f7-4125-bfed-553cca7aa207",
          "display": "BP Systolic"
        }, {
          "reference": "Observation/6dec1e00-03b5-40e6-9fbf-0a74613c5580",
          "display": "BP Systolic"
        }, {
          "reference": "Observation/ec0d3f21-d19e-4ea7-8e07-e60f87baaf72",
          "display": "BP Diastolic"
        }, {
          "reference": "Observation/bed54070-d885-42ba-b374-9b3f1a4cc367",
          "display": "Heart Rate"
        }, {
          "reference": "Observation/3b92cc9e-ef35-4786-80b2-f550f6855221",
          "display": "BMI"
        } ]
      }, {
        "title": "Social History",
        "code": {
          "coding": [ {
            "system": "http://loinc.org",
            "code": "29762-2",
            "display": "Social History"
          } ]
        },
        "text": {
          "status": "additional",
          "div": "<div xmlns=\"http://www.w3.org/1999/xhtml\"><table><thead><tr><th>Group Description</th><th>Code System</th><th>Code</th><th>Code Description</th><th>Date and Time</th><th>Status</th></tr></thead><tbody><tr><td>Tobacco Use</td><td>SNOMED-CT</td><td>266919005</td><td><span/>Never smoker (Never Smoked)</td><td>03-31-2010 10:00:00</td><td>Active</td></tr><tr><td/><td>SNOMED-CT</td><td>449868002</td><td>Current every day smoker</td><td/><td/></tr></tbody></table></div>"
        },
        "mode": "snapshot",
        "entry": [ {
          "reference": "Observation/514f3459-06b3-4565-8bcf-cdbc7cc463c8"
        } ]
      }, {
        "title": "Problems",
        "code": {
          "coding": [ {
            "system": "http://loinc.org",
            "code": "11450-4",
            "display": "PROBLEM LIST"
          } ]
        },
        "text": {
          "status": "additional",
          "div": "<div xmlns=\"http://www.w3.org/1999/xhtml\"><table><thead><tr><th>Group Description</th><th>Code System</th><th>Code</th><th>Code Description</th><th>Date and Time</th><th>Status</th></tr></thead><tbody><tr><td>Atrial Fibrillation</td><td>SNOMED-CT</td><td>49436004</td><td><span/>Atrial fibrillation</td><td>03-31-2010 10:00:00</td><td>Active</td></tr><tr><td/><td>ICD-10-CM</td><td>I48.91</td><td>Unspecified atrial fibrillation</td><td/><td/></tr><tr><td/><td>ICD-9-CM</td><td>427.31</td><td>Atrial fibrillation</td><td/><td/></tr><tr><td>Heart Failure</td><td>SNOMED-CT</td><td>84114007</td><td><span/>Heart failure</td><td>03-31-2010 10:00:00</td><td>Active</td></tr><tr><td/><td>ICD-10-CM</td><td>I50.9</td><td>Heart failure, unspecified</td><td/><td/></tr><tr><td/><td>ICD-9-CM</td><td>428.9</td><td>Heart failure, unspecified</td><td/><td/></tr><tr><td>Hypertension</td><td>SNOMED-CT</td><td>59621000</td><td><span/>Essential hypertension</td><td>03-31-2010 10:00:00</td><td>Active</td></tr><tr><td/><td>ICD-10-CM</td><td>I10</td><td>Essential (primary) hypertension</td><td/><td/></tr><tr><td/><td>ICD-9-CM</td><td>401.9</td><td>Unspecified essential hypertension</td><td/><td/></tr></tbody></table></div>"
        },
        "mode": "snapshot",
        "entry": [ {
          "reference": "Condition/117b1856-d79d-4a8f-b3f6-6727c38c589c",
          "display": "Essential hypertension"
        } ]
      }, {
        "title": "Allergies,  Adverse Reactions & Alerts",
        "code": {
          "coding": [ {
            "system": "http://loinc.org",
            "code": "48765-2",
            "display": "Allergies, adverse reactions, alerts"
          } ]
        },
        "text": {
          "status": "additional",
          "div": "<div xmlns=\"http://www.w3.org/1999/xhtml\"><table><thead><tr><th>Group Description</th><th>Code System</th><th>Code</th><th>Code Description</th><th>Severity</th><th>Susceptibility</th><th>Date and Time</th><th>Status</th></tr></thead><tbody><tr><td>Allergy to Eggs</td><td>UNII</td><td>291P45F896</td><td><span/>Eggs</td><td><span/>Mild</td><td>Susceptible</td><td>03-31-2010 10:00:00</td><td>Active</td></tr><tr><td/><td>ICD-9-CM</td><td>V15.03</td><td>Allergy to eggs</td><td/><td/><td/><td/></tr><tr><td>Fosfomycin</td><td>RxNorm</td><td>808917</td><td><span/>Fosfomycin 33.3 MG/ML Oral Suspension</td><td><span/>Mild</td><td>Moderately Susceptible</td><td>03-31-2010 10:00:00</td><td>Active</td></tr><tr><td>Penicillin V</td><td>NDF-RT</td><td>N0000011298</td><td><span/>Penicillin V</td><td><span/>Mild</td><td>Susceptible</td><td>03-31-2010 10:00:00</td><td>Active</td></tr></tbody></table></div>"
        },
        "mode": "snapshot",
        "entry": [ {
          "reference": "AllergyIntolerance/74e26b3c-bda2-494c-ad2b-df7ed91ce704",
          "display": "Allergy to Eggs + Eggs"
        }, {
          "reference": "AllergyIntolerance/07f77107-e8c6-41c2-9b50-4ee914378354",
          "display": "Fosfomycin + Fosfomycin 33.3 MG/ML Oral Suspension"
        }, {
          "reference": "AllergyIntolerance/06927918-d490-4226-a9fe-f19c01666c31",
          "display": "Penicillin V + Penicillin V"
        } ]
      } ]
    }
  }, {
    "resource": {
      "resourceType": "Patient",
      "id": "4f31a365-bfde-4f89-8b4e-32a7effa2fc3",
      "extension": [ {
        "url": "http://hl7.org/fhir/StructureDefinition/patient-religion",
        "valueCodeableConcept": {
          "coding": [ {
            "system": "urn:oid:2.16.840.1.113883.5.1076",
            "code": "1074",
            "display": "Native American"
          } ]
        }
      }, {
        "url": "http://hl7.org/fhir/us/core/StructureDefinition/us-core-race",
        "extension": [ {
          "url": "text",
          "valueString": "White"
        }, {
          "url": "ombCategory",
          "valueCoding": {
            "system": "urn:oid:2.16.840.1.113883.6.238",
            "code": "2106-3",
            "display": "White"
          }
        } ]
      }, {
        "url": "http://hl7.org/fhir/us/core/StructureDefinition/us-core-ethnicity",
        "extension": [ {
          "url": "text",
          "valueString": "Not Hispanic or Latino"
        }, {
          "url": "ombCategory",
          "valueCoding": {
            "system": "urn:oid:2.16.840.1.113883.6.238",
            "code": "2186-5",
            "display": "Not Hispanic or Latino"
          }
        } ]
      }, {
        "url": "http://hl7.org/fhir/StructureDefinition/patient-birthPlace",
        "valueAddress": {
          "city": "Omaha",
          "state": "NE",
          "postalCode": "68124",
          "country": "US"
        }
      } ],
      "identifier": [ {
        "use": "official",
        "system": "urn:oid:2.16.840.1.113883.19.5.99999.2",
        "value": "998991"
      }, {
        "use": "official",
        "system": "urn:oid:2.16.840.1.113883.4.1",
        "value": "111-00-2330"
      } ],
      "name": [ {
        "use": "usual",
        "family": "Knight",
        "given": [ "Tiffany" ]
      } ],
      "telecom": [ {
        "system": "phone",
        "value": "(908)276-5936",
        "use": "mobile"
      } ],
      "gender": "female",
      "birthDate": "1945-02-15",
      "address": [ {
        "use": "home",
        "line": [ "195 Williams Mine Road" ],
        "city": "Cranford",
        "state": "NJ",
        "postalCode": "7016",
        "country": "US"
      } ],
      "maritalStatus": {
        "coding": [ {
          "system": "http://terminology.hl7.org/CodeSystem/v3-MaritalStatus",
          "code": "M",
          "display": "Married"
        } ]
      },
      "contact": [ {
        "relationship": [ {
          "coding": [ {
            "system": "http://terminology.hl7.org/CodeSystem/v2-0131",
            "code": "C",
            "display": "Emergency Contact"
          } ]
        } ],
        "name": {
          "family": "Younger",
          "given": [ "Edith" ],
          "prefix": [ "Ms." ]
        },
        "telecom": [ {
          "system": "phone",
          "value": "(319)976-3995",
          "use": "home"
        }, {
          "system": "email",
          "value": "EdithJYounger@cuvox.de",
          "use": "work"
        } ],
        "address": {
          "use": "home",
          "line": [ "2597 Progress Way" ],
          "city": "Des Moines",
          "state": "IA",
          "postalCode": "50309",
          "country": "US"
        }
      } ],
      "communication": [ {
        "language": {
          "coding": [ {
            "system": "urn:ietf:bcp:47",
            "code": "spa"
          } ]
        },
        "preferred": true
      } ],
      "managingOrganization": {
        "reference": "Organization/3074341a-1cc2-4ea6-99a9-e8403b414881",
        "display": "Community Health and Hospitals"
      }
    }
  }, {
    "resource": {
      "resourceType": "Organization",
      "id": "3074341a-1cc2-4ea6-99a9-e8403b414881",
      "identifier": [ {
        "use": "official",
        "value": "2.16.840.1.113883.4.6"
      } ],
      "name": "Community Health and Hospitals",
      "telecom": [ {
        "system": "phone",
        "value": " 555-555-5000",
        "use": "work"
      } ],
      "address": [ {
        "line": [ "1001 Village Avenue" ],
        "city": "Portland",
        "state": "OR",
        "postalCode": "99123",
        "country": "US"
      } ]
    }
  }, {
    "resource": {
      "resourceType": "Practitioner",
      "id": "47b96888-e4fb-483e-9f46-c42db085b9c2",
      "identifier": [ {
        "use": "official",
        "system": "urn:oid:2.16.840.1.113883.4.6",
        "value": "99999999"
      } ],
      "name": [ {
        "family": "Seven",
        "given": [ "Henry" ],
        "suffix": [ "MD" ]
      } ],
      "telecom": [ {
        "system": "phone",
        "value": "555-555-1002",
        "use": "work"
      } ],
      "address": [ {
        "line": [ "1002 Healthcare Drive" ],
        "city": "Portland",
        "state": "OR",
        "postalCode": "99123",
        "country": "US"
      } ]
    }
  }, {
    "resource": {
      "resourceType": "Practitioner",
      "id": "73360510-5c80-43b0-9b5b-11afcf95ad81",
      "identifier": [ {
        "use": "official",
        "system": "http://hl7.org/fhir/sid/us-npi",
        "value": "999999999"
      } ],
      "name": [ {
        "family": "Seven",
        "given": [ "Henry" ]
      } ],
      "telecom": [ {
        "system": "phone",
        "value": "555-555-1002",
        "use": "work"
      } ],
      "address": [ {
        "line": [ "1001 Village Avenue" ],
        "city": "Portland",
        "state": "OR",
        "postalCode": "99123",
        "country": "US"
      } ]
    }
  }, {
    "resource": {
      "resourceType": "Practitioner",
      "id": "71f9a745-d615-42b6-9fc4-bcf1a7d9094e",
      "identifier": [ {
        "use": "official",
        "system": "http://hl7.org/fhir/sid/us-npi",
        "value": "PseudoMD-1"
      } ],
      "name": [ {
        "family": "Seven",
        "given": [ "Henry" ],
        "suffix": [ "MD" ]
      } ],
      "telecom": [ {
        "system": "phone",
        "value": "+1-555-555-5000",
        "use": "home"
      } ],
      "address": [ {
        "line": [ "1001 Village Avenue" ],
        "city": "Portland",
        "state": "OR",
        "postalCode": "99123",
        "country": "US"
      } ]
    }
  }, {
    "resource": {
      "resourceType": "Organization",
      "id": "e94c80eb-fd46-4cbc-a073-bd029f0308c8",
      "identifier": [ {
        "use": "official",
        "system": "urn:oid:2.16.840.1.113883.4.6",
        "value": "99999999"
      } ],
      "name": "Community Health and Hospitals",
      "telecom": [ {
        "system": "phone",
        "value": " 555-555-1002",
        "use": "work"
      } ],
      "address": [ {
        "use": "work",
        "line": [ "1002 Healthcare Drive" ],
        "city": "Portland",
        "state": "OR",
        "postalCode": "99123",
        "country": "US"
      } ]
    }
  }, {
    "resource": {
      "resourceType": "Encounter",
      "id": "e8d483a1-71af-486b-baa5-0f3d62ab463d",
      "identifier": [ {
        "use": "official",
        "value": "2a620155-9d11-439e-92b3-5d9815ff4de8"
      } ],
      "status": "finished",
      "type": [ {
        "coding": [ {
          "system": "http://www.ama-assn.org/go/cpt",
          "code": "99412",
          "display": "Preventive counseling, group"
        } ]
      } ],
      "subject": {
        "reference": "Patient/4f31a365-bfde-4f89-8b4e-32a7effa2fc3",
        "display": "Tiffany Knight"
      },
      "period": {
        "start": "2010-09-10T10:00:00+02:00"
      }
    }
  }, {
    "resource": {
      "resourceType": "Encounter",
      "id": "19e0fcfb-9ee2-4feb-8284-0417e0f3c597",
      "identifier": [ {
        "use": "official",
        "value": "2a620155-9d11-439e-92b3-5d9815ff4de8"
      } ],
      "status": "finished",
      "type": [ {
        "coding": [ {
          "system": "http://www.ama-assn.org/go/cpt",
          "code": "99213",
          "display": "Office/outpatient visit, est"
        }, {
          "system": "urn:oid:2.16.840.1.113883.6.103",
          "code": "V70.0",
          "display": "Routine general medical examination at a health care facility"
        } ]
      } ],
      "subject": {
        "reference": "Patient/4f31a365-bfde-4f89-8b4e-32a7effa2fc3",
        "display": "Tiffany Knight"
      },
      "period": {
        "start": "2010-03-31T10:00:00+02:00"
      },
      "reasonCode": [ {
        "coding": [ {
          "system": "http://snomed.info/sct",
          "code": "49436004",
          "display": "Atrial Fibrillation"
        } ]
      }, {
        "coding": [ {
          "system": "http://snomed.info/sct",
          "code": "84114007",
          "display": "Heart Failure"
        } ]
      }, {
        "coding": [ {
          "system": "http://snomed.info/sct",
          "code": "59621000",
          "display": "Hypertension"
        } ]
      } ],
      "reasonReference": [ {
        "reference": "Condition/5017ee82-d0d0-4e2a-88c8-cb55d2d8c6ac",
        "display": "Hypertension"
      }, {
        "reference": "Condition/bcfeb398-89f5-42fe-a23e-cfa001427171",
        "display": "Heart Failure"
      }, {
        "reference": "Condition/2b48ca99-95ba-45ec-b7a7-f0a5a63900c1",
        "display": "Atrial Fibrillation"
      } ]
    }
  }, {
    "resource": {
      "resourceType": "Condition",
      "id": "5017ee82-d0d0-4e2a-88c8-cb55d2d8c6ac",
      "identifier": [ {
        "use": "official",
        "system": "urn:uuid:db734647-fc99-424c-a864-7e3cda82e703",
        "value": "45665"
      } ],
      "clinicalStatus": {
        "coding": [ {
          "system": "http://terminology.hl7.org/CodeSystem/condition-clinical",
          "code": "active",
          "display": "Active"
        } ]
      },
      "category": [ {
        "coding": [ {
          "system": "http://hl7.org/fhir/condition-category",
          "code": "encounter-diagnosis",
          "display": "Encounter Diagnosis"
        } ]
      } ],
      "code": {
        "coding": [ {
          "system": "http://snomed.info/sct",
          "code": "59621000",
          "display": "Hypertension"
        }, {
          "system": "urn:oid:2.16.840.1.113883.6.90",
          "code": "I10",
          "display": "Essential (primary) hypertension"
        }, {
          "system": "urn:oid:2.16.840.1.113883.6.103",
          "code": "401.9",
          "display": "Unspecified essential hypertension"
        } ]
      },
      "subject": {
        "reference": "Patient/4f31a365-bfde-4f89-8b4e-32a7effa2fc3",
        "display": "Tiffany Knight"
      },
      "onsetDateTime": "2010-03-31T10:00:00+02:00"
    }
  }, {
    "resource": {
      "resourceType": "Condition",
      "id": "bcfeb398-89f5-42fe-a23e-cfa001427171",
      "identifier": [ {
        "use": "official",
        "system": "urn:uuid:db734647-fc99-424c-a864-7e3cda82e703",
        "value": "45665"
      } ],
      "clinicalStatus": {
        "coding": [ {
          "system": "http://terminology.hl7.org/CodeSystem/condition-clinical",
          "code": "active",
          "display": "Active"
        } ]
      },
      "category": [ {
        "coding": [ {
          "system": "http://hl7.org/fhir/condition-category",
          "code": "encounter-diagnosis",
          "display": "Encounter Diagnosis"
        } ]
      } ],
      "code": {
        "coding": [ {
          "system": "http://snomed.info/sct",
          "code": "84114007",
          "display": "Heart Failure"
        }, {
          "system": "urn:oid:2.16.840.1.113883.6.90",
          "code": "I50.9",
          "display": "Heart failure, unspecified"
        }, {
          "system": "urn:oid:2.16.840.1.113883.6.103",
          "code": "428.9",
          "display": "Heart failure, unspecified"
        } ]
      },
      "subject": {
        "reference": "Patient/4f31a365-bfde-4f89-8b4e-32a7effa2fc3",
        "display": "Tiffany Knight"
      },
      "onsetDateTime": "2010-03-31T10:00:00+02:00"
    }
  }, {
    "resource": {
      "resourceType": "Condition",
      "id": "2b48ca99-95ba-45ec-b7a7-f0a5a63900c1",
      "identifier": [ {
        "use": "official",
        "system": "urn:uuid:db734647-fc99-424c-a864-7e3cda82e703",
        "value": "45665"
      } ],
      "clinicalStatus": {
        "coding": [ {
          "system": "http://terminology.hl7.org/CodeSystem/condition-clinical",
          "code": "active",
          "display": "Active"
        } ]
      },
      "category": [ {
        "coding": [ {
          "system": "http://hl7.org/fhir/condition-category",
          "code": "encounter-diagnosis",
          "display": "Encounter Diagnosis"
        } ]
      } ],
      "code": {
        "coding": [ {
          "system": "http://snomed.info/sct",
          "code": "49436004",
          "display": "Atrial Fibrillation"
        }, {
          "system": "urn:oid:2.16.840.1.113883.6.90",
          "code": "I48.91",
          "display": "Unspecified atrial fibrillation"
        }, {
          "system": "urn:oid:2.16.840.1.113883.6.103",
          "code": "427.31",
          "display": "Atrial fibrillation"
        } ]
      },
      "subject": {
        "reference": "Patient/4f31a365-bfde-4f89-8b4e-32a7effa2fc3",
        "display": "Tiffany Knight"
      },
      "onsetDateTime": "2010-03-31T10:00:00+02:00"
    }
  }, {
    "resource": {
      "resourceType": "Encounter",
      "id": "19db7ea0-4eb2-484b-8174-5240aa357358",
      "identifier": [ {
        "use": "official",
        "value": "2a620155-9d11-439e-92b3-5d9815ff4de8"
      } ],
      "status": "finished",
      "type": [ {
        "coding": [ {
          "system": "http://www.ama-assn.org/go/cpt",
          "code": "99213",
          "display": "Office/outpatient visit, est"
        }, {
          "system": "urn:oid:2.16.840.1.113883.6.103",
          "code": "V70.0",
          "display": "Routine general medical examination at a health care facility"
        } ]
      } ],
      "subject": {
        "reference": "Patient/4f31a365-bfde-4f89-8b4e-32a7effa2fc3",
        "display": "Tiffany Knight"
      },
      "period": {
        "start": "2010-06-10T10:00:00+02:00"
      }
    }
  }, {
    "resource": {
      "resourceType": "Encounter",
      "id": "8a4b1422-7ebb-4204-9498-35842bbd36a3",
      "identifier": [ {
        "use": "official",
        "value": "2a620155-9d11-439e-92b3-5d9815ff4de8"
      } ],
      "status": "finished",
      "type": [ {
        "coding": [ {
          "system": "http://www.ama-assn.org/go/cpt",
          "code": "99213",
          "display": "Office/outpatient visit, est"
        }, {
          "system": "urn:oid:2.16.840.1.113883.6.103",
          "code": "V70.0",
          "display": "Routine general medical examination at a health care facility"
        } ]
      } ],
      "subject": {
        "reference": "Patient/4f31a365-bfde-4f89-8b4e-32a7effa2fc3",
        "display": "Tiffany Knight"
      },
      "period": {
        "start": "2010-05-02T10:00:00+02:00"
      }
    }
  }, {
    "resource": {
      "resourceType": "Procedure",
      "id": "7c7376ff-c63c-4eb1-8319-f15b55c3beab",
      "identifier": [ {
        "use": "official",
        "value": "e401f340-7be2-11db-9fe1-0800200c9a66"
      } ],
      "status": "completed",
      "code": {
        "coding": [ {
          "system": "http://www.ama-assn.org/go/cpt",
          "code": "90669",
          "display": "Pneumococcal vacc, ped<5"
        }, {
          "system": "http://www2a.cdc.gov/vaccines/iis/iisstandards/vaccines.asp?rpt=cvx",
          "code": "100",
          "display": "pneumococcal conjugate PCV 7"
        } ]
      },
      "subject": {
        "reference": "Patient/4f31a365-bfde-4f89-8b4e-32a7effa2fc3",
        "display": "Tiffany Knight"
      },
      "performedPeriod": {
        "start": "2010-03-31T10:00:00+02:00"
      }
    }
  }, {
    "resource": {
      "resourceType": "MedicationStatement",
      "id": "f23fd4a7-e7ee-42f8-8321-d29cb7ad0ac2",
      "extension": [ {
        "url": "http://hl7.org/fhir/3.0/StructureDefinition/extension-MedicationStatement.status",
        "valueCode": "UNKNOWN"
      } ],
      "identifier": [ {
        "use": "official",
        "value": "cdbd33f0-6cde-11db-9fe1-0800200c9a66"
      } ],
      "status": "completed",
      "medicationReference": {
        "reference": "Medication/7124e299-b6d8-4e90-809e-f04c0e9c15f3",
        "display": "Aspirin 81 MG Oral Tablet"
      },
      "subject": {
        "reference": "Patient/4f31a365-bfde-4f89-8b4e-32a7effa2fc3",
        "display": "Tiffany Knight"
      },
      "effectivePeriod": {
        "start": "2010-05-02T10:00:00+02:00"
      }
    }
  }, {
    "resource": {
      "resourceType": "Medication",
      "id": "7124e299-b6d8-4e90-809e-f04c0e9c15f3",
      "code": {
        "coding": [ {
          "system": "http://www.nlm.nih.gov/research/umls/rxnorm",
          "code": "243670",
          "display": "Aspirin 81 MG Oral Tablet"
        } ]
      }
    }
  }, {
    "resource": {
      "resourceType": "MedicationStatement",
      "id": "f6e5b9d5-2b31-44b4-95a3-c756be44ea04",
      "extension": [ {
        "url": "http://hl7.org/fhir/3.0/StructureDefinition/extension-MedicationStatement.status",
        "valueCode": "UNKNOWN"
      } ],
      "identifier": [ {
        "use": "official",
        "value": "cdbd33f0-6cde-11db-9fe1-0800200c9a66"
      } ],
      "status": "completed",
      "medicationReference": {
        "reference": "Medication/1136ecec-f9ed-4fa7-bafb-1c79ee7ca540",
        "display": "Lisinopril 10 MG Oral Tablet"
      },
      "subject": {
        "reference": "Patient/4f31a365-bfde-4f89-8b4e-32a7effa2fc3",
        "display": "Tiffany Knight"
      },
      "effectivePeriod": {
        "start": "2010-05-02T10:00:00+02:00"
      }
    }
  }, {
    "resource": {
      "resourceType": "Medication",
      "id": "1136ecec-f9ed-4fa7-bafb-1c79ee7ca540",
      "code": {
        "coding": [ {
          "system": "http://www.nlm.nih.gov/research/umls/rxnorm",
          "code": "314076",
          "display": "Lisinopril 10 MG Oral Tablet"
        } ]
      }
    }
  }, {
    "resource": {
      "resourceType": "MedicationStatement",
      "id": "83277662-620f-4142-8d9f-923fca9d1499",
      "extension": [ {
        "url": "http://hl7.org/fhir/3.0/StructureDefinition/extension-MedicationStatement.status",
        "valueCode": "UNKNOWN"
      } ],
      "identifier": [ {
        "use": "official",
        "value": "cdbd33f0-6cde-11db-9fe1-0800200c9a66"
      } ],
      "status": "completed",
      "medicationReference": {
        "reference": "Medication/5af95205-e50a-47d1-8c75-2513a8793e7e",
        "display": "Metoprolol Tartrate 25 MG Oral Tablet"
      },
      "subject": {
        "reference": "Patient/4f31a365-bfde-4f89-8b4e-32a7effa2fc3",
        "display": "Tiffany Knight"
      },
      "effectivePeriod": {
        "start": "2010-05-02T10:00:00+02:00"
      }
    }
  }, {
    "resource": {
      "resourceType": "Medication",
      "id": "5af95205-e50a-47d1-8c75-2513a8793e7e",
      "code": {
        "coding": [ {
          "system": "http://www.nlm.nih.gov/research/umls/rxnorm",
          "code": "866924",
          "display": "Metoprolol Tartrate 25 MG Oral Tablet"
        } ]
      }
    }
  }, {
    "resource": {
      "resourceType": "DiagnosticReport",
      "id": "29daa5c8-dcc5-4820-8ba3-b37705080335",
      "identifier": [ {
        "use": "official",
        "value": "7d5a02b0-67a4-11db-bd13-0800200c9a66"
      } ],
      "status": "final",
      "category": [ {
        "coding": [ {
          "system": "http://terminology.hl7.org/CodeSystem/v2-0074",
          "code": "LAB",
          "display": "Laboratory"
        } ]
      } ],
      "code": {
        "coding": [ {
          "system": "http://snomed.info/sct",
          "code": "16254007",
          "display": "Lipid Panel"
        } ]
      },
      "subject": {
        "reference": "Patient/4f31a365-bfde-4f89-8b4e-32a7effa2fc3",
        "display": "Tiffany Knight"
      },
      "result": [ {
        "reference": "Observation/34093ce4-56ae-4e6a-aebf-03ab363539fc",
        "display": "HDLc SerPl-sCnc"
      }, {
        "reference": "Observation/5b7be8b7-5809-4e27-8ce3-73c00e8fdb04",
        "display": "LDLc SerPl-mCnc"
      }, {
        "reference": "Observation/c1cf3165-4ebe-4549-9393-001966172c4a",
        "display": "Trigl SerPl Calc-mCnc"
      }, {
        "reference": "Observation/a8363093-80dd-45e6-81f5-b83fb04a68e9",
        "display": "Cholest SerPl-mCnc"
      } ]
    }
  }, {
    "resource": {
      "resourceType": "Observation",
      "id": "34093ce4-56ae-4e6a-aebf-03ab363539fc",
      "identifier": [ {
        "use": "official",
        "value": "107c2dc0-67a5-11db-bd13-0800200c9a66"
      } ],
      "status": "final",
      "category": [ {
        "coding": [ {
          "system": "http://terminology.hl7.org/CodeSystem/observation-category",
          "code": "laboratory"
        } ]
      } ],
      "code": {
        "coding": [ {
          "system": "http://loinc.org",
          "code": "14646-4",
          "display": "HDLc SerPl-sCnc"
        }, {
          "system": "http://www.ama-assn.org/go/cpt",
          "code": "83701",
          "display": "Lipoprotein bld, hr fraction"
        }, {
          "system": "http://snomed.info/sct",
          "code": "28036006",
          "display": "High density lipoprotein cholesterol measurement"
        } ]
      },
      "subject": {
        "reference": "Patient/4f31a365-bfde-4f89-8b4e-32a7effa2fc3",
        "display": "Tiffany Knight"
      },
      "effectivePeriod": {
        "start": "2010-05-02T10:00:00+02:00"
      },
      "valueQuantity": {
        "value": 55,
        "unit": "mg/dL",
        "system": "http://unitsofmeasure.org",
        "code": "mg/dL"
      },
      "interpretation": [ {
        "coding": [ {
          "system": "http://terminology.hl7.org/CodeSystem/v3-ObservationInterpretation",
          "code": "N"
        } ]
      } ],
      "referenceRange": [ {
        "text": ">=40 mg/dL"
      } ]
    }
  }, {
    "resource": {
      "resourceType": "Observation",
      "id": "5b7be8b7-5809-4e27-8ce3-73c00e8fdb04",
      "identifier": [ {
        "use": "official",
        "value": "107c2dc0-67a5-11db-bd13-0800200c9a66"
      } ],
      "status": "final",
      "category": [ {
        "coding": [ {
          "system": "http://terminology.hl7.org/CodeSystem/observation-category",
          "code": "laboratory"
        } ]
      } ],
      "code": {
        "coding": [ {
          "system": "http://loinc.org",
          "code": "2089-1",
          "display": "LDLc SerPl-mCnc"
        }, {
          "system": "http://www.ama-assn.org/go/cpt",
          "code": "83721",
          "display": "Assay of blood lipoprotein"
        }, {
          "system": "http://snomed.info/sct",
          "code": "113079009",
          "display": "Low density lipoprotein cholesterol measurement"
        } ]
      },
      "subject": {
        "reference": "Patient/4f31a365-bfde-4f89-8b4e-32a7effa2fc3",
        "display": "Tiffany Knight"
      },
      "effectivePeriod": {
        "start": "2010-05-02T10:00:00+02:00"
      },
      "valueQuantity": {
        "value": 70,
        "unit": "mg/dL",
        "system": "http://unitsofmeasure.org",
        "code": "mg/dL"
      },
      "interpretation": [ {
        "coding": [ {
          "system": "http://terminology.hl7.org/CodeSystem/v3-ObservationInterpretation",
          "code": "N"
        } ]
      } ],
      "referenceRange": [ {
        "text": "<130 mg/dL (calc)"
      } ]
    }
  }, {
    "resource": {
      "resourceType": "Observation",
      "id": "c1cf3165-4ebe-4549-9393-001966172c4a",
      "identifier": [ {
        "use": "official",
        "value": "107c2dc0-67a5-11db-bd13-0800200c9a66"
      } ],
      "status": "final",
      "category": [ {
        "coding": [ {
          "system": "http://terminology.hl7.org/CodeSystem/observation-category",
          "code": "laboratory"
        } ]
      } ],
      "code": {
        "coding": [ {
          "system": "http://loinc.org",
          "code": "12951-0",
          "display": "Trigl SerPl Calc-mCnc"
        }, {
          "system": "http://www.ama-assn.org/go/cpt",
          "code": "84478",
          "display": "Assay of triglycerides"
        }, {
          "system": "http://snomed.info/sct",
          "code": "14740000",
          "display": "Triglycerides measurement"
        } ]
      },
      "subject": {
        "reference": "Patient/4f31a365-bfde-4f89-8b4e-32a7effa2fc3",
        "display": "Tiffany Knight"
      },
      "effectivePeriod": {
        "start": "2010-05-02T10:00:00+02:00"
      },
      "valueQuantity": {
        "value": 100,
        "unit": "mg/dL",
        "system": "http://unitsofmeasure.org",
        "code": "mg/dL"
      },
      "interpretation": [ {
        "coding": [ {
          "system": "http://terminology.hl7.org/CodeSystem/v3-ObservationInterpretation",
          "code": "N"
        } ]
      } ],
      "referenceRange": [ {
        "text": "10-39 years: 55-110 mg/dL | 40-59 years: 70-150 mg/dL | >60 years: 80-150 mg/dL | Therapeutic Target: <100 mg/dL "
      } ]
    }
  }, {
    "resource": {
      "resourceType": "Observation",
      "id": "a8363093-80dd-45e6-81f5-b83fb04a68e9",
      "identifier": [ {
        "use": "official",
        "value": "107c2dc0-67a5-11db-bd13-0800200c9a66"
      } ],
      "status": "final",
      "category": [ {
        "coding": [ {
          "system": "http://terminology.hl7.org/CodeSystem/observation-category",
          "code": "laboratory"
        } ]
      } ],
      "code": {
        "coding": [ {
          "system": "http://loinc.org",
          "code": "2093-3",
          "display": "Cholest SerPl-mCnc"
        }, {
          "system": "http://www.ama-assn.org/go/cpt",
          "code": "82465",
          "display": "Assay, bld/serum cholesterol"
        }, {
          "system": "http://snomed.info/sct",
          "code": "121868005",
          "display": "Total cholesterol measurement"
        } ]
      },
      "subject": {
        "reference": "Patient/4f31a365-bfde-4f89-8b4e-32a7effa2fc3",
        "display": "Tiffany Knight"
      },
      "effectivePeriod": {
        "start": "2010-05-02T10:00:00+02:00"
      },
      "valueQuantity": {
        "value": 145,
        "unit": "mg/dL",
        "system": "http://unitsofmeasure.org",
        "code": "mg/dL"
      },
      "interpretation": [ {
        "coding": [ {
          "system": "http://terminology.hl7.org/CodeSystem/v3-ObservationInterpretation",
          "code": "N"
        } ]
      } ],
      "referenceRange": [ {
        "text": "125-200 mg/dL"
      } ]
    }
  }, {
    "resource": {
      "resourceType": "Observation",
      "id": "a117f298-26b0-447a-9475-fe5329dc5d32",
      "identifier": [ {
        "use": "official",
        "value": "c6f88321-67ad-11db-bd13-0800200c9a66"
      } ],
      "status": "final",
      "category": [ {
        "coding": [ {
          "system": "http://terminology.hl7.org/CodeSystem/observation-category",
          "code": "vital-signs",
          "display": "Vital Signs"
        } ]
      } ],
      "code": {
        "coding": [ {
          "system": "http://loinc.org",
          "code": "39156-5",
          "display": "BMI"
        } ]
      },
      "subject": {
        "reference": "Patient/4f31a365-bfde-4f89-8b4e-32a7effa2fc3",
        "display": "Tiffany Knight"
      },
      "effectivePeriod": {
        "start": "2010-03-31T10:00:00+02:00"
      },
      "valueQuantity": {
        "value": 37.8,
        "unit": "kg/m2",
        "system": "http://unitsofmeasure.org",
        "code": "kg/m2"
      }
    }
  }, {
    "resource": {
      "resourceType": "Observation",
      "id": "986ef87f-e34e-4d85-a33c-5df295f7f293",
      "identifier": [ {
        "use": "official",
        "value": "c6f88321-67ad-11db-bd13-0800200c9a66"
      } ],
      "status": "final",
      "category": [ {
        "coding": [ {
          "system": "http://terminology.hl7.org/CodeSystem/observation-category",
          "code": "vital-signs",
          "display": "Vital Signs"
        } ]
      } ],
      "code": {
        "coding": [ {
          "system": "http://loinc.org",
          "code": "8462-4",
          "display": "BP Diastolic"
        } ]
      },
      "subject": {
        "reference": "Patient/4f31a365-bfde-4f89-8b4e-32a7effa2fc3",
        "display": "Tiffany Knight"
      },
      "effectivePeriod": {
        "start": "2010-05-02T10:00:00+02:00"
      },
      "valueQuantity": {
        "value": 88,
        "unit": "mm[Hg]",
        "system": "http://unitsofmeasure.org",
        "code": "mm[Hg]"
      }
    }
  }, {
    "resource": {
      "resourceType": "Observation",
      "id": "1b9097ff-35dc-4580-afab-1e9ba458cab3",
      "identifier": [ {
        "use": "official",
        "value": "c6f88321-67ad-11db-bd13-0800200c9a66"
      } ],
      "status": "final",
      "category": [ {
        "coding": [ {
          "system": "http://terminology.hl7.org/CodeSystem/observation-category",
          "code": "vital-signs",
          "display": "Vital Signs"
        } ]
      } ],
      "code": {
        "coding": [ {
          "system": "http://loinc.org",
          "code": "8867-4",
          "display": "Heart Rate"
        } ]
      },
      "subject": {
        "reference": "Patient/4f31a365-bfde-4f89-8b4e-32a7effa2fc3",
        "display": "Tiffany Knight"
      },
      "effectivePeriod": {
        "start": "2010-05-02T10:00:00+02:00"
      },
      "valueQuantity": {
        "value": 68,
        "unit": "/min",
        "system": "http://unitsofmeasure.org",
        "code": "/min"
      }
    }
  }, {
    "resource": {
      "resourceType": "Observation",
      "id": "f1c70aa5-98f7-4125-bfed-553cca7aa207",
      "identifier": [ {
        "use": "official",
        "value": "c6f88321-67ad-11db-bd13-0800200c9a66"
      } ],
      "status": "final",
      "category": [ {
        "coding": [ {
          "system": "http://terminology.hl7.org/CodeSystem/observation-category",
          "code": "vital-signs",
          "display": "Vital Signs"
        } ]
      } ],
      "code": {
        "coding": [ {
          "system": "http://loinc.org",
          "code": "8480-6",
          "display": "BP Systolic"
        } ]
      },
      "subject": {
        "reference": "Patient/4f31a365-bfde-4f89-8b4e-32a7effa2fc3",
        "display": "Tiffany Knight"
      },
      "effectivePeriod": {
        "start": "2010-05-02T10:00:00+02:00"
      },
      "valueQuantity": {
        "value": 139,
        "unit": "mm[Hg]",
        "system": "http://unitsofmeasure.org",
        "code": "mm[Hg]"
      }
    }
  }, {
    "resource": {
      "resourceType": "Observation",
      "id": "6dec1e00-03b5-40e6-9fbf-0a74613c5580",
      "identifier": [ {
        "use": "official",
        "value": "c6f88321-67ad-11db-bd13-0800200c9a66"
      } ],
      "status": "final",
      "category": [ {
        "coding": [ {
          "system": "http://terminology.hl7.org/CodeSystem/observation-category",
          "code": "vital-signs",
          "display": "Vital Signs"
        } ]
      } ],
      "code": {
        "coding": [ {
          "system": "http://loinc.org",
          "code": "8480-6",
          "display": "BP Systolic"
        } ]
      },
      "subject": {
        "reference": "Patient/4f31a365-bfde-4f89-8b4e-32a7effa2fc3",
        "display": "Tiffany Knight"
      },
      "effectivePeriod": {
        "start": "2010-06-10T10:00:00+02:00"
      },
      "valueQuantity": {
        "value": 137,
        "unit": "mm[Hg]",
        "system": "http://unitsofmeasure.org",
        "code": "mm[Hg]"
      }
    }
  }, {
    "resource": {
      "resourceType": "Observation",
      "id": "ec0d3f21-d19e-4ea7-8e07-e60f87baaf72",
      "identifier": [ {
        "use": "official",
        "value": "c6f88321-67ad-11db-bd13-0800200c9a66"
      } ],
      "status": "final",
      "category": [ {
        "coding": [ {
          "system": "http://terminology.hl7.org/CodeSystem/observation-category",
          "code": "vital-signs",
          "display": "Vital Signs"
        } ]
      } ],
      "code": {
        "coding": [ {
          "system": "http://loinc.org",
          "code": "8462-4",
          "display": "BP Diastolic"
        } ]
      },
      "subject": {
        "reference": "Patient/4f31a365-bfde-4f89-8b4e-32a7effa2fc3",
        "display": "Tiffany Knight"
      },
      "effectivePeriod": {
        "start": "2010-06-10T10:00:00+02:00"
      },
      "valueQuantity": {
        "value": 88,
        "unit": "mm[Hg]",
        "system": "http://unitsofmeasure.org",
        "code": "mm[Hg]"
      }
    }
  }, {
    "resource": {
      "resourceType": "Observation",
      "id": "bed54070-d885-42ba-b374-9b3f1a4cc367",
      "identifier": [ {
        "use": "official",
        "value": "c6f88321-67ad-11db-bd13-0800200c9a66"
      } ],
      "status": "final",
      "category": [ {
        "coding": [ {
          "system": "http://terminology.hl7.org/CodeSystem/observation-category",
          "code": "vital-signs",
          "display": "Vital Signs"
        } ]
      } ],
      "code": {
        "coding": [ {
          "system": "http://loinc.org",
          "code": "8867-4",
          "display": "Heart Rate"
        } ]
      },
      "subject": {
        "reference": "Patient/4f31a365-bfde-4f89-8b4e-32a7effa2fc3",
        "display": "Tiffany Knight"
      },
      "effectivePeriod": {
        "start": "2010-06-10T10:00:00+02:00"
      },
      "valueQuantity": {
        "value": 70,
        "unit": "/min",
        "system": "http://unitsofmeasure.org",
        "code": "/min"
      }
    }
  }, {
    "resource": {
      "resourceType": "Observation",
      "id": "3b92cc9e-ef35-4786-80b2-f550f6855221",
      "identifier": [ {
        "use": "official",
        "value": "c6f88321-67ad-11db-bd13-0800200c9a66"
      } ],
      "status": "final",
      "category": [ {
        "coding": [ {
          "system": "http://terminology.hl7.org/CodeSystem/observation-category",
          "code": "vital-signs",
          "display": "Vital Signs"
        } ]
      } ],
      "code": {
        "coding": [ {
          "system": "http://loinc.org",
          "code": "39156-5",
          "display": "BMI"
        } ]
      },
      "subject": {
        "reference": "Patient/4f31a365-bfde-4f89-8b4e-32a7effa2fc3",
        "display": "Tiffany Knight"
      },
      "effectivePeriod": {
        "start": "2010-06-10T10:00:00+02:00"
      },
      "valueQuantity": {
        "value": 36,
        "unit": "kg/m2",
        "system": "http://unitsofmeasure.org",
        "code": "kg/m2"
      }
    }
  }, {
    "resource": {
      "resourceType": "Observation",
      "id": "514f3459-06b3-4565-8bcf-cdbc7cc463c8",
      "identifier": [ {
        "use": "official",
        "system": "urn:oid:2.16.840.1.113883.19",
        "value": "123456789"
      } ],
      "status": "final",
      "code": {
        "coding": [ {
          "system": "urn:oid:2.16.840.1.113883.5.4",
          "code": "ASSERTION"
        } ]
      },
      "subject": {
        "reference": "Patient/4f31a365-bfde-4f89-8b4e-32a7effa2fc3",
        "display": "Tiffany Knight"
      },
      "effectivePeriod": {
        "start": "2010-03-31T10:00:00+02:00"
      },
      "valueCodeableConcept": {
        "coding": [ {
          "system": "http://snomed.info/sct",
          "code": "266919005",
          "display": "Never smoker (Never Smoked)"
        }, {
          "system": "http://snomed.info/sct",
          "code": "449868002",
          "display": "Current every day smoker"
        } ]
      }
    }
  }, {
    "resource": {
      "resourceType": "Condition",
      "id": "117b1856-d79d-4a8f-b3f6-6727c38c589c",
      "identifier": [ {
        "use": "official",
        "value": "9d3d416d-45ab-4da1-912f-4583e0632000"
      } ],
      "clinicalStatus": {
        "coding": [ {
          "system": "http://terminology.hl7.org/CodeSystem/condition-clinical",
          "code": "active",
          "display": "Active"
        } ]
      },
      "verificationStatus": {
        "coding": [ {
          "system": "http://terminology.hl7.org/CodeSystem/condition-ver-status",
          "code": "confirmed",
          "display": "Confirmed"
        } ]
      },
      "category": [ {
        "coding": [ {
          "system": "http://terminology.hl7.org/CodeSystem/condition-category",
          "code": "problem-list-item",
          "display": "Problem List Item"
        } ]
      } ],
      "code": {
        "coding": [ {
          "system": "http://snomed.info/sct",
          "code": "59621000",
          "display": "Essential hypertension"
        }, {
          "system": "urn:oid:2.16.840.1.113883.6.90",
          "code": "I10",
          "display": "Essential (primary) hypertension"
        }, {
          "system": "urn:oid:2.16.840.1.113883.6.103",
          "code": "401.9",
          "display": "Unspecified essential hypertension"
        } ]
      },
      "subject": {
        "reference": "Patient/4f31a365-bfde-4f89-8b4e-32a7effa2fc3",
        "display": "Tiffany Knight"
      },
      "onsetDateTime": "2010-03-31T10:00:00+02:00"
    }
  }, {
    "resource": {
      "resourceType": "AllergyIntolerance",
      "id": "74e26b3c-bda2-494c-ad2b-df7ed91ce704",
      "identifier": [ {
        "use": "official",
        "value": "36e3e930-7b14-11db-9fe1-0800200c9a66"
      } ],
      "clinicalStatus": {
        "coding": [ {
          "system": "http://terminology.hl7.org/CodeSystem/allergyintolerance-clinical",
          "code": "active",
          "display": "Active"
        } ]
      },
      "verificationStatus": {
        "coding": [ {
          "system": "http://terminology.hl7.org/CodeSystem/allergyintolerance-verification",
          "code": "confirmed",
          "display": "Confirmed"
        } ]
      },
      "type": "allergy",
      "category": [ "food" ],
      "code": {
        "coding": [ {
          "system": "http://fdasis.nlm.nih.gov",
          "code": "291P45F896",
          "display": "Eggs"
        }, {
          "system": "urn:oid:2.16.840.1.113883.6.103",
          "code": "V15.03",
          "display": "Allergy to eggs"
        } ],
        "text": "Allergy to Eggs + Eggs"
      },
      "patient": {
        "reference": "Patient/4f31a365-bfde-4f89-8b4e-32a7effa2fc3",
        "display": "Tiffany Knight"
      },
      "recordedDate": "2010-03-31T10:00:00+02:00"
    }
  }, {
    "resource": {
      "resourceType": "AllergyIntolerance",
      "id": "07f77107-e8c6-41c2-9b50-4ee914378354",
      "identifier": [ {
        "use": "official",
        "value": "36e3e930-7b14-11db-9fe1-0800200c9a66"
      } ],
      "clinicalStatus": {
        "coding": [ {
          "system": "http://terminology.hl7.org/CodeSystem/allergyintolerance-clinical",
          "code": "active",
          "display": "Active"
        } ]
      },
      "verificationStatus": {
        "coding": [ {
          "system": "http://terminology.hl7.org/CodeSystem/allergyintolerance-verification",
          "code": "confirmed",
          "display": "Confirmed"
        } ]
      },
      "type": "allergy",
      "category": [ "medication" ],
      "code": {
        "coding": [ {
          "system": "http://www.nlm.nih.gov/research/umls/rxnorm",
          "code": "808917",
          "display": "Fosfomycin 33.3 MG/ML Oral Suspension"
        } ],
        "text": "Fosfomycin + Fosfomycin 33.3 MG/ML Oral Suspension"
      },
      "patient": {
        "reference": "Patient/4f31a365-bfde-4f89-8b4e-32a7effa2fc3",
        "display": "Tiffany Knight"
      },
      "recordedDate": "2010-03-31T10:00:00+02:00"
    }
  }, {
    "resource": {
      "resourceType": "AllergyIntolerance",
      "id": "06927918-d490-4226-a9fe-f19c01666c31",
      "identifier": [ {
        "use": "official",
        "value": "36e3e930-7b14-11db-9fe1-0800200c9a66"
      } ],
      "clinicalStatus": {
        "coding": [ {
          "system": "http://terminology.hl7.org/CodeSystem/allergyintolerance-clinical",
          "code": "active",
          "display": "Active"
        } ]
      },
      "verificationStatus": {
        "coding": [ {
          "system": "http://terminology.hl7.org/CodeSystem/allergyintolerance-verification",
          "code": "confirmed",
          "display": "Confirmed"
        } ]
      },
      "type": "allergy",
      "category": [ "medication" ],
      "code": {
        "coding": [ {
          "system": "urn:oid:2.16.840.1.113883.3.26.1.5",
          "code": "N0000011298",
          "display": "Penicillin V"
        } ],
        "text": "Penicillin V + Penicillin V"
      },
      "patient": {
        "reference": "Patient/4f31a365-bfde-4f89-8b4e-32a7effa2fc3",
        "display": "Tiffany Knight"
      },
      "recordedDate": "2010-03-31T10:00:00+02:00"
    }
  } ]
}