{
  "resourceType": "Bundle",
  "entry": [ {
    "resource": {
      "resourceType": "Composition",
      "id": "15becb55-2a07-4114-8278-e274ddf29a1a",
      "identifier": {
        "use": "official",
        "value": "db734647-fc99-424c-a864-7e3cda82e703"
      },
      "status": "preliminary",
      "type": {
        "coding": [ {
          "system": "http://loinc.org",
          "code": "34133-9",
          "display": "Summarization of Episode Note"
        } ]
      },
      "category": [ {
        "coding": [ {
          "system": "http://hl7.org/fhir/ValueSet/doc-classcodes",
          "code": "LP173421-7",
          "display": "Note"
        } ]
      } ],
      "subject": {
        "reference": "Patient/38be861c-eee3-4fa8-8660-95a6d12ebb48",
        "display": "Kyle Briggs"
      },
      "date": "2014-04-16T11:54:53+02:00",
      "author": [ {
        "reference": "Practitioner/61c3f143-8540-4b98-a82e-091516d7ca42",
        "display": "Henry Seven MD"
      } ],
      "title": "Community Health and Hospitals: Health Summary",
      "confidentiality": "N",
      "attester": [ {
        "mode": "legal",
        "time": "2013-04-18T09:00:00+05:00",
        "party": {
          "reference": "Practitioner/d7fd2f5a-e7bd-4afc-8fee-73d06163a09d",
          "display": "Henry Seven"
        }
      }, {
        "mode": "professional",
        "time": "2014-04-16T11:54:53+02:00",
        "party": {
          "reference": "Practitioner/d7fd2f5a-e7bd-4afc-8fee-73d06163a09d",
          "display": "Henry Seven"
        }
      } ],
      "custodian": {
        "reference": "Organization/749a175f-561c-4338-b7dc-cdfcb039e281",
        "display": "Community Health and Hospitals"
      },
      "event": [ {
        "period": {
          "start": "2010-04-13T10:00:00+02:00",
          "end": "2010-08-12T10:00:00+02:00"
        },
        "detail": [ {
          "reference": "Practitioner/cf900a08-3e3d-4dac-994b-82b56764dc4c",
          "display": "Henry Seven MD"
        } ]
      } ],
      "section": [ {
        "title": "Vital Signs",
        "code": {
          "coding": [ {
            "system": "http://loinc.org",
            "code": "8716-3",
            "display": "Vital Signs"
          } ]
        },
        "text": {
          "status": "additional",
          "div": "<div xmlns=\"http://www.w3.org/1999/xhtml\"><table><thead><tr><th>Group Description</th><th>Code System</th><th>Code</th><th>Code Description</th><th>Value</th><th>Unit</th><th>Date and Time</th><th>Status</th></tr></thead><tbody><tr><td>BMI</td><td>LOINC</td><td>39156-5</td><td><span/>BMI</td><td>22.3</td><td>kg/m2</td><td>04-13-2010 10:00:00</td><td>Finding</td></tr><tr><td>Diastolic Blood Pressure</td><td>LOINC</td><td>8462-4</td><td><span/>BP Diastolic</td><td>90</td><td>mm[Hg]</td><td>04-13-2010 10:00:00</td><td>Finding</td></tr><tr><td>Systolic Blood Pressure</td><td>LOINC</td><td>8480-6</td><td><span/>BP Systolic</td><td>154</td><td>mm[Hg]</td><td>04-13-2010 10:00:00</td><td>Finding</td></tr><tr><td>BMI</td><td>LOINC</td><td>39156-5</td><td><span/>BMI</td><td>22.6</td><td>kg/m2</td><td>08-12-2010 10:00:00</td><td>Finding</td></tr><tr><td>Diastolic Blood Pressure</td><td>LOINC</td><td>8462-4</td><td><span/>BP Diastolic</td><td>88</td><td>mm[Hg]</td><td>08-12-2010 10:00:00</td><td>Finding</td></tr><tr><td>Systolic Blood Pressure</td><td>LOINC</td><td>8480-6</td><td><span/>BP Systolic</td><td>150</td><td>mm[Hg]</td><td>08-12-2010 10:00:00</td><td>Finding</td></tr></tbody></table></div>"
        },
        "mode": "snapshot",
        "entry": [ {
          "reference": "Observation/84b02f1d-00bd-421a-82c7-66ba28d75213",
          "display": "BMI"
        }, {
          "reference": "Observation/c88ebb5d-b0b5-4f58-b969-1fdfc125fca4",
          "display": "BP Diastolic"
        }, {
          "reference": "Observation/f53b548e-2cdc-4c6c-b9e5-95c28525ccea",
          "display": "BP Systolic"
        }, {
          "reference": "Observation/ca1d2834-8890-4946-b1c1-f86365fe2503",
          "display": "BP Diastolic"
        }, {
          "reference": "Observation/ed41e952-5d19-47db-b1c7-b036e676b747",
          "display": "BMI"
        }, {
          "reference": "Observation/194c6963-7eb3-4595-a7ef-2d51a37812db",
          "display": "BP Systolic"
        } ]
      }, {
        "title": "Medications",
        "code": {
          "coding": [ {
            "system": "http://loinc.org",
            "code": "10160-0",
            "display": "History of Medication Use"
          } ]
        },
        "text": {
          "status": "additional",
          "div": "<div xmlns=\"http://www.w3.org/1999/xhtml\"><table><thead><tr><th>Group Description</th><th>Code System</th><th>Code</th><th>Code Description</th><th>Date and Time</th><th>Status</th></tr></thead><tbody><tr><td>Antihypertensive combinations</td><td>RxNorm</td><td>858828</td><td><span/>Enalapril Maleate 10 MG / Hydrochlorothiazide 25 MG Oral Tablet</td><td>04-13-2010 10:00:00</td><td>Active</td></tr></tbody></table></div>"
        },
        "mode": "snapshot",
        "entry": [ {
          "reference": "MedicationStatement/2217e136-9ffa-470f-ad15-eaad68d8d600",
          "display": "Enalapril Maleate 10 MG / Hydrochlorothiazide 25 MG Oral Tablet"
        } ]
      }, {
        "title": "Procedures",
        "code": {
          "coding": [ {
            "system": "http://loinc.org",
            "code": "47519-4",
            "display": "HISTORY OF PROCEDURES"
          } ]
        },
        "text": {
          "status": "additional",
          "div": "<div xmlns=\"http://www.w3.org/1999/xhtml\"><table><thead><tr><th>Group Description</th><th>Code System</th><th>Code</th><th>Code Description</th><th>Date and Time</th><th>Status</th></tr></thead><tbody><tr><td>Tobacco Use Cessation Counseling</td><td>CPT</td><td>99406</td><td><span/>Behav chng smoking 3-10 min</td><td>04-13-2010 10:00:00</td><td>Performed</td></tr><tr><td/><td>SNOMED-CT</td><td>384742004</td><td>Smoking cessation assistance</td><td/><td/></tr><tr><td>Ejection Fraction</td><td>SNOMED-CT</td><td>70822001</td><td><span/>Cardiac ejection fraction, function</td><td>08-12-2010 10:00:00</td><td>Performed</td></tr></tbody></table></div>"
        },
        "mode": "snapshot"
      }, {
        "title": "Social History",
        "code": {
          "coding": [ {
            "system": "http://loinc.org",
            "code": "29762-2",
            "display": "Social History"
          } ]
        },
        "text": {
          "status": "additional",
          "div": "<div xmlns=\"http://www.w3.org/1999/xhtml\"><table><thead><tr><th>Group Description</th><th>Code System</th><th>Code</th><th>Code Description</th><th>Date and Time</th><th>Status</th></tr></thead><tbody><tr><td>Tobacco Use</td><td>SNOMED-CT</td><td>266919005</td><td><span/>Never smoker (Never Smoked)</td><td>04-13-2010 10:00:00</td><td>Active</td></tr><tr><td/><td>SNOMED-CT</td><td>449868002</td><td>Current every day smoker</td><td/><td/></tr></tbody></table></div>"
        },
        "mode": "snapshot",
        "entry": [ {
          "reference": "Observation/87db4735-74b3-42cd-a1e6-c71271a02925"
        } ]
      }, {
        "title": "Allergies,  Adverse Reactions & Alerts",
        "code": {
          "coding": [ {
            "system": "http://loinc.org",
            "code": "48765-2",
            "display": "Allergies, adverse reactions, alerts"
          } ]
        },
        "text": {
          "status": "additional",
          "div": "<div xmlns=\"http://www.w3.org/1999/xhtml\"><table><thead><tr><th>Group Description</th><th>Code System</th><th>Code</th><th>Code Description</th><th>Severity</th><th>Susceptibility</th><th>Date and Time</th><th>Status</th></tr></thead><tbody><tr><td>Allergy to Eggs</td><td>UNII</td><td>291P45F896</td><td><span/>Eggs</td><td><span/>Severe</td><td>Susceptible</td><td>04-13-2010 10:00:00</td><td>Active</td></tr><tr><td/><td>ICD-9-CM</td><td>V15.03</td><td>Allergy to eggs</td><td/><td/><td/><td/></tr><tr><td>Fosfomycin</td><td>RxNorm</td><td>808917</td><td><span/>Fosfomycin 33.3 MG/ML Oral Suspension</td><td><span/>Moderate</td><td>Moderately Susceptible</td><td>04-13-2010 10:00:00</td><td>Active</td></tr><tr><td>Penicillin V</td><td>NDF-RT</td><td>N0000011298</td><td><span/>Penicillin V</td><td><span/>Mild to moderate</td><td>Moderately Susceptible</td><td>04-13-2010 10:00:00</td><td>Active</td></tr></tbody></table></div>"
        },
        "mode": "snapshot",
        "entry": [ {
          "reference": "AllergyIntolerance/375c9166-8dc4-4025-a9b0-669f90c208f1",
          "display": "Allergy to Eggs + Eggs"
        }, {
          "reference": "AllergyIntolerance/e94451c7-ead1-4b3b-8eec-47c9b6a78bd3",
          "display": "Penicillin V + Penicillin V"
        }, {
          "reference": "AllergyIntolerance/55dd37e6-7fd0-4996-9356-6e287bccef91",
          "display": "Fosfomycin + Fosfomycin 33.3 MG/ML Oral Suspension"
        } ]
      }, {
        "title": "Encounters",
        "code": {
          "coding": [ {
            "system": "http://loinc.org",
            "code": "46240-8",
            "display": "History of encounters"
          } ]
        },
        "text": {
          "status": "additional",
          "div": "<div xmlns=\"http://www.w3.org/1999/xhtml\"><table><thead><tr><th>Group Description</th><th>Code System</th><th>Code</th><th>Code Description</th><th>Date and Time</th><th>Status</th></tr></thead><tbody><tr><td>Encounter Outpatient</td><td>CPT</td><td>99213</td><td><span/>Office/outpatient visit, est</td><td>04-13-2010 10:00:00</td><td>Performed</td></tr><tr><td/><td>ICD-9-CM</td><td>V70.0</td><td>Routine general medical examination at a health care facility</td><td/><td/></tr><tr><td>Encounter Outpatient</td><td>CPT</td><td>99213</td><td><span/>Office/outpatient visit, est</td><td>08-12-2010 10:00:00</td><td>Performed</td></tr><tr><td/><td>ICD-9-CM</td><td>V70.0</td><td>Routine general medical examination at a health care facility</td><td/><td/></tr></tbody></table></div>"
        },
        "mode": "snapshot",
        "entry": [ {
          "reference": "Encounter/79d2d9bc-a8e2-471c-9f9c-18c98ae20804",
          "display": "Office/outpatient visit, est"
        }, {
          "reference": "Encounter/eda20482-7104-4546-88bd-74a850f0c626",
          "display": "Office/outpatient visit, est"
        } ]
      }, {
        "title": "Problems",
        "code": {
          "coding": [ {
            "system": "http://loinc.org",
            "code": "11450-4",
            "display": "PROBLEM LIST"
          } ]
        },
        "text": {
          "status": "additional",
          "div": "<div xmlns=\"http://www.w3.org/1999/xhtml\"><table><thead><tr><th>Group Description</th><th>Code System</th><th>Code</th><th>Code Description</th><th>Date and Time</th><th>Status</th></tr></thead><tbody><tr><td>Hypertension</td><td>SNOMED-CT</td><td>59621000</td><td><span/>Essential hypertension</td><td>04-13-2010 10:00:00</td><td>Active</td></tr><tr><td/><td>ICD-10-CM</td><td>I10</td><td>Essential (primary) hypertension</td><td/><td/></tr><tr><td/><td>ICD-9-CM</td><td>401.9</td><td>Unspecified essential hypertension</td><td/><td/></tr><tr><td>Heart Failure</td><td>SNOMED-CT</td><td>84114007</td><td><span/>Heart failure</td><td>08-12-2010 10:00:00</td><td>Active</td></tr><tr><td/><td>ICD-10-CM</td><td>I50.9</td><td>Heart failure, unspecified</td><td/><td/></tr><tr><td/><td>ICD-9-CM</td><td>428.9</td><td>Heart failure, unspecified</td><td/><td/></tr></tbody></table></div>"
        },
        "mode": "snapshot",
        "entry": [ {
          "reference": "Condition/58d3dc25-e0f3-4e48-9eb4-a9e012bb50d8",
          "display": "Essential hypertension"
        } ]
      }, {
        "title": "Results",
        "code": {
          "coding": [ {
            "system": "http://loinc.org",
            "code": "30954-2",
            "display": "Results"
          } ]
        },
        "text": {
          "status": "additional",
          "div": "<div xmlns=\"http://www.w3.org/1999/xhtml\"><table><thead><tr><th>Group Description</th><th>Code System</th><th>Code</th><th>Code Description</th><th>Value</th><th>Unit</th><th>Date and Time</th><th>Status</th></tr></thead><tbody><tr><td>No data</td></tr></tbody></table></div>"
        },
        "mode": "snapshot"
      } ]
    }
  }, {
    "resource": {
      "resourceType": "Patient",
      "id": "38be861c-eee3-4fa8-8660-95a6d12ebb48",
      "extension": [ {
        "url": "http://hl7.org/fhir/StructureDefinition/patient-religion",
        "valueCodeableConcept": {
          "coding": [ {
            "system": "urn:oid:2.16.840.1.113883.5.1076",
            "code": "1074",
            "display": "Native American"
          } ]
        }
      }, {
        "url": "http://hl7.org/fhir/us/core/StructureDefinition/us-core-race",
        "extension": [ {
          "url": "text",
          "valueString": "Other Race"
        }, {
          "url": "ombCategory",
          "valueCoding": {
            "system": "urn:oid:2.16.840.1.113883.6.238",
            "code": "2131-1",
            "display": "Other Race"
          }
        } ]
      }, {
        "url": "http://hl7.org/fhir/us/core/StructureDefinition/us-core-ethnicity",
        "extension": [ {
          "url": "text",
          "valueString": "Not Hispanic or Latino"
        }, {
          "url": "ombCategory",
          "valueCoding": {
            "system": "urn:oid:2.16.840.1.113883.6.238",
            "code": "2186-5",
            "display": "Not Hispanic or Latino"
          }
        } ]
      }, {
        "url": "http://hl7.org/fhir/StructureDefinition/patient-birthPlace",
        "valueAddress": {
          "city": "Newark",
          "state": "NJ",
          "postalCode": "7102",
          "country": "US"
        }
      } ],
      "identifier": [ {
        "use": "official",
        "system": "urn:oid:2.16.840.1.113883.19.5.99999.2",
        "value": "998991"
      }, {
        "use": "official",
        "system": "urn:oid:2.16.840.1.113883.4.1",
        "value": "111-00-2330"
      } ],
      "name": [ {
        "use": "usual",
        "family": "Briggs",
        "given": [ "Kyle" ]
      } ],
      "telecom": [ {
        "system": "phone",
        "value": "(810)614-1330",
        "use": "mobile"
      } ],
      "gender": "male",
      "birthDate": "1935-05-08",
      "address": [ {
        "use": "home",
        "line": [ "4371 Perry Street" ],
        "city": "Westland",
        "state": "MI",
        "postalCode": "48185",
        "country": "US"
      } ],
      "maritalStatus": {
        "coding": [ {
          "system": "http://terminology.hl7.org/CodeSystem/v3-MaritalStatus",
          "code": "M",
          "display": "Married"
        } ]
      },
      "contact": [ {
        "relationship": [ {
          "coding": [ {
            "system": "http://terminology.hl7.org/CodeSystem/v2-0131",
            "code": "C",
            "display": "Emergency Contact"
          } ]
        } ],
        "name": {
          "family": "Monti",
          "given": [ "Jeffrey" ],
          "prefix": [ "Mr." ]
        },
        "telecom": [ {
          "system": "phone",
          "value": "(509)588-9461",
          "use": "home"
        }, {
          "system": "email",
          "value": "JeffreyRMonti@einrot.com",
          "use": "work"
        } ],
        "address": {
          "use": "home",
          "line": [ "1730 Calico Drive" ],
          "city": "Benton City",
          "state": "WA",
          "postalCode": "99320",
          "country": "US"
        }
      } ],
      "communication": [ {
        "language": {
          "coding": [ {
            "system": "urn:ietf:bcp:47",
            "code": "spa"
          } ]
        },
        "preferred": true
      } ],
      "managingOrganization": {
        "reference": "Organization/c380b872-cbdd-4253-8427-99906719dcc4",
        "display": "Community Health and Hospitals"
      }
    }
  }, {
    "resource": {
      "resourceType": "Organization",
      "id": "c380b872-cbdd-4253-8427-99906719dcc4",
      "identifier": [ {
        "use": "official",
        "value": "2.16.840.1.113883.4.6"
      } ],
      "name": "Community Health and Hospitals",
      "telecom": [ {
        "system": "phone",
        "value": " 555-555-5000",
        "use": "work"
      } ],
      "address": [ {
        "line": [ "1001 Village Avenue" ],
        "city": "Portland",
        "state": "OR",
        "postalCode": "99123",
        "country": "US"
      } ]
    }
  }, {
    "resource": {
      "resourceType": "Practitioner",
      "id": "61c3f143-8540-4b98-a82e-091516d7ca42",
      "identifier": [ {
        "use": "official",
        "system": "urn:oid:2.16.840.1.113883.4.6",
        "value": "99999999"
      } ],
      "name": [ {
        "family": "Seven",
        "given": [ "Henry" ],
        "suffix": [ "MD" ]
      } ],
      "telecom": [ {
        "system": "phone",
        "value": "555-555-1002",
        "use": "work"
      } ],
      "address": [ {
        "line": [ "1002 Healthcare Drive" ],
        "city": "Portland",
        "state": "OR",
        "postalCode": "99123",
        "country": "US"
      } ]
    }
  }, {
    "resource": {
      "resourceType": "Practitioner",
      "id": "d7fd2f5a-e7bd-4afc-8fee-73d06163a09d",
      "identifier": [ {
        "use": "official",
        "system": "http://hl7.org/fhir/sid/us-npi",
        "value": "999999999"
      } ],
      "name": [ {
        "family": "Seven",
        "given": [ "Henry" ]
      } ],
      "telecom": [ {
        "system": "phone",
        "value": "555-555-1002",
        "use": "work"
      } ],
      "address": [ {
        "line": [ "1001 Village Avenue" ],
        "city": "Portland",
        "state": "OR",
        "postalCode": "99123",
        "country": "US"
      } ]
    }
  }, {
    "resource": {
      "resourceType": "Practitioner",
      "id": "cf900a08-3e3d-4dac-994b-82b56764dc4c",
      "identifier": [ {
        "use": "official",
        "system": "http://hl7.org/fhir/sid/us-npi",
        "value": "PseudoMD-1"
      } ],
      "name": [ {
        "family": "Seven",
        "given": [ "Henry" ],
        "suffix": [ "MD" ]
      } ],
      "telecom": [ {
        "system": "phone",
        "value": "+1-555-555-5000",
        "use": "home"
      } ],
      "address": [ {
        "line": [ "1001 Village Avenue" ],
        "city": "Portland",
        "state": "OR",
        "postalCode": "99123",
        "country": "US"
      } ]
    }
  }, {
    "resource": {
      "resourceType": "Organization",
      "id": "749a175f-561c-4338-b7dc-cdfcb039e281",
      "identifier": [ {
        "use": "official",
        "system": "urn:oid:2.16.840.1.113883.4.6",
        "value": "99999999"
      } ],
      "name": "Community Health and Hospitals",
      "telecom": [ {
        "system": "phone",
        "value": " 555-555-1002",
        "use": "work"
      } ],
      "address": [ {
        "use": "work",
        "line": [ "1002 Healthcare Drive" ],
        "city": "Portland",
        "state": "OR",
        "postalCode": "99123",
        "country": "US"
      } ]
    }
  }, {
    "resource": {
      "resourceType": "Observation",
      "id": "84b02f1d-00bd-421a-82c7-66ba28d75213",
      "identifier": [ {
        "use": "official",
        "value": "c6f88321-67ad-11db-bd13-0800200c9a66"
      } ],
      "status": "final",
      "category": [ {
        "coding": [ {
          "system": "http://terminology.hl7.org/CodeSystem/observation-category",
          "code": "vital-signs",
          "display": "Vital Signs"
        } ]
      } ],
      "code": {
        "coding": [ {
          "system": "http://loinc.org",
          "code": "39156-5",
          "display": "BMI"
        } ]
      },
      "subject": {
        "reference": "Patient/38be861c-eee3-4fa8-8660-95a6d12ebb48",
        "display": "Kyle Briggs"
      },
      "effectivePeriod": {
        "start": "2010-08-12T10:00:00+02:00"
      },
      "valueQuantity": {
        "value": 22.6,
        "unit": "kg/m2",
        "system": "http://unitsofmeasure.org",
        "code": "kg/m2"
      }
    }
  }, {
    "resource": {
      "resourceType": "Observation",
      "id": "c88ebb5d-b0b5-4f58-b969-1fdfc125fca4",
      "identifier": [ {
        "use": "official",
        "value": "c6f88321-67ad-11db-bd13-0800200c9a66"
      } ],
      "status": "final",
      "category": [ {
        "coding": [ {
          "system": "http://terminology.hl7.org/CodeSystem/observation-category",
          "code": "vital-signs",
          "display": "Vital Signs"
        } ]
      } ],
      "code": {
        "coding": [ {
          "system": "http://loinc.org",
          "code": "8462-4",
          "display": "BP Diastolic"
        } ]
      },
      "subject": {
        "reference": "Patient/38be861c-eee3-4fa8-8660-95a6d12ebb48",
        "display": "Kyle Briggs"
      },
      "effectivePeriod": {
        "start": "2010-08-12T10:00:00+02:00"
      },
      "valueQuantity": {
        "value": 88,
        "unit": "mm[Hg]",
        "system": "http://unitsofmeasure.org",
        "code": "mm[Hg]"
      }
    }
  }, {
    "resource": {
      "resourceType": "Observation",
      "id": "f53b548e-2cdc-4c6c-b9e5-95c28525ccea",
      "identifier": [ {
        "use": "official",
        "value": "c6f88321-67ad-11db-bd13-0800200c9a66"
      } ],
      "status": "final",
      "category": [ {
        "coding": [ {
          "system": "http://terminology.hl7.org/CodeSystem/observation-category",
          "code": "vital-signs",
          "display": "Vital Signs"
        } ]
      } ],
      "code": {
        "coding": [ {
          "system": "http://loinc.org",
          "code": "8480-6",
          "display": "BP Systolic"
        } ]
      },
      "subject": {
        "reference": "Patient/38be861c-eee3-4fa8-8660-95a6d12ebb48",
        "display": "Kyle Briggs"
      },
      "effectivePeriod": {
        "start": "2010-08-12T10:00:00+02:00"
      },
      "valueQuantity": {
        "value": 150,
        "unit": "mm[Hg]",
        "system": "http://unitsofmeasure.org",
        "code": "mm[Hg]"
      }
    }
  }, {
    "resource": {
      "resourceType": "Observation",
      "id": "ca1d2834-8890-4946-b1c1-f86365fe2503",
      "identifier": [ {
        "use": "official",
        "value": "c6f88321-67ad-11db-bd13-0800200c9a66"
      } ],
      "status": "final",
      "category": [ {
        "coding": [ {
          "system": "http://terminology.hl7.org/CodeSystem/observation-category",
          "code": "vital-signs",
          "display": "Vital Signs"
        } ]
      } ],
      "code": {
        "coding": [ {
          "system": "http://loinc.org",
          "code": "8462-4",
          "display": "BP Diastolic"
        } ]
      },
      "subject": {
        "reference": "Patient/38be861c-eee3-4fa8-8660-95a6d12ebb48",
        "display": "Kyle Briggs"
      },
      "effectivePeriod": {
        "start": "2010-04-13T10:00:00+02:00"
      },
      "valueQuantity": {
        "value": 90,
        "unit": "mm[Hg]",
        "system": "http://unitsofmeasure.org",
        "code": "mm[Hg]"
      }
    }
  }, {
    "resource": {
      "resourceType": "Observation",
      "id": "ed41e952-5d19-47db-b1c7-b036e676b747",
      "identifier": [ {
        "use": "official",
        "value": "c6f88321-67ad-11db-bd13-0800200c9a66"
      } ],
      "status": "final",
      "category": [ {
        "coding": [ {
          "system": "http://terminology.hl7.org/CodeSystem/observation-category",
          "code": "vital-signs",
          "display": "Vital Signs"
        } ]
      } ],
      "code": {
        "coding": [ {
          "system": "http://loinc.org",
          "code": "39156-5",
          "display": "BMI"
        } ]
      },
      "subject": {
        "reference": "Patient/38be861c-eee3-4fa8-8660-95a6d12ebb48",
        "display": "Kyle Briggs"
      },
      "effectivePeriod": {
        "start": "2010-04-13T10:00:00+02:00"
      },
      "valueQuantity": {
        "value": 22.3,
        "unit": "kg/m2",
        "system": "http://unitsofmeasure.org",
        "code": "kg/m2"
      }
    }
  }, {
    "resource": {
      "resourceType": "Observation",
      "id": "194c6963-7eb3-4595-a7ef-2d51a37812db",
      "identifier": [ {
        "use": "official",
        "value": "c6f88321-67ad-11db-bd13-0800200c9a66"
      } ],
      "status": "final",
      "category": [ {
        "coding": [ {
          "system": "http://terminology.hl7.org/CodeSystem/observation-category",
          "code": "vital-signs",
          "display": "Vital Signs"
        } ]
      } ],
      "code": {
        "coding": [ {
          "system": "http://loinc.org",
          "code": "8480-6",
          "display": "BP Systolic"
        } ]
      },
      "subject": {
        "reference": "Patient/38be861c-eee3-4fa8-8660-95a6d12ebb48",
        "display": "Kyle Briggs"
      },
      "effectivePeriod": {
        "start": "2010-04-13T10:00:00+02:00"
      },
      "valueQuantity": {
        "value": 154,
        "unit": "mm[Hg]",
        "system": "http://unitsofmeasure.org",
        "code": "mm[Hg]"
      }
    }
  }, {
    "resource": {
      "resourceType": "MedicationStatement",
      "id": "2217e136-9ffa-470f-ad15-eaad68d8d600",
      "extension": [ {
        "url": "http://hl7.org/fhir/3.0/StructureDefinition/extension-MedicationStatement.status",
        "valueCode": "UNKNOWN"
      } ],
      "identifier": [ {
        "use": "official",
        "value": "cdbd33f0-6cde-11db-9fe1-0800200c9a66"
      } ],
      "status": "completed",
      "medicationReference": {
        "reference": "Medication/36f45d9b-c914-45e8-85d7-09ffdb146fba",
        "display": "Enalapril Maleate 10 MG / Hydrochlorothiazide 25 MG Oral Tablet"
      },
      "subject": {
        "reference": "Patient/38be861c-eee3-4fa8-8660-95a6d12ebb48",
        "display": "Kyle Briggs"
      },
      "effectivePeriod": {
        "start": "2010-04-13T10:00:00+02:00"
      }
    }
  }, {
    "resource": {
      "resourceType": "Medication",
      "id": "36f45d9b-c914-45e8-85d7-09ffdb146fba",
      "code": {
        "coding": [ {
          "system": "http://www.nlm.nih.gov/research/umls/rxnorm",
          "code": "858828",
          "display": "Enalapril Maleate 10 MG / Hydrochlorothiazide 25 MG Oral Tablet"
        } ]
      }
    }
  }, {
    "resource": {
      "resourceType": "Observation",
      "id": "87db4735-74b3-42cd-a1e6-c71271a02925",
      "identifier": [ {
        "use": "official",
        "system": "urn:oid:2.16.840.1.113883.19",
        "value": "123456789"
      } ],
      "status": "final",
      "code": {
        "coding": [ {
          "system": "urn:oid:2.16.840.1.113883.5.4",
          "code": "ASSERTION"
        } ]
      },
      "subject": {
        "reference": "Patient/38be861c-eee3-4fa8-8660-95a6d12ebb48",
        "display": "Kyle Briggs"
      },
      "effectivePeriod": {
        "start": "2010-04-13T10:00:00+02:00"
      },
      "valueCodeableConcept": {
        "coding": [ {
          "system": "http://snomed.info/sct",
          "code": "266919005",
          "display": "Never smoker (Never Smoked)"
        }, {
          "system": "http://snomed.info/sct",
          "code": "449868002",
          "display": "Current every day smoker"
        } ]
      }
    }
  }, {
    "resource": {
      "resourceType": "AllergyIntolerance",
      "id": "375c9166-8dc4-4025-a9b0-669f90c208f1",
      "identifier": [ {
        "use": "official",
        "value": "36e3e930-7b14-11db-9fe1-0800200c9a66"
      } ],
      "clinicalStatus": {
        "coding": [ {
          "system": "http://terminology.hl7.org/CodeSystem/allergyintolerance-clinical",
          "code": "active",
          "display": "Active"
        } ]
      },
      "verificationStatus": {
        "coding": [ {
          "system": "http://terminology.hl7.org/CodeSystem/allergyintolerance-verification",
          "code": "confirmed",
          "display": "Confirmed"
        } ]
      },
      "type": "allergy",
      "category": [ "food" ],
      "code": {
        "coding": [ {
          "system": "http://fdasis.nlm.nih.gov",
          "code": "291P45F896",
          "display": "Eggs"
        }, {
          "system": "urn:oid:2.16.840.1.113883.6.103",
          "code": "V15.03",
          "display": "Allergy to eggs"
        } ],
        "text": "Allergy to Eggs + Eggs"
      },
      "patient": {
        "reference": "Patient/38be861c-eee3-4fa8-8660-95a6d12ebb48",
        "display": "Kyle Briggs"
      },
      "recordedDate": "2010-04-13T10:00:00+02:00"
    }
  }, {
    "resource": {
      "resourceType": "AllergyIntolerance",
      "id": "e94451c7-ead1-4b3b-8eec-47c9b6a78bd3",
      "identifier": [ {
        "use": "official",
        "value": "36e3e930-7b14-11db-9fe1-0800200c9a66"
      } ],
      "clinicalStatus": {
        "coding": [ {
          "system": "http://terminology.hl7.org/CodeSystem/allergyintolerance-clinical",
          "code": "active",
          "display": "Active"
        } ]
      },
      "verificationStatus": {
        "coding": [ {
          "system": "http://terminology.hl7.org/CodeSystem/allergyintolerance-verification",
          "code": "confirmed",
          "display": "Confirmed"
        } ]
      },
      "type": "allergy",
      "category": [ "medication" ],
      "code": {
        "coding": [ {
          "system": "urn:oid:2.16.840.1.113883.3.26.1.5",
          "code": "N0000011298",
          "display": "Penicillin V"
        } ],
        "text": "Penicillin V + Penicillin V"
      },
      "patient": {
        "reference": "Patient/38be861c-eee3-4fa8-8660-95a6d12ebb48",
        "display": "Kyle Briggs"
      },
      "recordedDate": "2010-04-13T10:00:00+02:00"
    }
  }, {
    "resource": {
      "resourceType": "AllergyIntolerance",
      "id": "55dd37e6-7fd0-4996-9356-6e287bccef91",
      "identifier": [ {
        "use": "official",
        "value": "36e3e930-7b14-11db-9fe1-0800200c9a66"
      } ],
      "clinicalStatus": {
        "coding": [ {
          "system": "http://terminology.hl7.org/CodeSystem/allergyintolerance-clinical",
          "code": "active",
          "display": "Active"
        } ]
      },
      "verificationStatus": {
        "coding": [ {
          "system": "http://terminology.hl7.org/CodeSystem/allergyintolerance-verification",
          "code": "confirmed",
          "display": "Confirmed"
        } ]
      },
      "type": "allergy",
      "category": [ "medication" ],
      "code": {
        "coding": [ {
          "system": "http://www.nlm.nih.gov/research/umls/rxnorm",
          "code": "808917",
          "display": "Fosfomycin 33.3 MG/ML Oral Suspension"
        } ],
        "text": "Fosfomycin + Fosfomycin 33.3 MG/ML Oral Suspension"
      },
      "patient": {
        "reference": "Patient/38be861c-eee3-4fa8-8660-95a6d12ebb48",
        "display": "Kyle Briggs"
      },
      "recordedDate": "2010-04-13T10:00:00+02:00"
    }
  }, {
    "resource": {
      "resourceType": "Encounter",
      "id": "79d2d9bc-a8e2-471c-9f9c-18c98ae20804",
      "identifier": [ {
        "use": "official",
        "value": "2a620155-9d11-439e-92b3-5d9815ff4de8"
      } ],
      "status": "finished",
      "type": [ {
        "coding": [ {
          "system": "http://www.ama-assn.org/go/cpt",
          "code": "99213",
          "display": "Office/outpatient visit, est"
        }, {
          "system": "urn:oid:2.16.840.1.113883.6.103",
          "code": "V70.0",
          "display": "Routine general medical examination at a health care facility"
        } ]
      } ],
      "subject": {
        "reference": "Patient/38be861c-eee3-4fa8-8660-95a6d12ebb48",
        "display": "Kyle Briggs"
      },
      "period": {
        "start": "2010-08-12T10:00:00+02:00"
      },
      "reasonCode": [ {
        "coding": [ {
          "system": "http://snomed.info/sct",
          "code": "84114007",
          "display": "Heart Failure"
        } ]
      } ],
      "reasonReference": [ {
        "reference": "Condition/a07b5f3e-6d59-4e2f-9dd0-9ce4786380cd",
        "display": "Heart Failure"
      } ]
    }
  }, {
    "resource": {
      "resourceType": "Condition",
      "id": "a07b5f3e-6d59-4e2f-9dd0-9ce4786380cd",
      "identifier": [ {
        "use": "official",
        "system": "urn:uuid:db734647-fc99-424c-a864-7e3cda82e703",
        "value": "45665"
      } ],
      "clinicalStatus": {
        "coding": [ {
          "system": "http://terminology.hl7.org/CodeSystem/condition-clinical",
          "code": "active",
          "display": "Active"
        } ]
      },
      "category": [ {
        "coding": [ {
          "system": "http://hl7.org/fhir/condition-category",
          "code": "encounter-diagnosis",
          "display": "Encounter Diagnosis"
        } ]
      } ],
      "code": {
        "coding": [ {
          "system": "http://snomed.info/sct",
          "code": "84114007",
          "display": "Heart Failure"
        }, {
          "system": "urn:oid:2.16.840.1.113883.6.90",
          "code": "I50.9",
          "display": "Heart failure, unspecified"
        }, {
          "system": "urn:oid:2.16.840.1.113883.6.103",
          "code": "428.9",
          "display": "Heart failure, unspecified"
        } ]
      },
      "subject": {
        "reference": "Patient/38be861c-eee3-4fa8-8660-95a6d12ebb48",
        "display": "Kyle Briggs"
      },
      "onsetDateTime": "2010-08-12T10:00:00+02:00"
    }
  }, {
    "resource": {
      "resourceType": "Encounter",
      "id": "eda20482-7104-4546-88bd-74a850f0c626",
      "identifier": [ {
        "use": "official",
        "value": "2a620155-9d11-439e-92b3-5d9815ff4de8"
      } ],
      "status": "finished",
      "type": [ {
        "coding": [ {
          "system": "http://www.ama-assn.org/go/cpt",
          "code": "99213",
          "display": "Office/outpatient visit, est"
        }, {
          "system": "urn:oid:2.16.840.1.113883.6.103",
          "code": "V70.0",
          "display": "Routine general medical examination at a health care facility"
        } ]
      } ],
      "subject": {
        "reference": "Patient/38be861c-eee3-4fa8-8660-95a6d12ebb48",
        "display": "Kyle Briggs"
      },
      "period": {
        "start": "2010-04-13T10:00:00+02:00"
      },
      "reasonCode": [ {
        "coding": [ {
          "system": "http://snomed.info/sct",
          "code": "59621000",
          "display": "Hypertension"
        } ]
      } ],
      "reasonReference": [ {
        "reference": "Condition/a07b5f3e-6d59-4e2f-9dd0-9ce4786380cd",
        "display": "Heart Failure"
      } ]
    }
  }, {
    "resource": {
      "resourceType": "Condition",
      "id": "58d3dc25-e0f3-4e48-9eb4-a9e012bb50d8",
      "identifier": [ {
        "use": "official",
        "value": "9d3d416d-45ab-4da1-912f-4583e0632000"
      } ],
      "clinicalStatus": {
        "coding": [ {
          "system": "http://terminology.hl7.org/CodeSystem/condition-clinical",
          "code": "active",
          "display": "Active"
        } ]
      },
      "verificationStatus": {
        "coding": [ {
          "system": "http://terminology.hl7.org/CodeSystem/condition-ver-status",
          "code": "confirmed",
          "display": "Confirmed"
        } ]
      },
      "category": [ {
        "coding": [ {
          "system": "http://terminology.hl7.org/CodeSystem/condition-category",
          "code": "problem-list-item",
          "display": "Problem List Item"
        } ]
      } ],
      "code": {
        "coding": [ {
          "system": "http://snomed.info/sct",
          "code": "59621000",
          "display": "Essential hypertension"
        }, {
          "system": "urn:oid:2.16.840.1.113883.6.90",
          "code": "I10",
          "display": "Essential (primary) hypertension"
        }, {
          "system": "urn:oid:2.16.840.1.113883.6.103",
          "code": "401.9",
          "display": "Unspecified essential hypertension"
        } ]
      },
      "subject": {
        "reference": "Patient/38be861c-eee3-4fa8-8660-95a6d12ebb48",
        "display": "Kyle Briggs"
      },
      "onsetDateTime": "2010-04-13T10:00:00+02:00"
    }
  } ]
}