{
  "resourceType": "Bundle",
  "entry": [ {
    "resource": {
      "resourceType": "Composition",
      "id": "04f45096-60d2-4a60-b0ab-d6b315c938e0",
      "identifier": {
        "use": "official",
        "value": "db734647-fc99-424c-a864-7e3cda82e703"
      },
      "status": "preliminary",
      "type": {
        "coding": [ {
          "system": "http://loinc.org",
          "code": "34133-9",
          "display": "Summarization of Episode Note"
        } ]
      },
      "category": [ {
        "coding": [ {
          "system": "http://hl7.org/fhir/ValueSet/doc-classcodes",
          "code": "LP173421-7",
          "display": "Note"
        } ]
      } ],
      "subject": {
        "reference": "Patient/1591ebca-7d84-4205-93b7-d30ecf324def",
        "display": "Carmen Padilla"
      },
      "date": "2014-04-16T11:55:06+02:00",
      "author": [ {
        "reference": "Practitioner/c347c1d4-a96f-402b-b740-5edda35a1738",
        "display": "Henry Seven MD"
      } ],
      "title": "Community Health and Hospitals: Health Summary",
      "confidentiality": "N",
      "attester": [ {
        "mode": "legal",
        "time": "2013-04-18T09:00:00+05:00",
        "party": {
          "reference": "Practitioner/d16a91ca-0fcf-4a5a-b545-fe8a47636fc0",
          "display": "Henry Seven"
        }
      }, {
        "mode": "professional",
        "time": "2014-04-16T11:55:06+02:00",
        "party": {
          "reference": "Practitioner/d16a91ca-0fcf-4a5a-b545-fe8a47636fc0",
          "display": "Henry Seven"
        }
      } ],
      "custodian": {
        "reference": "Organization/42af330d-332a-4214-92aa-bbaaf10d2151",
        "display": "Community Health and Hospitals"
      },
      "event": [ {
        "period": {
          "start": "2010-03-31T10:00:00+02:00",
          "end": "2010-12-15T10:00:00+01:00"
        },
        "detail": [ {
          "reference": "Practitioner/212ebfba-2e9d-463b-ba26-a94dc987986f",
          "display": "Henry Seven MD"
        } ]
      } ],
      "section": [ {
        "title": "Problems",
        "code": {
          "coding": [ {
            "system": "http://loinc.org",
            "code": "11450-4",
            "display": "PROBLEM LIST"
          } ]
        },
        "text": {
          "status": "additional",
          "div": "<div xmlns=\"http://www.w3.org/1999/xhtml\"><table><thead><tr><th>Group Description</th><th>Code System</th><th>Code</th><th>Code Description</th><th>Date and Time</th><th>Status</th></tr></thead><tbody><tr><td>Asthma</td><td>SNOMED-CT</td><td>195979001</td><td><span/>Asthma unspecified</td><td>03-31-2010 10:00:00</td><td>Active</td></tr><tr><td/><td>ICD-10-CM</td><td>J45</td><td>Asthma</td><td/><td/></tr><tr><td/><td>ICD-9-CM</td><td>493.92</td><td>Asthma, unspecified type, with (acute) exacerbation</td><td/><td/></tr><tr><td>Asthma Daytime Symptoms</td><td>SNOMED-CT</td><td>373899003</td><td><span/>Asthma daytime symptoms</td><td>03-31-2010 10:00:00</td><td>Active</td></tr><tr><td>Asthma Nighttime Symptoms</td><td>SNOMED-CT</td><td>395022009</td><td><span/>Asthma night-time symptoms</td><td>03-31-2010 10:00:00</td><td>Active</td></tr><tr><td>Diabetes</td><td>SNOMED-CT</td><td>44054006</td><td><span/>Diabetes mellitus type 2</td><td>03-31-2010 10:00:00</td><td>Active</td></tr><tr><td/><td>ICD-10-CM</td><td>E11.9</td><td>Type 2 diabetes mellitus without complications</td><td/><td/></tr><tr><td/><td>ICD-9-CM</td><td>250.00</td><td>Diabetes mellitus without mention of complication, type II or unspecified type, not stated as uncontrolled</td><td/><td/></tr><tr><td>Diabetic Retinopathy</td><td>SNOMED-CT</td><td>312904009</td><td><span/>Moderate nonproliferative diabetic retinopathy</td><td>03-31-2010 10:00:00</td><td>Active</td></tr><tr><td/><td>ICD-10-CM</td><td>E13.33</td><td>Other specified diabetes mellitus with moderate nonproliferative diabetic retinopathy</td><td/><td/></tr><tr><td/><td>ICD-9-CM</td><td>362.05</td><td>Moderate nonproliferative diabetic retinopathy</td><td/><td/></tr></tbody></table></div>"
        },
        "mode": "snapshot",
        "entry": [ {
          "reference": "Condition/4dfa1019-7e1d-4730-a501-0de09645bbf1",
          "display": "Asthma night-time symptoms"
        } ]
      }, {
        "title": "Encounters",
        "code": {
          "coding": [ {
            "system": "http://loinc.org",
            "code": "46240-8",
            "display": "History of encounters"
          } ]
        },
        "text": {
          "status": "additional",
          "div": "<div xmlns=\"http://www.w3.org/1999/xhtml\"><table><thead><tr><th>Group Description</th><th>Code System</th><th>Code</th><th>Code Description</th><th>Date and Time</th><th>Status</th></tr></thead><tbody><tr><td>Encounter Outpatient</td><td>CPT</td><td>99213</td><td><span/>Office/outpatient visit, est</td><td>03-31-2010 10:00:00</td><td>Performed</td></tr><tr><td/><td>ICD-9-CM</td><td>V70.0</td><td>Routine general medical examination at a health care facility</td><td/><td/></tr><tr><td>Encounter Office &amp; Outpatient Consult</td><td>CPT</td><td>99241</td><td><span/>Office consultation</td><td>06-05-2010 10:00:00</td><td>Performed</td></tr><tr><td>Encounter Outpatient</td><td>CPT</td><td>99213</td><td><span/>Office/outpatient visit, est</td><td>09-15-2010 10:00:00</td><td>Performed</td></tr><tr><td/><td>ICD-9-CM</td><td>V70.0</td><td>Routine general medical examination at a health care facility</td><td/><td/></tr><tr><td>Encounter Office &amp; Outpatient Consult</td><td>CPT</td><td>99241</td><td><span/>Office consultation</td><td>12-02-2010 10:00:00</td><td>Performed</td></tr></tbody></table></div>"
        },
        "mode": "snapshot",
        "entry": [ {
          "reference": "Encounter/7260eacb-d6e5-4557-9e9d-6cb2b85462ed",
          "display": "Office/outpatient visit, est"
        }, {
          "reference": "Encounter/cc8f2916-80d1-4f8d-b773-74896d3e6161",
          "display": "Office consultation"
        }, {
          "reference": "Encounter/b0169d30-3ad9-47cf-af68-c820bfc209b0",
          "display": "Office consultation"
        }, {
          "reference": "Encounter/4b4aae18-6658-48ba-a2d0-e6841e04fb7b",
          "display": "Office/outpatient visit, est"
        } ]
      }, {
        "title": "Social History",
        "code": {
          "coding": [ {
            "system": "http://loinc.org",
            "code": "29762-2",
            "display": "Social History"
          } ]
        },
        "text": {
          "status": "additional",
          "div": "<div xmlns=\"http://www.w3.org/1999/xhtml\"><table><thead><tr><th>Group Description</th><th>Code System</th><th>Code</th><th>Code Description</th><th>Date and Time</th><th>Status</th></tr></thead><tbody><tr><td>Tobacco Use</td><td>SNOMED-CT</td><td>266919005</td><td><span/>Never smoker (Never Smoked)</td><td>03-31-2010 10:00:00</td><td>Active</td></tr><tr><td/><td>SNOMED-CT</td><td>449868002</td><td>Current every day smoker</td><td/><td/></tr></tbody></table></div>"
        },
        "mode": "snapshot",
        "entry": [ {
          "reference": "Observation/199a3293-e474-402b-9dc6-a3340ad865f5"
        } ]
      }, {
        "title": "Results",
        "code": {
          "coding": [ {
            "system": "http://loinc.org",
            "code": "30954-2",
            "display": "Results"
          } ]
        },
        "text": {
          "status": "additional",
          "div": "<div xmlns=\"http://www.w3.org/1999/xhtml\"><table><thead><tr><th>Group Description</th><th>Code System</th><th>Code</th><th>Code Description</th><th>Value</th><th>Unit</th><th>Reference Range</th><th>Date and Time</th><th>Status</th></tr></thead><tbody><tr><td>HbA1c test</td><td>LOINC</td><td>4548-4</td><td><span/>Hgb A1c MFr Bld</td><td>6.3</td><td>%</td><td>4-5.6%</td><td>03-31-2010 10:00:00</td><td>Completed</td></tr><tr><td/><td>CPT</td><td>83036</td><td>Glycated hemoglobin test</td><td/><td/><td/><td/><td/></tr><tr><td/><td>SNOMED-CT</td><td>43396009</td><td>Hemoglobin A1c measurement</td><td/><td/><td/><td/><td/></tr><tr><td>HbA1c test</td><td>LOINC</td><td>4548-4</td><td><span/>Hgb A1c MFr Bld</td><td>7.5</td><td>%</td><td>4-5.6%</td><td>06-05-2010 10:00:00</td><td>Completed</td></tr><tr><td/><td>CPT</td><td>83036</td><td>Glycated hemoglobin test</td><td/><td/><td/><td/><td/></tr><tr><td/><td>SNOMED-CT</td><td>43396009</td><td>Hemoglobin A1c measurement</td><td/><td/><td/><td/><td/></tr><tr><td>Pap Test</td><td>LOINC</td><td>10524-7</td><td><span/>Cyto Cervix</td><td>normal</td><td/><td>NA</td><td>06-05-2010 10:00:00</td><td>Completed</td></tr><tr><td/><td>CPT</td><td>88174</td><td>Cytopath, c/v auto, in fluid</td><td/><td/><td/><td/><td/></tr><tr><td/><td>HCPCS</td><td>G0147</td><td>Scr c/v cyto, automated sys</td><td/><td/><td/><td/><td/></tr><tr><td/><td>ICD-10-CM</td><td>Z12.4</td><td>Encounter for screening for malignant neoplasm of cervix</td><td/><td/><td/><td/><td/></tr><tr><td/><td>ICD-9-CM</td><td>V72.32</td><td>Encounter for Papanicolaou cervical smear to confirm findings of recent normal smear following initial abnormal smear</td><td/><td/><td/><td/><td/></tr><tr><td/><td>SNOMED-CT</td><td>440623000</td><td>Microscopic examination of cervical Papanicolaou smear</td><td/><td/><td/><td/><td/></tr><tr><td>HbA1c test</td><td>LOINC</td><td>4548-4</td><td><span/>Hgb A1c MFr Bld</td><td>7.2</td><td>%</td><td>4-5.6%</td><td>09-15-2010 10:00:00</td><td>Completed</td></tr><tr><td/><td>CPT</td><td>83036</td><td>Glycated hemoglobin test</td><td/><td/><td/><td/><td/></tr><tr><td/><td>SNOMED-CT</td><td>43396009</td><td>Hemoglobin A1c measurement</td><td/><td/><td/><td/><td/></tr><tr><td>HbA1c test</td><td>LOINC</td><td>4548-4</td><td><span/>Hgb A1c MFr Bld</td><td>6.5</td><td>%</td><td>4-5.6%</td><td>12-02-2010 10:00:00</td><td>Completed</td></tr><tr><td/><td>CPT</td><td>83036</td><td>Glycated hemoglobin test</td><td/><td/><td/><td/><td/></tr><tr><td/><td>SNOMED-CT</td><td>43396009</td><td>Hemoglobin A1c measurement</td><td/><td/><td/><td/><td/></tr><tr><td>High Density Lipoprotein (HDL)</td><td>LOINC</td><td>14646-4</td><td><span/>HDLc SerPl-sCnc</td><td>48</td><td>mg/dL</td><td>&amp;gt;=40 mg/dL</td><td>12-15-2010 10:00:00</td><td>Completed</td></tr><tr><td/><td>CPT</td><td>83701</td><td>Lipoprotein bld, hr fraction</td><td/><td/><td/><td/><td/></tr><tr><td/><td>SNOMED-CT</td><td>28036006</td><td>High density lipoprotein cholesterol measurement</td><td/><td/><td/><td/><td/></tr><tr><td>Low Density Lipoprotein (LDL)</td><td>LOINC</td><td>2089-1</td><td><span/>LDLc SerPl-mCnc</td><td>68.8</td><td>mg/dL</td><td>&amp;lt;130 mg/dL (calc)</td><td>12-15-2010 10:00:00</td><td>Completed</td></tr><tr><td/><td>CPT</td><td>83721</td><td>Assay of blood lipoprotein</td><td/><td/><td/><td/><td/></tr><tr><td/><td>SNOMED-CT</td><td>113079009</td><td>Low density lipoprotein cholesterol measurement</td><td/><td/><td/><td/><td/></tr><tr><td>Total Cholesterol</td><td>LOINC</td><td>2093-3</td><td><span/>Cholest SerPl-mCnc</td><td>142</td><td>mg/dL</td><td>125-200 mg/dL</td><td>12-15-2010 10:00:00</td><td>Completed</td></tr><tr><td/><td>CPT</td><td>82465</td><td>Assay, bld/serum cholesterol</td><td/><td/><td/><td/><td/></tr><tr><td/><td>SNOMED-CT</td><td>121868005</td><td>Total cholesterol measurement</td><td/><td/><td/><td/><td/></tr><tr><td>Triglycerides</td><td>LOINC</td><td>12951-0</td><td><span/>Trigl SerPl Calc-mCnc</td><td>126</td><td>mg/dL</td><td>10-39 years: 55-110 mg/dL | 40-59 years: 70-150 mg/dL | &amp;gt;60 years: 80-150 mg/dL | Therapeutic Target: &amp;lt;100 mg/dL </td><td>12-15-2010 10:00:00</td><td>Completed</td></tr><tr><td/><td>CPT</td><td>84478</td><td>Assay of triglycerides</td><td/><td/><td/><td/><td/></tr><tr><td/><td>SNOMED-CT</td><td>14740000</td><td>Triglycerides measurement</td><td/><td/><td/><td/><td/></tr></tbody></table></div>"
        },
        "mode": "snapshot",
        "entry": [ {
          "reference": "DiagnosticReport/230d5a48-8d72-4877-b9a1-e6f6eb32c1fd",
          "display": "Blood Chemistry"
        }, {
          "reference": "DiagnosticReport/b8d46057-0eb2-46f7-8531-7fe59656bd55",
          "display": "Blood Chemistry"
        }, {
          "reference": "DiagnosticReport/ad074a82-66c2-4114-a268-cac735a49ead",
          "display": "Blood Chemistry"
        }, {
          "reference": "DiagnosticReport/e34a59ff-b82d-4c28-95c5-5b3ab116226c",
          "display": "Cytology"
        }, {
          "reference": "DiagnosticReport/782ecd03-f33b-4b35-86e9-b0bda0ab88d0",
          "display": "Blood Chemistry"
        }, {
          "reference": "DiagnosticReport/1e66371c-24d1-476e-b4b5-e1662173580d",
          "display": "Lipid Panel"
        } ]
      }, {
        "title": "Allergies,  Adverse Reactions & Alerts",
        "code": {
          "coding": [ {
            "system": "http://loinc.org",
            "code": "48765-2",
            "display": "Allergies, adverse reactions, alerts"
          } ]
        },
        "text": {
          "status": "additional",
          "div": "<div xmlns=\"http://www.w3.org/1999/xhtml\"><table><thead><tr><th>Group Description</th><th>Code System</th><th>Code</th><th>Code Description</th><th>Severity</th><th>Susceptibility</th><th>Date and Time</th><th>Status</th></tr></thead><tbody><tr><td>Allergy to Eggs</td><td>UNII</td><td>291P45F896</td><td><span/>Eggs</td><td><span/>Mild</td><td>Susceptible</td><td>03-31-2010 10:00:00</td><td>Active</td></tr><tr><td/><td>ICD-9-CM</td><td>V15.03</td><td>Allergy to eggs</td><td/><td/><td/><td/></tr><tr><td>Bakers Yeast</td><td>RxNorm</td><td>892677</td><td><span/>Baker's yeast allergenic extract 100 MG/ML Injectable Solution</td><td><span/>Severe</td><td>Moderately Susceptible</td><td>03-31-2010 10:00:00</td><td>Active</td></tr><tr><td>Tetracyclines</td><td>RxNorm</td><td>406524</td><td><span/>Doxycycline 75 MG Enteric Coated Tablet</td><td><span/>Mild to moderate</td><td>Moderately Susceptible</td><td>03-31-2010 10:00:00</td><td>Active</td></tr><tr><td/><td>NDF-RT</td><td>N0000006275</td><td>Tetracycline</td><td/><td/><td/><td/></tr></tbody></table></div>"
        },
        "mode": "snapshot",
        "entry": [ {
          "reference": "AllergyIntolerance/9ad75f95-f8cb-4769-8875-4617e67ebe0a",
          "display": "Bakers Yeast + Baker's yeast allergenic extract 100 MG/ML Injectable Solution"
        }, {
          "reference": "AllergyIntolerance/3ec5f174-bb2d-4996-87c1-8ab2aaaec643",
          "display": "Allergy to Eggs + Eggs"
        }, {
          "reference": "AllergyIntolerance/b2c05ebe-aa10-437a-93c9-0b832ab796e9",
          "display": "Tetracyclines + Doxycycline 75 MG Enteric Coated Tablet"
        } ]
      }, {
        "title": "Procedures",
        "code": {
          "coding": [ {
            "system": "http://loinc.org",
            "code": "47519-4",
            "display": "HISTORY OF PROCEDURES"
          } ]
        },
        "text": {
          "status": "additional",
          "div": "<div xmlns=\"http://www.w3.org/1999/xhtml\"><table><thead><tr><th>Group Description</th><th>Code System</th><th>Code</th><th>Code Description</th><th>Date and Time</th><th>Status</th></tr></thead><tbody><tr><td>Asthma Symptom Assessment Tool</td><td>SNOMED-CT</td><td>401011001</td><td><span/>Peak expiratory flow rate monitoring using diary</td><td>03-31-2010 10:00:00</td><td>Performed</td></tr><tr><td>Foot Exam</td><td>SNOMED-CT</td><td>401191002</td><td><span/>Diabetic foot examination</td><td>03-31-2010 10:00:00</td><td>Performed</td></tr><tr><td>Counseling For Physical Activity</td><td>HCPCS</td><td>S9451</td><td><span/>Exercise class</td><td>06-05-2010 10:00:00</td><td>Performed</td></tr><tr><td/><td>ICD-10-CM</td><td>Z71.3</td><td>Dietary counseling and surveillance</td><td/><td/></tr><tr><td/><td>ICD-9-CM</td><td>V65.41</td><td>Exercise counseling</td><td/><td/></tr><tr><td>Foot Exam</td><td>SNOMED-CT</td><td>401191002</td><td><span/>Diabetic foot examination</td><td>06-05-2010 10:00:00</td><td>Performed</td></tr><tr><td>dietary consultation order</td><td>SNOMED-CT</td><td>103699006</td><td><span/>Patient referral to dietitian</td><td>06-05-2010 10:00:00</td><td>Performed</td></tr><tr><td>Macular or Fundus Exam</td><td>SNOMED-CT</td><td>312905005</td><td><span/>Severe nonproliferative diabetic retinopathy</td><td>08-08-2010 10:00:00</td><td>Performed</td></tr><tr><td/><td>SNOMED-CT</td><td>37231002</td><td>Macular retinal edema</td><td/><td/></tr><tr><td/><td>SNOMED-CT</td><td>410455004</td><td>Slit lamp fundus examination</td><td/><td/></tr><tr><td>Foot Exam</td><td>SNOMED-CT</td><td>401191002</td><td><span/>Diabetic foot examination</td><td>09-15-2010 10:00:00</td><td>Performed</td></tr><tr><td>Breast Cancer Screening</td><td>CPT</td><td>77057</td><td><span/>Mammogram, screening</td><td>10-05-2010 10:00:00</td><td>Performed</td></tr><tr><td/><td>HCPCS</td><td>G0202</td><td>Screeningmammographydigital</td><td/><td/></tr><tr><td/><td>ICD-10-CM</td><td>Z12.31</td><td>Encounter for screening mammogram for malignant neoplasm of breast</td><td/><td/></tr><tr><td/><td>ICD-9-CM</td><td>V76.12</td><td>Other screening mammogram</td><td/><td/></tr><tr><td/><td>SNOMED-CT</td><td>24623002</td><td>Screening mammography</td><td/><td/></tr><tr><td>Colonoscopy</td><td>CPT</td><td>45378</td><td><span/>Diagnostic colonoscopy</td><td>11-05-2010 10:00:00</td><td>Performed</td></tr><tr><td/><td>HCPCS</td><td>G0121</td><td>Colon ca scrn not hi rsk ind</td><td/><td/></tr><tr><td/><td>ICD-10-CM</td><td>Z12.11</td><td>Encounter for screening for malignant neoplasm of colon</td><td/><td/></tr><tr><td/><td>ICD-9-CM</td><td>45.23</td><td>Colonoscopy</td><td/><td/></tr><tr><td/><td>SNOMED-CT</td><td>174184006</td><td>Diagnostic endoscopic examination on colon</td><td/><td/></tr><tr><td>Foot Exam</td><td>SNOMED-CT</td><td>401191002</td><td><span/>Diabetic foot examination</td><td>12-02-2010 10:00:00</td><td>Performed</td></tr></tbody></table></div>"
        },
        "mode": "snapshot"
      }, {
        "title": "Medications",
        "code": {
          "coding": [ {
            "system": "http://loinc.org",
            "code": "10160-0",
            "display": "History of Medication Use"
          } ]
        },
        "text": {
          "status": "additional",
          "div": "<div xmlns=\"http://www.w3.org/1999/xhtml\"><table><thead><tr><th>Group Description</th><th>Code System</th><th>Code</th><th>Code Description</th><th>Date and Time</th><th>Status</th></tr></thead><tbody><tr><td>Antiasthmatic steroids</td><td>RxNorm</td><td>351136</td><td><span/>Albuterol 0.417 MG/ML Inhalant Solution</td><td>03-31-2010 10:00:00</td><td>Active</td></tr><tr><td/><td>RxNorm</td><td>828930</td><td>50 ACTUAT flunisolide 0.25 MG/ACTUAT Metered Dose Inhaler</td><td/><td/></tr><tr><td>Antidiabetics</td><td>RxNorm</td><td>744863</td><td><span/>exenatide 0.25 MG/ML Injectable Solution</td><td>03-31-2010 10:00:00</td><td>Active</td></tr><tr><td>Short acting beta 2 agonist</td><td>RxNorm</td><td>630208</td><td><span/>Albuterol 0.83 MG/ML Inhalant Solution</td><td>03-31-2010 10:00:00</td><td>Active</td></tr></tbody></table></div>"
        },
        "mode": "snapshot",
        "entry": [ {
          "reference": "MedicationStatement/39e886c6-be89-419f-a345-a4548f75474d",
          "display": "Albuterol 0.417 MG/ML Inhalant Solution"
        }, {
          "reference": "MedicationStatement/f0949845-d439-4372-a49b-62c0c777708e",
          "display": "exenatide 0.25 MG/ML Injectable Solution"
        }, {
          "reference": "MedicationStatement/fa5a6f6c-6751-4b95-aabd-9b625969fc99",
          "display": "Albuterol 0.83 MG/ML Inhalant Solution"
        } ]
      }, {
        "title": "Vital Signs",
        "code": {
          "coding": [ {
            "system": "http://loinc.org",
            "code": "8716-3",
            "display": "Vital Signs"
          } ]
        },
        "text": {
          "status": "additional",
          "div": "<div xmlns=\"http://www.w3.org/1999/xhtml\"><table><thead><tr><th>Group Description</th><th>Code System</th><th>Code</th><th>Code Description</th><th>Value</th><th>Unit</th><th>Date and Time</th><th>Status</th></tr></thead><tbody><tr><td>BMI</td><td>LOINC</td><td>39156-5</td><td><span/>BMI</td><td>29.4</td><td>kg/m2</td><td>03-31-2010 10:00:00</td><td>Finding</td></tr><tr><td>Diastolic Blood Pressure</td><td>LOINC</td><td>8462-4</td><td><span/>BP Diastolic</td><td>84</td><td>mm[Hg]</td><td>03-31-2010 10:00:00</td><td>Finding</td></tr><tr><td>Systolic Blood Pressure</td><td>LOINC</td><td>8480-6</td><td><span/>BP Systolic</td><td>134</td><td>mm[Hg]</td><td>03-31-2010 10:00:00</td><td>Finding</td></tr><tr><td>BMI</td><td>LOINC</td><td>39156-5</td><td><span/>BMI</td><td>30.1</td><td>kg/m2</td><td>06-05-2010 10:00:00</td><td>Finding</td></tr><tr><td>Diastolic Blood Pressure</td><td>LOINC</td><td>8462-4</td><td><span/>BP Diastolic</td><td>84</td><td>mm[Hg]</td><td>06-05-2010 10:00:00</td><td>Finding</td></tr><tr><td>Systolic Blood Pressure</td><td>LOINC</td><td>8480-6</td><td><span/>BP Systolic</td><td>136</td><td>mm[Hg]</td><td>06-05-2010 10:00:00</td><td>Finding</td></tr><tr><td>BMI</td><td>LOINC</td><td>39156-5</td><td><span/>BMI</td><td>29.4</td><td>kg/m2</td><td>09-15-2010 10:00:00</td><td>Finding</td></tr><tr><td>Diastolic Blood Pressure</td><td>LOINC</td><td>8462-4</td><td><span/>BP Diastolic</td><td>88</td><td>mm[Hg]</td><td>09-15-2010 10:00:00</td><td>Finding</td></tr><tr><td>Systolic Blood Pressure</td><td>LOINC</td><td>8480-6</td><td><span/>BP Systolic</td><td>138</td><td>mm[Hg]</td><td>09-15-2010 10:00:00</td><td>Finding</td></tr><tr><td>BMI</td><td>LOINC</td><td>39156-5</td><td><span/>BMI</td><td>28.7</td><td>kg/m2</td><td>12-02-2010 10:00:00</td><td>Finding</td></tr><tr><td>Diastolic Blood Pressure</td><td>LOINC</td><td>8462-4</td><td><span/>BP Diastolic</td><td>94</td><td>mm[Hg]</td><td>12-02-2010 10:00:00</td><td>Finding</td></tr><tr><td>Systolic Blood Pressure</td><td>LOINC</td><td>8480-6</td><td><span/>BP Systolic</td><td>146</td><td>mm[Hg]</td><td>12-02-2010 10:00:00</td><td>Finding</td></tr></tbody></table></div>"
        },
        "mode": "snapshot",
        "entry": [ {
          "reference": "Observation/045e3cb9-b748-446f-90ff-a30b5dcfd858",
          "display": "BP Diastolic"
        }, {
          "reference": "Observation/8d34dc46-0b8a-44f6-84f7-495839d61388",
          "display": "BP Systolic"
        }, {
          "reference": "Observation/4fdf8436-2e79-401b-b1a9-4b21af733d18",
          "display": "BMI"
        }, {
          "reference": "Observation/80c1433f-5066-4bdf-91c6-dc9711ed7ece",
          "display": "BMI"
        }, {
          "reference": "Observation/fa300e8b-2805-4b53-80d2-eb41762629a7",
          "display": "BP Diastolic"
        }, {
          "reference": "Observation/5a8932b7-a868-40f2-9659-d8d2bb3dd3b6",
          "display": "BP Systolic"
        }, {
          "reference": "Observation/26e13185-81d3-4495-a919-bc9fec277bf6",
          "display": "BMI"
        }, {
          "reference": "Observation/bd2a0672-10ca-440c-9b45-6b3595dcf4b0",
          "display": "BP Diastolic"
        }, {
          "reference": "Observation/06a75f92-4653-40db-902f-0b44a3660fa4",
          "display": "BP Systolic"
        }, {
          "reference": "Observation/77d450ee-4c25-4f9f-9616-7bdcf8902d49",
          "display": "BP Diastolic"
        }, {
          "reference": "Observation/fe6ff1f0-0c93-4315-a407-993054bd57a7",
          "display": "BMI"
        }, {
          "reference": "Observation/bb7dc787-3784-4218-a2b7-52eb32cd7244",
          "display": "BP Systolic"
        } ]
      } ]
    }
  }, {
    "resource": {
      "resourceType": "Patient",
      "id": "1591ebca-7d84-4205-93b7-d30ecf324def",
      "extension": [ {
        "url": "http://hl7.org/fhir/StructureDefinition/patient-religion",
        "valueCodeableConcept": {
          "coding": [ {
            "system": "urn:oid:2.16.840.1.113883.5.1076",
            "code": "1077",
            "display": "Protestant"
          } ]
        }
      }, {
        "url": "http://hl7.org/fhir/us/core/StructureDefinition/us-core-race",
        "extension": [ {
          "url": "text",
          "valueString": "White"
        }, {
          "url": "ombCategory",
          "valueCoding": {
            "system": "urn:oid:2.16.840.1.113883.6.238",
            "code": "2106-3",
            "display": "White"
          }
        } ]
      }, {
        "url": "http://hl7.org/fhir/us/core/StructureDefinition/us-core-ethnicity",
        "extension": [ {
          "url": "text",
          "valueString": "Not Hispanic or Latino"
        }, {
          "url": "ombCategory",
          "valueCoding": {
            "system": "urn:oid:2.16.840.1.113883.6.238",
            "code": "2186-5",
            "display": "Not Hispanic or Latino"
          }
        } ]
      }, {
        "url": "http://hl7.org/fhir/StructureDefinition/patient-birthPlace",
        "valueAddress": {
          "city": "Sudbury",
          "state": "MA",
          "postalCode": "1776",
          "country": "US"
        }
      } ],
      "identifier": [ {
        "use": "official",
        "system": "urn:oid:2.16.840.1.113883.19.5.99999.2",
        "value": "998991"
      }, {
        "use": "official",
        "system": "urn:oid:2.16.840.1.113883.4.1",
        "value": "111-00-2330"
      } ],
      "name": [ {
        "use": "usual",
        "family": "Padilla",
        "given": [ "Carmen" ]
      } ],
      "telecom": [ {
        "system": "phone",
        "value": "(973)599-5147",
        "use": "mobile"
      } ],
      "gender": "female",
      "birthDate": "1952-08-19",
      "address": [ {
        "use": "home",
        "line": [ "3457 Deer Ridge Drive" ],
        "city": "Whippany",
        "state": "NJ",
        "postalCode": "7981",
        "country": "US"
      } ],
      "maritalStatus": {
        "coding": [ {
          "system": "http://terminology.hl7.org/CodeSystem/v3-MaritalStatus",
          "code": "M",
          "display": "Married"
        } ]
      },
      "contact": [ {
        "relationship": [ {
          "coding": [ {
            "system": "http://terminology.hl7.org/CodeSystem/v2-0131",
            "code": "C",
            "display": "Emergency Contact"
          } ]
        } ],
        "name": {
          "family": "Davis",
          "given": [ "Raymond" ],
          "prefix": [ "Mr." ]
        },
        "telecom": [ {
          "system": "phone",
          "value": "(417)581-5892",
          "use": "home"
        }, {
          "system": "email",
          "value": "RaymondEDavis@fleckens.hu",
          "use": "work"
        } ],
        "address": {
          "use": "home",
          "line": [ "2798 Chandler Drive" ],
          "city": "Ozark",
          "state": "MO",
          "postalCode": "65721",
          "country": "US"
        }
      } ],
      "communication": [ {
        "language": {
          "coding": [ {
            "system": "urn:ietf:bcp:47",
            "code": "spa"
          } ]
        },
        "preferred": true
      } ],
      "managingOrganization": {
        "reference": "Organization/1a50bf3a-8933-4b14-b0a9-512f782654ee",
        "display": "Community Health and Hospitals"
      }
    }
  }, {
    "resource": {
      "resourceType": "Organization",
      "id": "1a50bf3a-8933-4b14-b0a9-512f782654ee",
      "identifier": [ {
        "use": "official",
        "value": "2.16.840.1.113883.4.6"
      } ],
      "name": "Community Health and Hospitals",
      "telecom": [ {
        "system": "phone",
        "value": " 555-555-5000",
        "use": "work"
      } ],
      "address": [ {
        "line": [ "1001 Village Avenue" ],
        "city": "Portland",
        "state": "OR",
        "postalCode": "99123",
        "country": "US"
      } ]
    }
  }, {
    "resource": {
      "resourceType": "Practitioner",
      "id": "c347c1d4-a96f-402b-b740-5edda35a1738",
      "identifier": [ {
        "use": "official",
        "system": "urn:oid:2.16.840.1.113883.4.6",
        "value": "99999999"
      } ],
      "name": [ {
        "family": "Seven",
        "given": [ "Henry" ],
        "suffix": [ "MD" ]
      } ],
      "telecom": [ {
        "system": "phone",
        "value": "555-555-1002",
        "use": "work"
      } ],
      "address": [ {
        "line": [ "1002 Healthcare Drive" ],
        "city": "Portland",
        "state": "OR",
        "postalCode": "99123",
        "country": "US"
      } ]
    }
  }, {
    "resource": {
      "resourceType": "Practitioner",
      "id": "d16a91ca-0fcf-4a5a-b545-fe8a47636fc0",
      "identifier": [ {
        "use": "official",
        "system": "http://hl7.org/fhir/sid/us-npi",
        "value": "999999999"
      } ],
      "name": [ {
        "family": "Seven",
        "given": [ "Henry" ]
      } ],
      "telecom": [ {
        "system": "phone",
        "value": "555-555-1002",
        "use": "work"
      } ],
      "address": [ {
        "line": [ "1001 Village Avenue" ],
        "city": "Portland",
        "state": "OR",
        "postalCode": "99123",
        "country": "US"
      } ]
    }
  }, {
    "resource": {
      "resourceType": "Practitioner",
      "id": "212ebfba-2e9d-463b-ba26-a94dc987986f",
      "identifier": [ {
        "use": "official",
        "system": "http://hl7.org/fhir/sid/us-npi",
        "value": "PseudoMD-1"
      } ],
      "name": [ {
        "family": "Seven",
        "given": [ "Henry" ],
        "suffix": [ "MD" ]
      } ],
      "telecom": [ {
        "system": "phone",
        "value": "+1-555-555-5000",
        "use": "home"
      } ],
      "address": [ {
        "line": [ "1001 Village Avenue" ],
        "city": "Portland",
        "state": "OR",
        "postalCode": "99123",
        "country": "US"
      } ]
    }
  }, {
    "resource": {
      "resourceType": "Organization",
      "id": "42af330d-332a-4214-92aa-bbaaf10d2151",
      "identifier": [ {
        "use": "official",
        "system": "urn:oid:2.16.840.1.113883.4.6",
        "value": "99999999"
      } ],
      "name": "Community Health and Hospitals",
      "telecom": [ {
        "system": "phone",
        "value": " 555-555-1002",
        "use": "work"
      } ],
      "address": [ {
        "use": "work",
        "line": [ "1002 Healthcare Drive" ],
        "city": "Portland",
        "state": "OR",
        "postalCode": "99123",
        "country": "US"
      } ]
    }
  }, {
    "resource": {
      "resourceType": "Condition",
      "id": "4dfa1019-7e1d-4730-a501-0de09645bbf1",
      "identifier": [ {
        "use": "official",
        "value": "9d3d416d-45ab-4da1-912f-4583e0632000"
      } ],
      "clinicalStatus": {
        "coding": [ {
          "system": "http://terminology.hl7.org/CodeSystem/condition-clinical",
          "code": "active",
          "display": "Active"
        } ]
      },
      "verificationStatus": {
        "coding": [ {
          "system": "http://terminology.hl7.org/CodeSystem/condition-ver-status",
          "code": "confirmed",
          "display": "Confirmed"
        } ]
      },
      "category": [ {
        "coding": [ {
          "system": "http://terminology.hl7.org/CodeSystem/condition-category",
          "code": "problem-list-item",
          "display": "Problem List Item"
        } ]
      } ],
      "code": {
        "coding": [ {
          "system": "http://snomed.info/sct",
          "code": "395022009",
          "display": "Asthma night-time symptoms"
        } ]
      },
      "subject": {
        "reference": "Patient/1591ebca-7d84-4205-93b7-d30ecf324def",
        "display": "Carmen Padilla"
      },
      "onsetDateTime": "2010-03-31T10:00:00+02:00"
    }
  }, {
    "resource": {
      "resourceType": "Encounter",
      "id": "7260eacb-d6e5-4557-9e9d-6cb2b85462ed",
      "identifier": [ {
        "use": "official",
        "value": "2a620155-9d11-439e-92b3-5d9815ff4de8"
      } ],
      "status": "finished",
      "type": [ {
        "coding": [ {
          "system": "http://www.ama-assn.org/go/cpt",
          "code": "99213",
          "display": "Office/outpatient visit, est"
        }, {
          "system": "urn:oid:2.16.840.1.113883.6.103",
          "code": "V70.0",
          "display": "Routine general medical examination at a health care facility"
        } ]
      } ],
      "subject": {
        "reference": "Patient/1591ebca-7d84-4205-93b7-d30ecf324def",
        "display": "Carmen Padilla"
      },
      "period": {
        "start": "2010-09-15T10:00:00+02:00"
      }
    }
  }, {
    "resource": {
      "resourceType": "Encounter",
      "id": "cc8f2916-80d1-4f8d-b773-74896d3e6161",
      "identifier": [ {
        "use": "official",
        "value": "2a620155-9d11-439e-92b3-5d9815ff4de8"
      } ],
      "status": "finished",
      "type": [ {
        "coding": [ {
          "system": "http://www.ama-assn.org/go/cpt",
          "code": "99241",
          "display": "Office consultation"
        } ]
      } ],
      "subject": {
        "reference": "Patient/1591ebca-7d84-4205-93b7-d30ecf324def",
        "display": "Carmen Padilla"
      },
      "period": {
        "start": "2010-06-05T10:00:00+02:00"
      }
    }
  }, {
    "resource": {
      "resourceType": "Encounter",
      "id": "b0169d30-3ad9-47cf-af68-c820bfc209b0",
      "identifier": [ {
        "use": "official",
        "value": "2a620155-9d11-439e-92b3-5d9815ff4de8"
      } ],
      "status": "finished",
      "type": [ {
        "coding": [ {
          "system": "http://www.ama-assn.org/go/cpt",
          "code": "99241",
          "display": "Office consultation"
        } ]
      } ],
      "subject": {
        "reference": "Patient/1591ebca-7d84-4205-93b7-d30ecf324def",
        "display": "Carmen Padilla"
      },
      "period": {
        "start": "2010-12-02T10:00:00+01:00"
      }
    }
  }, {
    "resource": {
      "resourceType": "Encounter",
      "id": "4b4aae18-6658-48ba-a2d0-e6841e04fb7b",
      "identifier": [ {
        "use": "official",
        "value": "2a620155-9d11-439e-92b3-5d9815ff4de8"
      } ],
      "status": "finished",
      "type": [ {
        "coding": [ {
          "system": "http://www.ama-assn.org/go/cpt",
          "code": "99213",
          "display": "Office/outpatient visit, est"
        }, {
          "system": "urn:oid:2.16.840.1.113883.6.103",
          "code": "V70.0",
          "display": "Routine general medical examination at a health care facility"
        } ]
      } ],
      "subject": {
        "reference": "Patient/1591ebca-7d84-4205-93b7-d30ecf324def",
        "display": "Carmen Padilla"
      },
      "period": {
        "start": "2010-03-31T10:00:00+02:00"
      },
      "reasonCode": [ {
        "coding": [ {
          "system": "http://snomed.info/sct",
          "code": "195979001",
          "display": "Asthma"
        } ]
      }, {
        "coding": [ {
          "system": "http://snomed.info/sct",
          "code": "373899003",
          "display": "Asthma Daytime Symptoms"
        } ]
      }, {
        "coding": [ {
          "system": "http://snomed.info/sct",
          "code": "395022009",
          "display": "Asthma Nighttime Symptoms"
        } ]
      }, {
        "coding": [ {
          "system": "http://snomed.info/sct",
          "code": "44054006",
          "display": "Diabetes"
        } ]
      }, {
        "coding": [ {
          "system": "http://snomed.info/sct",
          "code": "312904009",
          "display": "Diabetic Retinopathy"
        } ]
      } ],
      "reasonReference": [ {
        "reference": "Condition/d80fa21d-0576-4b47-b38f-57b68c0e55e3",
        "display": "Asthma Daytime Symptoms"
      }, {
        "reference": "Condition/777adbed-39cd-4a09-8860-0a845e79e2ea",
        "display": "Asthma"
      }, {
        "reference": "Condition/de2f9070-18e2-444c-9bd4-461f60a47b7a",
        "display": "Asthma Nighttime Symptoms"
      }, {
        "reference": "Condition/1c482ecc-643a-44e8-ad02-a3aac836fc4a",
        "display": "Diabetes"
      }, {
        "reference": "Condition/622c81d5-adc9-46ef-bca3-b23ee474b56d",
        "display": "Diabetic Retinopathy"
      } ]
    }
  }, {
    "resource": {
      "resourceType": "Condition",
      "id": "d80fa21d-0576-4b47-b38f-57b68c0e55e3",
      "identifier": [ {
        "use": "official",
        "system": "urn:uuid:db734647-fc99-424c-a864-7e3cda82e703",
        "value": "45665"
      } ],
      "clinicalStatus": {
        "coding": [ {
          "system": "http://terminology.hl7.org/CodeSystem/condition-clinical",
          "code": "active",
          "display": "Active"
        } ]
      },
      "category": [ {
        "coding": [ {
          "system": "http://hl7.org/fhir/condition-category",
          "code": "encounter-diagnosis",
          "display": "Encounter Diagnosis"
        } ]
      } ],
      "code": {
        "coding": [ {
          "system": "http://snomed.info/sct",
          "code": "373899003",
          "display": "Asthma Daytime Symptoms"
        } ]
      },
      "subject": {
        "reference": "Patient/1591ebca-7d84-4205-93b7-d30ecf324def",
        "display": "Carmen Padilla"
      },
      "onsetDateTime": "2010-03-31T10:00:00+02:00"
    }
  }, {
    "resource": {
      "resourceType": "Condition",
      "id": "777adbed-39cd-4a09-8860-0a845e79e2ea",
      "identifier": [ {
        "use": "official",
        "system": "urn:uuid:db734647-fc99-424c-a864-7e3cda82e703",
        "value": "45665"
      } ],
      "clinicalStatus": {
        "coding": [ {
          "system": "http://terminology.hl7.org/CodeSystem/condition-clinical",
          "code": "active",
          "display": "Active"
        } ]
      },
      "category": [ {
        "coding": [ {
          "system": "http://hl7.org/fhir/condition-category",
          "code": "encounter-diagnosis",
          "display": "Encounter Diagnosis"
        } ]
      } ],
      "code": {
        "coding": [ {
          "system": "http://snomed.info/sct",
          "code": "195979001",
          "display": "Asthma"
        }, {
          "system": "urn:oid:2.16.840.1.113883.6.90",
          "code": "J45",
          "display": "Asthma"
        }, {
          "system": "urn:oid:2.16.840.1.113883.6.103",
          "code": "493.92",
          "display": "Asthma, unspecified type, with (acute) exacerbation"
        } ]
      },
      "subject": {
        "reference": "Patient/1591ebca-7d84-4205-93b7-d30ecf324def",
        "display": "Carmen Padilla"
      },
      "onsetDateTime": "2010-03-31T10:00:00+02:00"
    }
  }, {
    "resource": {
      "resourceType": "Condition",
      "id": "de2f9070-18e2-444c-9bd4-461f60a47b7a",
      "identifier": [ {
        "use": "official",
        "system": "urn:uuid:db734647-fc99-424c-a864-7e3cda82e703",
        "value": "45665"
      } ],
      "clinicalStatus": {
        "coding": [ {
          "system": "http://terminology.hl7.org/CodeSystem/condition-clinical",
          "code": "active",
          "display": "Active"
        } ]
      },
      "category": [ {
        "coding": [ {
          "system": "http://hl7.org/fhir/condition-category",
          "code": "encounter-diagnosis",
          "display": "Encounter Diagnosis"
        } ]
      } ],
      "code": {
        "coding": [ {
          "system": "http://snomed.info/sct",
          "code": "395022009",
          "display": "Asthma Nighttime Symptoms"
        } ]
      },
      "subject": {
        "reference": "Patient/1591ebca-7d84-4205-93b7-d30ecf324def",
        "display": "Carmen Padilla"
      },
      "onsetDateTime": "2010-03-31T10:00:00+02:00"
    }
  }, {
    "resource": {
      "resourceType": "Condition",
      "id": "1c482ecc-643a-44e8-ad02-a3aac836fc4a",
      "identifier": [ {
        "use": "official",
        "system": "urn:uuid:db734647-fc99-424c-a864-7e3cda82e703",
        "value": "45665"
      } ],
      "clinicalStatus": {
        "coding": [ {
          "system": "http://terminology.hl7.org/CodeSystem/condition-clinical",
          "code": "active",
          "display": "Active"
        } ]
      },
      "category": [ {
        "coding": [ {
          "system": "http://hl7.org/fhir/condition-category",
          "code": "encounter-diagnosis",
          "display": "Encounter Diagnosis"
        } ]
      } ],
      "code": {
        "coding": [ {
          "system": "http://snomed.info/sct",
          "code": "44054006",
          "display": "Diabetes"
        }, {
          "system": "urn:oid:2.16.840.1.113883.6.90",
          "code": "E11.9",
          "display": "Type 2 diabetes mellitus without complications"
        }, {
          "system": "urn:oid:2.16.840.1.113883.6.103",
          "code": "250.00",
          "display": "Diabetes mellitus without mention of complication, type II or unspecified type, not stated as uncontrolled"
        } ]
      },
      "subject": {
        "reference": "Patient/1591ebca-7d84-4205-93b7-d30ecf324def",
        "display": "Carmen Padilla"
      },
      "onsetDateTime": "2010-03-31T10:00:00+02:00"
    }
  }, {
    "resource": {
      "resourceType": "Condition",
      "id": "622c81d5-adc9-46ef-bca3-b23ee474b56d",
      "identifier": [ {
        "use": "official",
        "system": "urn:uuid:db734647-fc99-424c-a864-7e3cda82e703",
        "value": "45665"
      } ],
      "clinicalStatus": {
        "coding": [ {
          "system": "http://terminology.hl7.org/CodeSystem/condition-clinical",
          "code": "active",
          "display": "Active"
        } ]
      },
      "category": [ {
        "coding": [ {
          "system": "http://hl7.org/fhir/condition-category",
          "code": "encounter-diagnosis",
          "display": "Encounter Diagnosis"
        } ]
      } ],
      "code": {
        "coding": [ {
          "system": "http://snomed.info/sct",
          "code": "312904009",
          "display": "Diabetic Retinopathy"
        }, {
          "system": "urn:oid:2.16.840.1.113883.6.90",
          "code": "E13.33",
          "display": "Other specified diabetes mellitus with moderate nonproliferative diabetic retinopathy"
        }, {
          "system": "urn:oid:2.16.840.1.113883.6.103",
          "code": "362.05",
          "display": "Moderate nonproliferative diabetic retinopathy"
        } ]
      },
      "subject": {
        "reference": "Patient/1591ebca-7d84-4205-93b7-d30ecf324def",
        "display": "Carmen Padilla"
      },
      "onsetDateTime": "2010-03-31T10:00:00+02:00"
    }
  }, {
    "resource": {
      "resourceType": "Observation",
      "id": "199a3293-e474-402b-9dc6-a3340ad865f5",
      "identifier": [ {
        "use": "official",
        "system": "urn:oid:2.16.840.1.113883.19",
        "value": "123456789"
      } ],
      "status": "final",
      "code": {
        "coding": [ {
          "system": "urn:oid:2.16.840.1.113883.5.4",
          "code": "ASSERTION"
        } ]
      },
      "subject": {
        "reference": "Patient/1591ebca-7d84-4205-93b7-d30ecf324def",
        "display": "Carmen Padilla"
      },
      "effectivePeriod": {
        "start": "2010-03-31T10:00:00+02:00"
      },
      "valueCodeableConcept": {
        "coding": [ {
          "system": "http://snomed.info/sct",
          "code": "266919005",
          "display": "Never smoker (Never Smoked)"
        }, {
          "system": "http://snomed.info/sct",
          "code": "449868002",
          "display": "Current every day smoker"
        } ]
      }
    }
  }, {
    "resource": {
      "resourceType": "DiagnosticReport",
      "id": "230d5a48-8d72-4877-b9a1-e6f6eb32c1fd",
      "identifier": [ {
        "use": "official",
        "value": "7d5a02b0-67a4-11db-bd13-0800200c9a66"
      } ],
      "status": "final",
      "category": [ {
        "coding": [ {
          "system": "http://terminology.hl7.org/CodeSystem/v2-0074",
          "code": "LAB",
          "display": "Laboratory"
        } ]
      } ],
      "code": {
        "coding": [ {
          "system": "http://snomed.info/sct",
          "code": "166312007",
          "display": "Blood Chemistry"
        } ]
      },
      "subject": {
        "reference": "Patient/1591ebca-7d84-4205-93b7-d30ecf324def",
        "display": "Carmen Padilla"
      },
      "result": [ {
        "reference": "Observation/016166f3-0b60-4ced-8593-00c9e2253564",
        "display": "Hgb A1c MFr Bld"
      } ]
    }
  }, {
    "resource": {
      "resourceType": "Observation",
      "id": "016166f3-0b60-4ced-8593-00c9e2253564",
      "identifier": [ {
        "use": "official",
        "value": "107c2dc0-67a5-11db-bd13-0800200c9a66"
      } ],
      "status": "final",
      "category": [ {
        "coding": [ {
          "system": "http://terminology.hl7.org/CodeSystem/observation-category",
          "code": "laboratory"
        } ]
      } ],
      "code": {
        "coding": [ {
          "system": "http://loinc.org",
          "code": "4548-4",
          "display": "Hgb A1c MFr Bld"
        }, {
          "system": "http://www.ama-assn.org/go/cpt",
          "code": "83036",
          "display": "Glycated hemoglobin test"
        }, {
          "system": "http://snomed.info/sct",
          "code": "43396009",
          "display": "Hemoglobin A1c measurement"
        } ]
      },
      "subject": {
        "reference": "Patient/1591ebca-7d84-4205-93b7-d30ecf324def",
        "display": "Carmen Padilla"
      },
      "effectivePeriod": {
        "start": "2010-03-31T10:00:00+02:00"
      },
      "valueQuantity": {
        "value": 6.3,
        "unit": "%",
        "system": "http://unitsofmeasure.org",
        "code": "%"
      },
      "interpretation": [ {
        "coding": [ {
          "system": "http://terminology.hl7.org/CodeSystem/v3-ObservationInterpretation",
          "code": "N"
        } ]
      } ],
      "referenceRange": [ {
        "text": "4-5.6%"
      } ]
    }
  }, {
    "resource": {
      "resourceType": "DiagnosticReport",
      "id": "b8d46057-0eb2-46f7-8531-7fe59656bd55",
      "identifier": [ {
        "use": "official",
        "value": "7d5a02b0-67a4-11db-bd13-0800200c9a66"
      } ],
      "status": "final",
      "category": [ {
        "coding": [ {
          "system": "http://terminology.hl7.org/CodeSystem/v2-0074",
          "code": "LAB",
          "display": "Laboratory"
        } ]
      } ],
      "code": {
        "coding": [ {
          "system": "http://snomed.info/sct",
          "code": "166312007",
          "display": "Blood Chemistry"
        } ]
      },
      "subject": {
        "reference": "Patient/1591ebca-7d84-4205-93b7-d30ecf324def",
        "display": "Carmen Padilla"
      },
      "result": [ {
        "reference": "Observation/53aa430d-b27f-4bea-8a83-71a694a9d219",
        "display": "Hgb A1c MFr Bld"
      } ]
    }
  }, {
    "resource": {
      "resourceType": "Observation",
      "id": "53aa430d-b27f-4bea-8a83-71a694a9d219",
      "identifier": [ {
        "use": "official",
        "value": "107c2dc0-67a5-11db-bd13-0800200c9a66"
      } ],
      "status": "final",
      "category": [ {
        "coding": [ {
          "system": "http://terminology.hl7.org/CodeSystem/observation-category",
          "code": "laboratory"
        } ]
      } ],
      "code": {
        "coding": [ {
          "system": "http://loinc.org",
          "code": "4548-4",
          "display": "Hgb A1c MFr Bld"
        }, {
          "system": "http://www.ama-assn.org/go/cpt",
          "code": "83036",
          "display": "Glycated hemoglobin test"
        }, {
          "system": "http://snomed.info/sct",
          "code": "43396009",
          "display": "Hemoglobin A1c measurement"
        } ]
      },
      "subject": {
        "reference": "Patient/1591ebca-7d84-4205-93b7-d30ecf324def",
        "display": "Carmen Padilla"
      },
      "effectivePeriod": {
        "start": "2010-12-02T10:00:00+01:00"
      },
      "valueQuantity": {
        "value": 6.5,
        "unit": "%",
        "system": "http://unitsofmeasure.org",
        "code": "%"
      },
      "interpretation": [ {
        "coding": [ {
          "system": "http://terminology.hl7.org/CodeSystem/v3-ObservationInterpretation",
          "code": "N"
        } ]
      } ],
      "referenceRange": [ {
        "text": "4-5.6%"
      } ]
    }
  }, {
    "resource": {
      "resourceType": "DiagnosticReport",
      "id": "ad074a82-66c2-4114-a268-cac735a49ead",
      "identifier": [ {
        "use": "official",
        "value": "7d5a02b0-67a4-11db-bd13-0800200c9a66"
      } ],
      "status": "final",
      "category": [ {
        "coding": [ {
          "system": "http://terminology.hl7.org/CodeSystem/v2-0074",
          "code": "LAB",
          "display": "Laboratory"
        } ]
      } ],
      "code": {
        "coding": [ {
          "system": "http://snomed.info/sct",
          "code": "166312007",
          "display": "Blood Chemistry"
        } ]
      },
      "subject": {
        "reference": "Patient/1591ebca-7d84-4205-93b7-d30ecf324def",
        "display": "Carmen Padilla"
      },
      "result": [ {
        "reference": "Observation/b778812c-edfd-4184-b6c5-2c2f68e20182",
        "display": "Hgb A1c MFr Bld"
      } ]
    }
  }, {
    "resource": {
      "resourceType": "Observation",
      "id": "b778812c-edfd-4184-b6c5-2c2f68e20182",
      "identifier": [ {
        "use": "official",
        "value": "107c2dc0-67a5-11db-bd13-0800200c9a66"
      } ],
      "status": "final",
      "category": [ {
        "coding": [ {
          "system": "http://terminology.hl7.org/CodeSystem/observation-category",
          "code": "laboratory"
        } ]
      } ],
      "code": {
        "coding": [ {
          "system": "http://loinc.org",
          "code": "4548-4",
          "display": "Hgb A1c MFr Bld"
        }, {
          "system": "http://www.ama-assn.org/go/cpt",
          "code": "83036",
          "display": "Glycated hemoglobin test"
        }, {
          "system": "http://snomed.info/sct",
          "code": "43396009",
          "display": "Hemoglobin A1c measurement"
        } ]
      },
      "subject": {
        "reference": "Patient/1591ebca-7d84-4205-93b7-d30ecf324def",
        "display": "Carmen Padilla"
      },
      "effectivePeriod": {
        "start": "2010-06-05T10:00:00+02:00"
      },
      "valueQuantity": {
        "value": 7.5,
        "unit": "%",
        "system": "http://unitsofmeasure.org",
        "code": "%"
      },
      "interpretation": [ {
        "coding": [ {
          "system": "http://terminology.hl7.org/CodeSystem/v3-ObservationInterpretation",
          "code": "N"
        } ]
      } ],
      "referenceRange": [ {
        "text": "4-5.6%"
      } ]
    }
  }, {
    "resource": {
      "resourceType": "DiagnosticReport",
      "id": "e34a59ff-b82d-4c28-95c5-5b3ab116226c",
      "identifier": [ {
        "use": "official",
        "value": "7d5a02b0-67a4-11db-bd13-0800200c9a66"
      } ],
      "status": "final",
      "category": [ {
        "coding": [ {
          "system": "http://terminology.hl7.org/CodeSystem/v2-0074",
          "code": "LAB",
          "display": "Laboratory"
        } ]
      } ],
      "code": {
        "coding": [ {
          "system": "http://snomed.info/sct",
          "code": "116147009",
          "display": "Cytology"
        } ]
      },
      "subject": {
        "reference": "Patient/1591ebca-7d84-4205-93b7-d30ecf324def",
        "display": "Carmen Padilla"
      },
      "result": [ {
        "reference": "Observation/e5a315e4-1615-400c-967d-96e7f07fd0ad",
        "display": "Cyto Cervix"
      } ]
    }
  }, {
    "resource": {
      "resourceType": "Observation",
      "id": "e5a315e4-1615-400c-967d-96e7f07fd0ad",
      "identifier": [ {
        "use": "official",
        "value": "107c2dc0-67a5-11db-bd13-0800200c9a66"
      } ],
      "status": "final",
      "category": [ {
        "coding": [ {
          "system": "http://terminology.hl7.org/CodeSystem/observation-category",
          "code": "laboratory"
        } ]
      } ],
      "code": {
        "coding": [ {
          "system": "http://loinc.org",
          "code": "10524-7",
          "display": "Cyto Cervix"
        }, {
          "system": "http://www.ama-assn.org/go/cpt",
          "code": "88174",
          "display": "Cytopath, c/v auto, in fluid"
        }, {
          "system": "urn:oid:2.16.840.1.113883.6.13",
          "code": "G0147",
          "display": "Scr c/v cyto, automated sys"
        }, {
          "system": "urn:oid:2.16.840.1.113883.6.90",
          "code": "Z12.4",
          "display": "Encounter for screening for malignant neoplasm of cervix"
        }, {
          "system": "urn:oid:2.16.840.1.113883.6.103",
          "code": "V72.32",
          "display": "Encounter for Papanicolaou cervical smear to confirm findings of recent normal smear following initial abnormal smear"
        }, {
          "system": "http://snomed.info/sct",
          "code": "440623000",
          "display": "Microscopic examination of cervical Papanicolaou smear"
        } ]
      },
      "subject": {
        "reference": "Patient/1591ebca-7d84-4205-93b7-d30ecf324def",
        "display": "Carmen Padilla"
      },
      "effectivePeriod": {
        "start": "2010-06-05T10:00:00+02:00"
      },
      "valueCodeableConcept": {
        "coding": [ {
          "system": "http://snomed.info/sct",
          "code": "17621005",
          "display": "normal"
        } ]
      },
      "interpretation": [ {
        "coding": [ {
          "system": "http://terminology.hl7.org/CodeSystem/v3-ObservationInterpretation",
          "code": "N"
        } ]
      } ],
      "referenceRange": [ {
        "text": "NA"
      } ]
    }
  }, {
    "resource": {
      "resourceType": "DiagnosticReport",
      "id": "782ecd03-f33b-4b35-86e9-b0bda0ab88d0",
      "identifier": [ {
        "use": "official",
        "value": "7d5a02b0-67a4-11db-bd13-0800200c9a66"
      } ],
      "status": "final",
      "category": [ {
        "coding": [ {
          "system": "http://terminology.hl7.org/CodeSystem/v2-0074",
          "code": "LAB",
          "display": "Laboratory"
        } ]
      } ],
      "code": {
        "coding": [ {
          "system": "http://snomed.info/sct",
          "code": "166312007",
          "display": "Blood Chemistry"
        } ]
      },
      "subject": {
        "reference": "Patient/1591ebca-7d84-4205-93b7-d30ecf324def",
        "display": "Carmen Padilla"
      },
      "result": [ {
        "reference": "Observation/92d3406b-c667-448d-9896-ed5d2fad2d2e",
        "display": "Hgb A1c MFr Bld"
      } ]
    }
  }, {
    "resource": {
      "resourceType": "Observation",
      "id": "92d3406b-c667-448d-9896-ed5d2fad2d2e",
      "identifier": [ {
        "use": "official",
        "value": "107c2dc0-67a5-11db-bd13-0800200c9a66"
      } ],
      "status": "final",
      "category": [ {
        "coding": [ {
          "system": "http://terminology.hl7.org/CodeSystem/observation-category",
          "code": "laboratory"
        } ]
      } ],
      "code": {
        "coding": [ {
          "system": "http://loinc.org",
          "code": "4548-4",
          "display": "Hgb A1c MFr Bld"
        }, {
          "system": "http://www.ama-assn.org/go/cpt",
          "code": "83036",
          "display": "Glycated hemoglobin test"
        }, {
          "system": "http://snomed.info/sct",
          "code": "43396009",
          "display": "Hemoglobin A1c measurement"
        } ]
      },
      "subject": {
        "reference": "Patient/1591ebca-7d84-4205-93b7-d30ecf324def",
        "display": "Carmen Padilla"
      },
      "effectivePeriod": {
        "start": "2010-09-15T10:00:00+02:00"
      },
      "valueQuantity": {
        "value": 7.2,
        "unit": "%",
        "system": "http://unitsofmeasure.org",
        "code": "%"
      },
      "interpretation": [ {
        "coding": [ {
          "system": "http://terminology.hl7.org/CodeSystem/v3-ObservationInterpretation",
          "code": "N"
        } ]
      } ],
      "referenceRange": [ {
        "text": "4-5.6%"
      } ]
    }
  }, {
    "resource": {
      "resourceType": "DiagnosticReport",
      "id": "1e66371c-24d1-476e-b4b5-e1662173580d",
      "identifier": [ {
        "use": "official",
        "value": "7d5a02b0-67a4-11db-bd13-0800200c9a66"
      } ],
      "status": "final",
      "category": [ {
        "coding": [ {
          "system": "http://terminology.hl7.org/CodeSystem/v2-0074",
          "code": "LAB",
          "display": "Laboratory"
        } ]
      } ],
      "code": {
        "coding": [ {
          "system": "http://snomed.info/sct",
          "code": "16254007",
          "display": "Lipid Panel"
        } ]
      },
      "subject": {
        "reference": "Patient/1591ebca-7d84-4205-93b7-d30ecf324def",
        "display": "Carmen Padilla"
      },
      "result": [ {
        "reference": "Observation/0ffff441-2c2c-474d-946b-fd5a853c4b24",
        "display": "LDLc SerPl-mCnc"
      }, {
        "reference": "Observation/305b8c6d-87d7-4319-9330-6d83fb97b616",
        "display": "Trigl SerPl Calc-mCnc"
      }, {
        "reference": "Observation/559b25bc-85e4-40ff-bd54-b7c62cf2a6aa",
        "display": "HDLc SerPl-sCnc"
      }, {
        "reference": "Observation/f229745c-c4c6-4417-b468-ca6d69a7f3a7",
        "display": "Cholest SerPl-mCnc"
      } ]
    }
  }, {
    "resource": {
      "resourceType": "Observation",
      "id": "0ffff441-2c2c-474d-946b-fd5a853c4b24",
      "identifier": [ {
        "use": "official",
        "value": "107c2dc0-67a5-11db-bd13-0800200c9a66"
      } ],
      "status": "final",
      "category": [ {
        "coding": [ {
          "system": "http://terminology.hl7.org/CodeSystem/observation-category",
          "code": "laboratory"
        } ]
      } ],
      "code": {
        "coding": [ {
          "system": "http://loinc.org",
          "code": "2089-1",
          "display": "LDLc SerPl-mCnc"
        }, {
          "system": "http://www.ama-assn.org/go/cpt",
          "code": "83721",
          "display": "Assay of blood lipoprotein"
        }, {
          "system": "http://snomed.info/sct",
          "code": "113079009",
          "display": "Low density lipoprotein cholesterol measurement"
        } ]
      },
      "subject": {
        "reference": "Patient/1591ebca-7d84-4205-93b7-d30ecf324def",
        "display": "Carmen Padilla"
      },
      "effectivePeriod": {
        "start": "2010-12-15T10:00:00+01:00"
      },
      "valueQuantity": {
        "value": 68.8,
        "unit": "mg/dL",
        "system": "http://unitsofmeasure.org",
        "code": "mg/dL"
      },
      "interpretation": [ {
        "coding": [ {
          "system": "http://terminology.hl7.org/CodeSystem/v3-ObservationInterpretation",
          "code": "N"
        } ]
      } ],
      "referenceRange": [ {
        "text": "<130 mg/dL (calc)"
      } ]
    }
  }, {
    "resource": {
      "resourceType": "Observation",
      "id": "305b8c6d-87d7-4319-9330-6d83fb97b616",
      "identifier": [ {
        "use": "official",
        "value": "107c2dc0-67a5-11db-bd13-0800200c9a66"
      } ],
      "status": "final",
      "category": [ {
        "coding": [ {
          "system": "http://terminology.hl7.org/CodeSystem/observation-category",
          "code": "laboratory"
        } ]
      } ],
      "code": {
        "coding": [ {
          "system": "http://loinc.org",
          "code": "12951-0",
          "display": "Trigl SerPl Calc-mCnc"
        }, {
          "system": "http://www.ama-assn.org/go/cpt",
          "code": "84478",
          "display": "Assay of triglycerides"
        }, {
          "system": "http://snomed.info/sct",
          "code": "14740000",
          "display": "Triglycerides measurement"
        } ]
      },
      "subject": {
        "reference": "Patient/1591ebca-7d84-4205-93b7-d30ecf324def",
        "display": "Carmen Padilla"
      },
      "effectivePeriod": {
        "start": "2010-12-15T10:00:00+01:00"
      },
      "valueQuantity": {
        "value": 126,
        "unit": "mg/dL",
        "system": "http://unitsofmeasure.org",
        "code": "mg/dL"
      },
      "interpretation": [ {
        "coding": [ {
          "system": "http://terminology.hl7.org/CodeSystem/v3-ObservationInterpretation",
          "code": "N"
        } ]
      } ],
      "referenceRange": [ {
        "text": "10-39 years: 55-110 mg/dL | 40-59 years: 70-150 mg/dL | >60 years: 80-150 mg/dL | Therapeutic Target: <100 mg/dL "
      } ]
    }
  }, {
    "resource": {
      "resourceType": "Observation",
      "id": "559b25bc-85e4-40ff-bd54-b7c62cf2a6aa",
      "identifier": [ {
        "use": "official",
        "value": "107c2dc0-67a5-11db-bd13-0800200c9a66"
      } ],
      "status": "final",
      "category": [ {
        "coding": [ {
          "system": "http://terminology.hl7.org/CodeSystem/observation-category",
          "code": "laboratory"
        } ]
      } ],
      "code": {
        "coding": [ {
          "system": "http://loinc.org",
          "code": "14646-4",
          "display": "HDLc SerPl-sCnc"
        }, {
          "system": "http://www.ama-assn.org/go/cpt",
          "code": "83701",
          "display": "Lipoprotein bld, hr fraction"
        }, {
          "system": "http://snomed.info/sct",
          "code": "28036006",
          "display": "High density lipoprotein cholesterol measurement"
        } ]
      },
      "subject": {
        "reference": "Patient/1591ebca-7d84-4205-93b7-d30ecf324def",
        "display": "Carmen Padilla"
      },
      "effectivePeriod": {
        "start": "2010-12-15T10:00:00+01:00"
      },
      "valueQuantity": {
        "value": 48,
        "unit": "mg/dL",
        "system": "http://unitsofmeasure.org",
        "code": "mg/dL"
      },
      "interpretation": [ {
        "coding": [ {
          "system": "http://terminology.hl7.org/CodeSystem/v3-ObservationInterpretation",
          "code": "N"
        } ]
      } ],
      "referenceRange": [ {
        "text": ">=40 mg/dL"
      } ]
    }
  }, {
    "resource": {
      "resourceType": "Observation",
      "id": "f229745c-c4c6-4417-b468-ca6d69a7f3a7",
      "identifier": [ {
        "use": "official",
        "value": "107c2dc0-67a5-11db-bd13-0800200c9a66"
      } ],
      "status": "final",
      "category": [ {
        "coding": [ {
          "system": "http://terminology.hl7.org/CodeSystem/observation-category",
          "code": "laboratory"
        } ]
      } ],
      "code": {
        "coding": [ {
          "system": "http://loinc.org",
          "code": "2093-3",
          "display": "Cholest SerPl-mCnc"
        }, {
          "system": "http://www.ama-assn.org/go/cpt",
          "code": "82465",
          "display": "Assay, bld/serum cholesterol"
        }, {
          "system": "http://snomed.info/sct",
          "code": "121868005",
          "display": "Total cholesterol measurement"
        } ]
      },
      "subject": {
        "reference": "Patient/1591ebca-7d84-4205-93b7-d30ecf324def",
        "display": "Carmen Padilla"
      },
      "effectivePeriod": {
        "start": "2010-12-15T10:00:00+01:00"
      },
      "valueQuantity": {
        "value": 142,
        "unit": "mg/dL",
        "system": "http://unitsofmeasure.org",
        "code": "mg/dL"
      },
      "interpretation": [ {
        "coding": [ {
          "system": "http://terminology.hl7.org/CodeSystem/v3-ObservationInterpretation",
          "code": "N"
        } ]
      } ],
      "referenceRange": [ {
        "text": "125-200 mg/dL"
      } ]
    }
  }, {
    "resource": {
      "resourceType": "AllergyIntolerance",
      "id": "9ad75f95-f8cb-4769-8875-4617e67ebe0a",
      "identifier": [ {
        "use": "official",
        "value": "36e3e930-7b14-11db-9fe1-0800200c9a66"
      } ],
      "clinicalStatus": {
        "coding": [ {
          "system": "http://terminology.hl7.org/CodeSystem/allergyintolerance-clinical",
          "code": "active",
          "display": "Active"
        } ]
      },
      "verificationStatus": {
        "coding": [ {
          "system": "http://terminology.hl7.org/CodeSystem/allergyintolerance-verification",
          "code": "confirmed",
          "display": "Confirmed"
        } ]
      },
      "type": "allergy",
      "category": [ "medication" ],
      "code": {
        "coding": [ {
          "system": "http://www.nlm.nih.gov/research/umls/rxnorm",
          "code": "892677",
          "display": "Baker's yeast allergenic extract 100 MG/ML Injectable Solution"
        } ],
        "text": "Bakers Yeast + Baker's yeast allergenic extract 100 MG/ML Injectable Solution"
      },
      "patient": {
        "reference": "Patient/1591ebca-7d84-4205-93b7-d30ecf324def",
        "display": "Carmen Padilla"
      },
      "recordedDate": "2010-03-31T10:00:00+02:00"
    }
  }, {
    "resource": {
      "resourceType": "AllergyIntolerance",
      "id": "3ec5f174-bb2d-4996-87c1-8ab2aaaec643",
      "identifier": [ {
        "use": "official",
        "value": "36e3e930-7b14-11db-9fe1-0800200c9a66"
      } ],
      "clinicalStatus": {
        "coding": [ {
          "system": "http://terminology.hl7.org/CodeSystem/allergyintolerance-clinical",
          "code": "active",
          "display": "Active"
        } ]
      },
      "verificationStatus": {
        "coding": [ {
          "system": "http://terminology.hl7.org/CodeSystem/allergyintolerance-verification",
          "code": "confirmed",
          "display": "Confirmed"
        } ]
      },
      "type": "allergy",
      "category": [ "food" ],
      "code": {
        "coding": [ {
          "system": "http://fdasis.nlm.nih.gov",
          "code": "291P45F896",
          "display": "Eggs"
        }, {
          "system": "urn:oid:2.16.840.1.113883.6.103",
          "code": "V15.03",
          "display": "Allergy to eggs"
        } ],
        "text": "Allergy to Eggs + Eggs"
      },
      "patient": {
        "reference": "Patient/1591ebca-7d84-4205-93b7-d30ecf324def",
        "display": "Carmen Padilla"
      },
      "recordedDate": "2010-03-31T10:00:00+02:00"
    }
  }, {
    "resource": {
      "resourceType": "AllergyIntolerance",
      "id": "b2c05ebe-aa10-437a-93c9-0b832ab796e9",
      "identifier": [ {
        "use": "official",
        "value": "36e3e930-7b14-11db-9fe1-0800200c9a66"
      } ],
      "clinicalStatus": {
        "coding": [ {
          "system": "http://terminology.hl7.org/CodeSystem/allergyintolerance-clinical",
          "code": "active",
          "display": "Active"
        } ]
      },
      "verificationStatus": {
        "coding": [ {
          "system": "http://terminology.hl7.org/CodeSystem/allergyintolerance-verification",
          "code": "confirmed",
          "display": "Confirmed"
        } ]
      },
      "type": "allergy",
      "category": [ "medication" ],
      "code": {
        "coding": [ {
          "system": "http://www.nlm.nih.gov/research/umls/rxnorm",
          "code": "406524",
          "display": "Doxycycline 75 MG Enteric Coated Tablet"
        }, {
          "system": "urn:oid:2.16.840.1.113883.3.26.1.5",
          "code": "N0000006275",
          "display": "Tetracycline"
        } ],
        "text": "Tetracyclines + Doxycycline 75 MG Enteric Coated Tablet"
      },
      "patient": {
        "reference": "Patient/1591ebca-7d84-4205-93b7-d30ecf324def",
        "display": "Carmen Padilla"
      },
      "recordedDate": "2010-03-31T10:00:00+02:00"
    }
  }, {
    "resource": {
      "resourceType": "MedicationStatement",
      "id": "39e886c6-be89-419f-a345-a4548f75474d",
      "extension": [ {
        "url": "http://hl7.org/fhir/3.0/StructureDefinition/extension-MedicationStatement.status",
        "valueCode": "UNKNOWN"
      } ],
      "identifier": [ {
        "use": "official",
        "value": "cdbd33f0-6cde-11db-9fe1-0800200c9a66"
      } ],
      "status": "completed",
      "medicationReference": {
        "reference": "Medication/4e00d506-7707-409b-a53f-6d83f0c8b6b7",
        "display": "Albuterol 0.417 MG/ML Inhalant Solution"
      },
      "subject": {
        "reference": "Patient/1591ebca-7d84-4205-93b7-d30ecf324def",
        "display": "Carmen Padilla"
      },
      "effectivePeriod": {
        "start": "2010-03-31T10:00:00+02:00"
      }
    }
  }, {
    "resource": {
      "resourceType": "Medication",
      "id": "4e00d506-7707-409b-a53f-6d83f0c8b6b7",
      "code": {
        "coding": [ {
          "system": "http://www.nlm.nih.gov/research/umls/rxnorm",
          "code": "351136",
          "display": "Albuterol 0.417 MG/ML Inhalant Solution"
        } ]
      }
    }
  }, {
    "resource": {
      "resourceType": "MedicationStatement",
      "id": "f0949845-d439-4372-a49b-62c0c777708e",
      "extension": [ {
        "url": "http://hl7.org/fhir/3.0/StructureDefinition/extension-MedicationStatement.status",
        "valueCode": "UNKNOWN"
      } ],
      "identifier": [ {
        "use": "official",
        "value": "cdbd33f0-6cde-11db-9fe1-0800200c9a66"
      } ],
      "status": "completed",
      "medicationReference": {
        "reference": "Medication/fdf047d8-2aac-4fe1-99b0-43c5f6a84fef",
        "display": "exenatide 0.25 MG/ML Injectable Solution"
      },
      "subject": {
        "reference": "Patient/1591ebca-7d84-4205-93b7-d30ecf324def",
        "display": "Carmen Padilla"
      },
      "effectivePeriod": {
        "start": "2010-03-31T10:00:00+02:00"
      }
    }
  }, {
    "resource": {
      "resourceType": "Medication",
      "id": "fdf047d8-2aac-4fe1-99b0-43c5f6a84fef",
      "code": {
        "coding": [ {
          "system": "http://www.nlm.nih.gov/research/umls/rxnorm",
          "code": "744863",
          "display": "exenatide 0.25 MG/ML Injectable Solution"
        } ]
      }
    }
  }, {
    "resource": {
      "resourceType": "MedicationStatement",
      "id": "fa5a6f6c-6751-4b95-aabd-9b625969fc99",
      "extension": [ {
        "url": "http://hl7.org/fhir/3.0/StructureDefinition/extension-MedicationStatement.status",
        "valueCode": "UNKNOWN"
      } ],
      "identifier": [ {
        "use": "official",
        "value": "cdbd33f0-6cde-11db-9fe1-0800200c9a66"
      } ],
      "status": "completed",
      "medicationReference": {
        "reference": "Medication/011cb19b-0a45-498b-9cf9-118cf239e412",
        "display": "Albuterol 0.83 MG/ML Inhalant Solution"
      },
      "subject": {
        "reference": "Patient/1591ebca-7d84-4205-93b7-d30ecf324def",
        "display": "Carmen Padilla"
      },
      "effectivePeriod": {
        "start": "2010-03-31T10:00:00+02:00"
      }
    }
  }, {
    "resource": {
      "resourceType": "Medication",
      "id": "011cb19b-0a45-498b-9cf9-118cf239e412",
      "code": {
        "coding": [ {
          "system": "http://www.nlm.nih.gov/research/umls/rxnorm",
          "code": "630208",
          "display": "Albuterol 0.83 MG/ML Inhalant Solution"
        } ]
      }
    }
  }, {
    "resource": {
      "resourceType": "Observation",
      "id": "045e3cb9-b748-446f-90ff-a30b5dcfd858",
      "identifier": [ {
        "use": "official",
        "value": "c6f88321-67ad-11db-bd13-0800200c9a66"
      } ],
      "status": "final",
      "category": [ {
        "coding": [ {
          "system": "http://terminology.hl7.org/CodeSystem/observation-category",
          "code": "vital-signs",
          "display": "Vital Signs"
        } ]
      } ],
      "code": {
        "coding": [ {
          "system": "http://loinc.org",
          "code": "8462-4",
          "display": "BP Diastolic"
        } ]
      },
      "subject": {
        "reference": "Patient/1591ebca-7d84-4205-93b7-d30ecf324def",
        "display": "Carmen Padilla"
      },
      "effectivePeriod": {
        "start": "2010-03-31T10:00:00+02:00"
      },
      "valueQuantity": {
        "value": 84,
        "unit": "mm[Hg]",
        "system": "http://unitsofmeasure.org",
        "code": "mm[Hg]"
      }
    }
  }, {
    "resource": {
      "resourceType": "Observation",
      "id": "8d34dc46-0b8a-44f6-84f7-495839d61388",
      "identifier": [ {
        "use": "official",
        "value": "c6f88321-67ad-11db-bd13-0800200c9a66"
      } ],
      "status": "final",
      "category": [ {
        "coding": [ {
          "system": "http://terminology.hl7.org/CodeSystem/observation-category",
          "code": "vital-signs",
          "display": "Vital Signs"
        } ]
      } ],
      "code": {
        "coding": [ {
          "system": "http://loinc.org",
          "code": "8480-6",
          "display": "BP Systolic"
        } ]
      },
      "subject": {
        "reference": "Patient/1591ebca-7d84-4205-93b7-d30ecf324def",
        "display": "Carmen Padilla"
      },
      "effectivePeriod": {
        "start": "2010-03-31T10:00:00+02:00"
      },
      "valueQuantity": {
        "value": 134,
        "unit": "mm[Hg]",
        "system": "http://unitsofmeasure.org",
        "code": "mm[Hg]"
      }
    }
  }, {
    "resource": {
      "resourceType": "Observation",
      "id": "4fdf8436-2e79-401b-b1a9-4b21af733d18",
      "identifier": [ {
        "use": "official",
        "value": "c6f88321-67ad-11db-bd13-0800200c9a66"
      } ],
      "status": "final",
      "category": [ {
        "coding": [ {
          "system": "http://terminology.hl7.org/CodeSystem/observation-category",
          "code": "vital-signs",
          "display": "Vital Signs"
        } ]
      } ],
      "code": {
        "coding": [ {
          "system": "http://loinc.org",
          "code": "39156-5",
          "display": "BMI"
        } ]
      },
      "subject": {
        "reference": "Patient/1591ebca-7d84-4205-93b7-d30ecf324def",
        "display": "Carmen Padilla"
      },
      "effectivePeriod": {
        "start": "2010-03-31T10:00:00+02:00"
      },
      "valueQuantity": {
        "value": 29.4,
        "unit": "kg/m2",
        "system": "http://unitsofmeasure.org",
        "code": "kg/m2"
      }
    }
  }, {
    "resource": {
      "resourceType": "Observation",
      "id": "80c1433f-5066-4bdf-91c6-dc9711ed7ece",
      "identifier": [ {
        "use": "official",
        "value": "c6f88321-67ad-11db-bd13-0800200c9a66"
      } ],
      "status": "final",
      "category": [ {
        "coding": [ {
          "system": "http://terminology.hl7.org/CodeSystem/observation-category",
          "code": "vital-signs",
          "display": "Vital Signs"
        } ]
      } ],
      "code": {
        "coding": [ {
          "system": "http://loinc.org",
          "code": "39156-5",
          "display": "BMI"
        } ]
      },
      "subject": {
        "reference": "Patient/1591ebca-7d84-4205-93b7-d30ecf324def",
        "display": "Carmen Padilla"
      },
      "effectivePeriod": {
        "start": "2010-06-05T10:00:00+02:00"
      },
      "valueQuantity": {
        "value": 30.1,
        "unit": "kg/m2",
        "system": "http://unitsofmeasure.org",
        "code": "kg/m2"
      }
    }
  }, {
    "resource": {
      "resourceType": "Observation",
      "id": "fa300e8b-2805-4b53-80d2-eb41762629a7",
      "identifier": [ {
        "use": "official",
        "value": "c6f88321-67ad-11db-bd13-0800200c9a66"
      } ],
      "status": "final",
      "category": [ {
        "coding": [ {
          "system": "http://terminology.hl7.org/CodeSystem/observation-category",
          "code": "vital-signs",
          "display": "Vital Signs"
        } ]
      } ],
      "code": {
        "coding": [ {
          "system": "http://loinc.org",
          "code": "8462-4",
          "display": "BP Diastolic"
        } ]
      },
      "subject": {
        "reference": "Patient/1591ebca-7d84-4205-93b7-d30ecf324def",
        "display": "Carmen Padilla"
      },
      "effectivePeriod": {
        "start": "2010-06-05T10:00:00+02:00"
      },
      "valueQuantity": {
        "value": 84,
        "unit": "mm[Hg]",
        "system": "http://unitsofmeasure.org",
        "code": "mm[Hg]"
      }
    }
  }, {
    "resource": {
      "resourceType": "Observation",
      "id": "5a8932b7-a868-40f2-9659-d8d2bb3dd3b6",
      "identifier": [ {
        "use": "official",
        "value": "c6f88321-67ad-11db-bd13-0800200c9a66"
      } ],
      "status": "final",
      "category": [ {
        "coding": [ {
          "system": "http://terminology.hl7.org/CodeSystem/observation-category",
          "code": "vital-signs",
          "display": "Vital Signs"
        } ]
      } ],
      "code": {
        "coding": [ {
          "system": "http://loinc.org",
          "code": "8480-6",
          "display": "BP Systolic"
        } ]
      },
      "subject": {
        "reference": "Patient/1591ebca-7d84-4205-93b7-d30ecf324def",
        "display": "Carmen Padilla"
      },
      "effectivePeriod": {
        "start": "2010-06-05T10:00:00+02:00"
      },
      "valueQuantity": {
        "value": 136,
        "unit": "mm[Hg]",
        "system": "http://unitsofmeasure.org",
        "code": "mm[Hg]"
      }
    }
  }, {
    "resource": {
      "resourceType": "Observation",
      "id": "26e13185-81d3-4495-a919-bc9fec277bf6",
      "identifier": [ {
        "use": "official",
        "value": "c6f88321-67ad-11db-bd13-0800200c9a66"
      } ],
      "status": "final",
      "category": [ {
        "coding": [ {
          "system": "http://terminology.hl7.org/CodeSystem/observation-category",
          "code": "vital-signs",
          "display": "Vital Signs"
        } ]
      } ],
      "code": {
        "coding": [ {
          "system": "http://loinc.org",
          "code": "39156-5",
          "display": "BMI"
        } ]
      },
      "subject": {
        "reference": "Patient/1591ebca-7d84-4205-93b7-d30ecf324def",
        "display": "Carmen Padilla"
      },
      "effectivePeriod": {
        "start": "2010-12-02T10:00:00+01:00"
      },
      "valueQuantity": {
        "value": 28.7,
        "unit": "kg/m2",
        "system": "http://unitsofmeasure.org",
        "code": "kg/m2"
      }
    }
  }, {
    "resource": {
      "resourceType": "Observation",
      "id": "bd2a0672-10ca-440c-9b45-6b3595dcf4b0",
      "identifier": [ {
        "use": "official",
        "value": "c6f88321-67ad-11db-bd13-0800200c9a66"
      } ],
      "status": "final",
      "category": [ {
        "coding": [ {
          "system": "http://terminology.hl7.org/CodeSystem/observation-category",
          "code": "vital-signs",
          "display": "Vital Signs"
        } ]
      } ],
      "code": {
        "coding": [ {
          "system": "http://loinc.org",
          "code": "8462-4",
          "display": "BP Diastolic"
        } ]
      },
      "subject": {
        "reference": "Patient/1591ebca-7d84-4205-93b7-d30ecf324def",
        "display": "Carmen Padilla"
      },
      "effectivePeriod": {
        "start": "2010-12-02T10:00:00+01:00"
      },
      "valueQuantity": {
        "value": 94,
        "unit": "mm[Hg]",
        "system": "http://unitsofmeasure.org",
        "code": "mm[Hg]"
      }
    }
  }, {
    "resource": {
      "resourceType": "Observation",
      "id": "06a75f92-4653-40db-902f-0b44a3660fa4",
      "identifier": [ {
        "use": "official",
        "value": "c6f88321-67ad-11db-bd13-0800200c9a66"
      } ],
      "status": "final",
      "category": [ {
        "coding": [ {
          "system": "http://terminology.hl7.org/CodeSystem/observation-category",
          "code": "vital-signs",
          "display": "Vital Signs"
        } ]
      } ],
      "code": {
        "coding": [ {
          "system": "http://loinc.org",
          "code": "8480-6",
          "display": "BP Systolic"
        } ]
      },
      "subject": {
        "reference": "Patient/1591ebca-7d84-4205-93b7-d30ecf324def",
        "display": "Carmen Padilla"
      },
      "effectivePeriod": {
        "start": "2010-12-02T10:00:00+01:00"
      },
      "valueQuantity": {
        "value": 146,
        "unit": "mm[Hg]",
        "system": "http://unitsofmeasure.org",
        "code": "mm[Hg]"
      }
    }
  }, {
    "resource": {
      "resourceType": "Observation",
      "id": "77d450ee-4c25-4f9f-9616-7bdcf8902d49",
      "identifier": [ {
        "use": "official",
        "value": "c6f88321-67ad-11db-bd13-0800200c9a66"
      } ],
      "status": "final",
      "category": [ {
        "coding": [ {
          "system": "http://terminology.hl7.org/CodeSystem/observation-category",
          "code": "vital-signs",
          "display": "Vital Signs"
        } ]
      } ],
      "code": {
        "coding": [ {
          "system": "http://loinc.org",
          "code": "8462-4",
          "display": "BP Diastolic"
        } ]
      },
      "subject": {
        "reference": "Patient/1591ebca-7d84-4205-93b7-d30ecf324def",
        "display": "Carmen Padilla"
      },
      "effectivePeriod": {
        "start": "2010-09-15T10:00:00+02:00"
      },
      "valueQuantity": {
        "value": 88,
        "unit": "mm[Hg]",
        "system": "http://unitsofmeasure.org",
        "code": "mm[Hg]"
      }
    }
  }, {
    "resource": {
      "resourceType": "Observation",
      "id": "fe6ff1f0-0c93-4315-a407-993054bd57a7",
      "identifier": [ {
        "use": "official",
        "value": "c6f88321-67ad-11db-bd13-0800200c9a66"
      } ],
      "status": "final",
      "category": [ {
        "coding": [ {
          "system": "http://terminology.hl7.org/CodeSystem/observation-category",
          "code": "vital-signs",
          "display": "Vital Signs"
        } ]
      } ],
      "code": {
        "coding": [ {
          "system": "http://loinc.org",
          "code": "39156-5",
          "display": "BMI"
        } ]
      },
      "subject": {
        "reference": "Patient/1591ebca-7d84-4205-93b7-d30ecf324def",
        "display": "Carmen Padilla"
      },
      "effectivePeriod": {
        "start": "2010-09-15T10:00:00+02:00"
      },
      "valueQuantity": {
        "value": 29.4,
        "unit": "kg/m2",
        "system": "http://unitsofmeasure.org",
        "code": "kg/m2"
      }
    }
  }, {
    "resource": {
      "resourceType": "Observation",
      "id": "bb7dc787-3784-4218-a2b7-52eb32cd7244",
      "identifier": [ {
        "use": "official",
        "value": "c6f88321-67ad-11db-bd13-0800200c9a66"
      } ],
      "status": "final",
      "category": [ {
        "coding": [ {
          "system": "http://terminology.hl7.org/CodeSystem/observation-category",
          "code": "vital-signs",
          "display": "Vital Signs"
        } ]
      } ],
      "code": {
        "coding": [ {
          "system": "http://loinc.org",
          "code": "8480-6",
          "display": "BP Systolic"
        } ]
      },
      "subject": {
        "reference": "Patient/1591ebca-7d84-4205-93b7-d30ecf324def",
        "display": "Carmen Padilla"
      },
      "effectivePeriod": {
        "start": "2010-09-15T10:00:00+02:00"
      },
      "valueQuantity": {
        "value": 138,
        "unit": "mm[Hg]",
        "system": "http://unitsofmeasure.org",
        "code": "mm[Hg]"
      }
    }
  } ]
}