{
  "resourceType": "Bundle",
  "entry": [ {
    "resource": {
      "resourceType": "Composition",
      "id": "674bc541-94e6-4330-b15e-808a3be231f7",
      "identifier": {
        "use": "official",
        "system": "urn:oid:1.3.6.1.4.1.22812.3.99930.3.1",
        "value": "66670992"
      },
      "status": "preliminary",
      "type": {
        "coding": [ {
          "system": "http://loinc.org",
          "code": "34133-9",
          "display": "SUMMARIZATION OF EPISODE NOTE"
        } ]
      },
      "category": [ {
        "coding": [ {
          "system": "http://hl7.org/fhir/ValueSet/doc-classcodes",
          "code": "LP173421-7",
          "display": "Note"
        } ]
      } ],
      "subject": {
        "reference": "Patient/0ad74377-a3f8-4b1d-8b20-3dcb3200efc6",
        "display": "Adam Everyman"
      },
      "date": "2013-01-30T08:00:51-05:00",
      "author": [ {
        "reference": "Practitioner/2b582b68-6731-4d93-8b07-33684c86091d",
        "display": "Dr Henry L Seven"
      }, {
        "reference": "Device/bc10268d-5d36-426e-b65c-707ed6beb40d"
      } ],
      "title": "Summary of Care",
      "confidentiality": "V",
      "attester": [ {
        "mode": "legal",
        "time": "2013-01-30T08:00:51-05:00",
        "party": {
          "reference": "Practitioner/2b582b68-6731-4d93-8b07-33684c86091d",
          "display": "Dr Henry L Seven"
        }
      }, {
        "mode": "professional",
        "time": "2013-01-30T08:00:51-05:00",
        "party": {
          "reference": "Practitioner/2b582b68-6731-4d93-8b07-33684c86091d",
          "display": "Dr Henry L Seven"
        }
      } ],
      "custodian": {
        "reference": "Organization/38e6aea5-8c85-4794-80fa-47ba4bdfc638",
        "display": "Get Well Clinic"
      },
      "event": [ {
        "period": {
          "start": "2013-01-30T09:00:51+01:00",
          "end": "2013-01-30T08:00:51-05:00"
        },
        "detail": [ {
          "reference": "Practitioner/2b582b68-6731-4d93-8b07-33684c86091d",
          "display": "Dr Henry L Seven"
        }, {
          "reference": "Practitioner/ff3d59ca-cca1-42d1-8f40-0a07167d6a8a",
          "display": "Dr Penny Puffer"
        } ]
      } ],
      "section": [ {
        "title": "Social History",
        "code": {
          "coding": [ {
            "system": "http://loinc.org",
            "code": "29762-2",
            "display": "Social History"
          } ]
        },
        "text": {
          "status": "additional",
          "div": "<div xmlns=\"http://www.w3.org/1999/xhtml\"><ul><caption>Smoking Status</caption><li><span>Never smoker</span><span> Started 2011</span></li><li><span>Current some day smoker</span><span> Started 2012</span></li></ul></div>"
        },
        "mode": "snapshot",
        "entry": [ {
          "reference": "Observation/1f573b84-bc98-4f61-83c5-4f9134cde2cc",
          "display": "Assertion"
        }, {
          "reference": "Observation/01ba8560-dee0-4118-b4a2-58f2bbde03ce",
          "display": "Assertion"
        } ]
      }, {
        "title": "Functional Status",
        "code": {
          "coding": [ {
            "system": "http://loinc.org",
            "code": "47420-5",
            "display": "Functional Status"
          } ]
        },
        "text": {
          "status": "additional",
          "div": "<div xmlns=\"http://www.w3.org/1999/xhtml\"><ul><caption>Functional Status Health Issues</caption><li><table><thead><tr><th>Name</th><th>Dates</th><th>Details</th></tr></thead><tbody><tr><td><span><span>No Functional Impairment</span></span><span><span/></span><span><br/></span></td><td><span><span>Onset<span>:</span></span><span>30-Jan-2013</span></span></td><td><span><span><span>Status: </span><span/></span></span></td></tr></tbody></table></li></ul><ul><caption>Cognitive Status Health Issues</caption><li><table><thead><tr><th>Name</th><th>Dates</th><th>Details</th></tr></thead><tbody><tr><td><span><span>No Cognitive Impairment</span></span><span><span/></span><span><br/></span></td><td><span><span>Onset<span>:</span></span><span>30-Jan-2013</span></span></td><td><span><span><span>Status: </span><span/></span></span></td></tr></tbody></table></li></ul></div>"
        },
        "mode": "snapshot"
      }, {
        "title": "Allergies and Adverse Reactions",
        "code": {
          "coding": [ {
            "system": "http://loinc.org",
            "code": "48765-2",
            "display": "Allergies, adverse reactions, alerts"
          } ]
        },
        "text": {
          "status": "additional",
          "div": "<div xmlns=\"http://www.w3.org/1999/xhtml\"><table><thead><tr><th>Name</th><th>Dates</th><th>Details</th></tr></thead><tbody><tr><td><span><span>Penicillin G benzathine</span></span></td><td><span><span><span>Onset<span>:</span></span><span>10-Jan-1998</span></span></span></td><td><span><span><span>Reaction: </span><span>Hives</span></span></span><span><br/></span><span><span>Status: </span><span>Active</span></span></td></tr><tr><td><span><span>Codeine</span></span></td><td><span><span><span>Onset<span>:</span></span><span>10-Jan-2001</span></span></span></td><td><span><span><span>Reaction: </span><span>Anaphylaxis</span></span></span><span><br/></span><span><span>Status: </span><span>Active</span></span></td></tr><tr><td><span><span>Aspirin</span></span></td><td><span><span><span>Onset<span>:</span></span><span>10-Jan-2011</span></span></span></td><td><span><span><span>Reaction: </span><span>Swelling</span></span></span><span><br/></span><span><span>Status: </span><span>Active</span></span></td></tr></tbody></table></div>"
        },
        "mode": "snapshot",
        "entry": [ {
          "reference": "AllergyIntolerance/3ac9375a-19a9-48dd-b633-98c5db4051c6",
          "display": "Aspirin"
        }, {
          "reference": "AllergyIntolerance/80d3a979-0335-4326-bd87-4db2f2ce4e40",
          "display": "Penicillin G benzathine"
        }, {
          "reference": "AllergyIntolerance/7309ad4b-4ce7-4002-96b7-f02e3e4613c5",
          "display": "Codeine"
        } ]
      }, {
        "title": "Results",
        "code": {
          "coding": [ {
            "system": "http://loinc.org",
            "code": "30954-2",
            "display": "Relevant diagnostic tests and/or laboratory data"
          } ]
        },
        "text": {
          "status": "additional",
          "div": "<div xmlns=\"http://www.w3.org/1999/xhtml\"><table><thead><tr><th>Date</th><th>Description</th><th>Value</th><th>Details</th></tr></thead><tbody><tr><td><span>Resulted on:</span><span><br/></span><span>30-Jan-2013 09:33</span></td><td colspan=\"2\"><span>CBC</span></td><td/><td/></tr><tr><td/><td><span>HGB</span></td><td><span>14.5  g/dl</span></td><td/></tr><tr><td/><td><span>HCT</span></td><td><span>50  %</span></td><td/></tr><tr><td/><td><span>WBC</span></td><td><span>5.2  10^3/ul</span></td><td/></tr><tr><td/><td><span>PLT</span></td><td><span>388  10^3/ul</span></td><td/></tr></tbody></table></div>"
        },
        "mode": "snapshot",
        "entry": [ {
          "reference": "DiagnosticReport/888dc7e6-0589-4739-93fb-91f361a850b0",
          "display": "CBC"
        } ]
      }, {
        "title": "Procedures",
        "code": {
          "coding": [ {
            "system": "http://loinc.org",
            "code": "47519-4",
            "display": "History of Procedures"
          } ]
        },
        "text": {
          "status": "additional",
          "div": "<div xmlns=\"http://www.w3.org/1999/xhtml\"><table><thead><tr><th>Procedure</th><th>Dates</th><th>Details</th></tr></thead><tbody><tr><td><span>No Known Procedures</span></td><td/><td/></tr></tbody></table></div>"
        },
        "mode": "snapshot",
        "entry": [ {
          "reference": "Procedure/1c607fff-6a87-40ee-882d-68cdbc7c2c01"
        } ]
      }, {
        "title": "Medications",
        "code": {
          "coding": [ {
            "system": "http://loinc.org",
            "code": "10160-0",
            "display": "History of medication use"
          } ]
        },
        "text": {
          "status": "additional",
          "div": "<div xmlns=\"http://www.w3.org/1999/xhtml\"><table><thead><tr><th>Name</th><th>Dates</th><th>Details</th></tr></thead><tbody><tr><td><span><span>Azithromycin 250 MG Oral Tablet</span></span><span><br/></span><span><span><span>TAKE DAILY AS DIRECTED.</span></span></span><span><br/></span><span><span><span>Take 500 mg on day 1, then 250 mg tablet once daily for next 4 days</span></span></span></td><td><span><br/></span><span><span> Seven</span>, Henry Dr </span></td><td><ul><li><table><tbody><tr><td><span> Started </span>30-Jan-2013</td><td><span> Ended </span>3-Feb-2013</td></tr></tbody></table></li></ul><span><span/><span>Active</span></span><span><span> Indication : </span><span>Pneumonia</span></span><span><br/></span></td></tr><tr><td><span><span>Proventil 0.09 MG/ACTUAT metered dose</span></span><span><br/></span><span><span><span>TWO PUFFS Q6H PRN WHEEZING</span></span></span><span><br/></span><span><span><span>Two puffs every six hours as needed for wheezing</span></span></span></td><td/><td><ul><li><table><tbody><tr><td><span> Started </span>19-Feb-2012</td></tr></tbody></table></li></ul><span><span/><span>Active</span></span></td></tr></tbody></table></div>"
        },
        "mode": "snapshot"
      }, {
        "title": "Problems",
        "code": {
          "coding": [ {
            "system": "http://loinc.org",
            "code": "11450-4",
            "display": "Problem List"
          } ]
        },
        "text": {
          "status": "additional",
          "div": "<div xmlns=\"http://www.w3.org/1999/xhtml\"><table><thead><tr><th>Name</th><th>Dates</th><th>Details</th></tr></thead><tbody><tr><td><span><span>Essential Hypertension</span></span><span><span/></span><span><br/></span></td><td><span><span>Onset<span>:</span></span><span>30-Mar-2012</span></span></td><td><span><span><span>Status: </span><span>Active</span></span></span></td></tr><tr><td><span><span>Pneumonia</span></span><span><span/></span><span><br/></span></td><td><span><span>Onset<span>:</span></span><span>30-Jan-2013</span></span></td><td><span><span><span>Status: </span><span>Active</span></span></span></td></tr><tr><td><span><span>Asthma</span></span><span><span/></span><span><br/></span></td><td><span><span>Onset<span>:</span></span><span>25-Sep-2011</span></span></td><td><span><span><span>Status: </span><span>Active</span></span></span></td></tr></tbody></table></div>"
        },
        "mode": "snapshot",
        "entry": [ {
          "reference": "Condition/4f458f7c-d089-4613-9333-b50a4d96febf",
          "display": "Essential Hypertension"
        }, {
          "reference": "Condition/f77193e4-290d-412f-95a1-c99fb36a0b93",
          "display": "Pneumonia"
        }, {
          "reference": "Condition/7e250765-174e-4bd4-a4e6-78e6602c3e48",
          "display": "Asthma"
        } ]
      }, {
        "title": "Plan of Care",
        "code": {
          "coding": [ {
            "system": "http://loinc.org",
            "code": "18776-5",
            "display": "Plan of Care"
          } ]
        },
        "text": {
          "status": "additional",
          "div": "<div xmlns=\"http://www.w3.org/1999/xhtml\"><ul><caption>Planned Observations</caption><li><table><thead><tr><th>Name</th><th>Dates</th><th>Details</th></tr></thead><tbody><tr><td><span><span><span>Goal: Weight Loss</span></span></span></td><td><span><span>On </span><span>30-Mar-2012</span></span><span><br/></span><span><span/></span></td><td><span><span>Goal</span></span></td></tr><tr><td><span><span><span>Goal: Smoking Cessation</span></span></span></td><td><span><span>On </span><span>30-Mar-2012</span></span><span><br/></span><span><span/></span></td><td><span><span>Goal</span></span></td></tr></tbody></table></li></ul><ul><caption>Planned Encounters</caption><li><table><tbody><tr><td><span><span>Pulmonary function Tests</span></span><span><br/></span><span><span>Encounter Reason: </span><span>Pulmonary function Tests (reason)</span></span><span><span>Dr. Penny Puffer Office - need office address</span></span><span><br/></span><span><br/></span><span><span> Puffer</span>, Penny Dr </span></td><td><span><span>On </span><span>6-Feb-2013</span></span><span><br/></span><span><span>00:00</span></span></td></tr></tbody></table></li></ul><ul><caption>Planned Procedures</caption><li><table><thead><tr><th>Name</th><th>Dates</th><th>Details</th></tr></thead><tbody><tr><td><span><span><span>Chest X-Ray, PA and Lateral Views</span></span></span><span><span>By: </span><span><span> Seven</span>, Henry Dr </span></span></td><td><span>On </span><span>30-Jan-2013</span></td><td><span><span>Request</span></span><span>Site: </span><span>Lower Respiratory Tract Structure</span></td></tr></tbody></table></li></ul></div>"
        },
        "mode": "snapshot",
        "entry": [ {
          "reference": "CarePlan/870f0f90-b5f2-4105-80f1-fd06db4bed4b"
        } ]
      }, {
        "title": "Immunization",
        "code": {
          "coding": [ {
            "system": "http://loinc.org",
            "code": "11369-6",
            "display": "Immunizations"
          } ]
        },
        "text": {
          "status": "additional",
          "div": "<div xmlns=\"http://www.w3.org/1999/xhtml\"><table><thead><tr><th>Name</th><th>Dates</th><th>Details</th></tr></thead><tbody><tr><td><span><span>Influenza virus vaccine</span></span><span><br/></span></td><td><span><span>Administered on<span>:</span></span><span>30-Mar-2012</span></span></td><td><span><span> Site: </span><span><span>Left Arm</span></span></span><span><br/></span></td></tr></tbody></table></div>"
        },
        "mode": "snapshot",
        "entry": [ {
          "reference": "Immunization/38c584cf-a71a-4ab8-ba08-45e6aba3a6e9",
          "display": "Influenza virus vaccine"
        } ]
      }, {
        "title": "Encounters",
        "code": {
          "coding": [ {
            "system": "http://loinc.org",
            "code": "46240-8",
            "display": "Encounters"
          } ]
        },
        "text": {
          "status": "additional",
          "div": "<div xmlns=\"http://www.w3.org/1999/xhtml\"><table><tbody><tr><td><span><span>Offie Visit</span></span><span><br/></span><span><span>Encounter Diagnosis: </span><span>Pneumonia</span></span><span><span><span>Active</span></span></span><span><span>Get Well Clinic</span></span><span><br/></span><span><br/></span><span><span> Seven</span>, Henry Dr </span></td><td><span><span>On </span><span>30-Jan-2013</span></span><span><br/></span><span><span>09:00</span></span></td></tr><tr><td><span><span>Offie Visit</span></span><span><br/></span><span><span>Encounter Diagnosis: </span><span>Essential hypertension</span></span><span><span><span>Active</span></span></span><span><span>Get Well Clinic</span></span><span><br/></span><span><br/></span><span><span> Seven</span>, Henry Dr </span></td><td><span><span>On </span><span>30-Mar-2012</span></span><span><br/></span><span><span>09:00</span></span></td></tr><tr><td><span><span>Office Visit</span></span><span><br/></span><span><span>Encounter Diagnosis: </span><span>Asthma</span></span><span><span><span>Active</span></span></span><span><span>Get Well Clinic</span></span><span><br/></span><span><br/></span><span><span> Seven</span>, Henry Dr </span></td><td><span><span>On </span><span>25-Sep-2011</span></span><span><br/></span><span><span>09:00</span></span></td></tr></tbody></table></div>"
        },
        "mode": "snapshot",
        "entry": [ {
          "reference": "Encounter/4351a0db-4d3b-45d8-9725-eff44452cdc4",
          "display": "Office Visit"
        }, {
          "reference": "Encounter/430c40cd-fddf-401f-847b-1d1198cb2283",
          "display": "Offie Visit"
        }, {
          "reference": "Encounter/c8985624-42dd-4b0a-afd8-8b3c13f1e0bf",
          "display": "Offie Visit"
        } ]
      } ]
    }
  }, {
    "resource": {
      "resourceType": "Patient",
      "id": "0ad74377-a3f8-4b1d-8b20-3dcb3200efc6",
      "extension": [ {
        "url": "http://hl7.org/fhir/us/core/StructureDefinition/us-core-race",
        "extension": [ {
          "url": "text",
          "valueString": "White"
        }, {
          "url": "ombCategory",
          "valueCoding": {
            "system": "urn:oid:2.16.840.1.113883.6.238",
            "code": "2106-3",
            "display": "White"
          }
        } ]
      }, {
        "url": "http://hl7.org/fhir/us/core/StructureDefinition/us-core-ethnicity",
        "extension": [ {
          "url": "text",
          "valueString": "Not Hispanic or Latino"
        }, {
          "url": "ombCategory",
          "valueCoding": {
            "system": "urn:oid:2.16.840.1.113883.6.238",
            "code": "2186-5",
            "display": "Not Hispanic or Latino"
          }
        } ]
      } ],
      "identifier": [ {
        "use": "official",
        "system": "urn:oid:1.3.6.1.4.1.22812.3.99930.3",
        "value": "110107073916280"
      } ],
      "name": [ {
        "family": "Everyman",
        "given": [ "Adam" ]
      } ],
      "telecom": [ {
        "system": "phone",
        "value": "+1-(555)555-3333",
        "use": "home"
      } ],
      "gender": "male",
      "birthDate": "1962-10-22",
      "address": [ {
        "use": "home",
        "line": [ "1234 Six Forks" ],
        "city": "Portland",
        "state": "OR",
        "postalCode": "97005",
        "country": "US"
      } ],
      "communication": [ {
        "language": {
          "coding": [ {
            "system": "urn:ietf:bcp:47",
            "code": "eng"
          } ]
        },
        "preferred": true
      } ],
      "managingOrganization": {
        "reference": "Organization/38e6aea5-8c85-4794-80fa-47ba4bdfc638",
        "display": "Get Well Clinic"
      }
    }
  }, {
    "resource": {
      "resourceType": "Organization",
      "id": "38e6aea5-8c85-4794-80fa-47ba4bdfc638",
      "identifier": [ {
        "use": "official",
        "system": "urn:oid:1.3.6.1.4.1.22812.3.99930.3",
        "value": "3"
      } ],
      "name": "Get Well Clinic",
      "telecom": [ {
        "system": "phone",
        "value": "+1-(555)555-1009"
      } ],
      "address": [ {
        "line": [ "Get Well Clinic", "1009 Healthcare Dr." ],
        "city": "Portland",
        "state": "OR",
        "postalCode": "97005",
        "country": "US"
      } ]
    }
  }, {
    "resource": {
      "resourceType": "Practitioner",
      "id": "2b582b68-6731-4d93-8b07-33684c86091d",
      "identifier": [ {
        "use": "official",
        "system": "urn:oid:2.16.840.1.113883.4.6",
        "value": "1111111111"
      }, {
        "use": "official",
        "system": "urn:oid:1.3.6.1.4.1.22812.3.99930.3",
        "value": "91138"
      } ],
      "name": [ {
        "family": "Seven",
        "given": [ "Henry", "L" ],
        "prefix": [ "Dr" ]
      } ],
      "telecom": [ {
        "system": "phone",
        "value": "+1-(555)555-1002"
      } ],
      "address": [ {
        "line": [ "Get Well Clinic", "1002 Healthcare Dr." ],
        "city": "Portland",
        "state": "OR",
        "postalCode": "97005",
        "country": "US"
      } ]
    }
  }, {
    "resource": {
      "resourceType": "Device",
      "id": "bc10268d-5d36-426e-b65c-707ed6beb40d",
      "identifier": [ {
        "use": "official",
        "system": "urn:oid:1.3.6.1.4.1.22812.3.99930.3.3.3",
        "value": "3"
      } ],
      "manufacturer": "Enterprise EHR Clinical System 11.200.4210.17305",
      "type": {
        "coding": [ {
          "display": "Enterprise EHR Clinical System 11.200.4210.17305"
        } ]
      },
      "version": [ {
        "value": "Enterprise EHR Clinical System 11.200.4210.17305; Transform 4.1.1.18"
      } ],
      "owner": {
        "reference": "Organization/38e6aea5-8c85-4794-80fa-47ba4bdfc638"
      }
    }
  }, {
    "resource": {
      "resourceType": "Practitioner",
      "id": "ff3d59ca-cca1-42d1-8f40-0a07167d6a8a",
      "identifier": [ {
        "use": "official",
        "system": "http://hl7.org/fhir/sid/us-npi",
        "value": "2222222222"
      } ],
      "name": [ {
        "family": "Puffer",
        "given": [ "Penny" ],
        "prefix": [ "Dr" ]
      } ],
      "telecom": [ {
        "system": "phone",
        "value": "+1-(555)555-1049"
      } ],
      "address": [ {
        "line": [ "1047 Healthcare Drive" ],
        "city": "Portland",
        "state": "OR",
        "postalCode": "97005",
        "country": "US"
      } ]
    }
  }, {
    "resource": {
      "resourceType": "Observation",
      "id": "1f573b84-bc98-4f61-83c5-4f9134cde2cc",
      "status": "final",
      "code": {
        "coding": [ {
          "system": "urn:oid:2.16.840.1.113883.5.4",
          "code": "ASSERTION",
          "display": "Assertion"
        } ]
      },
      "subject": {
        "reference": "Patient/0ad74377-a3f8-4b1d-8b20-3dcb3200efc6",
        "display": "Adam Everyman"
      },
      "effectivePeriod": {
        "start": "2011"
      },
      "issued": "2011-09-25T10:00:51+02:00",
      "performer": [ {
        "reference": "Practitioner/48b818c9-cae7-4d1a-91f7-824ad9b820db"
      } ],
      "valueCodeableConcept": {
        "coding": [ {
          "system": "http://snomed.info/sct",
          "code": "266919005",
          "display": "Never smoker"
        } ]
      }
    }
  }, {
    "resource": {
      "resourceType": "Practitioner",
      "id": "48b818c9-cae7-4d1a-91f7-824ad9b820db"
    }
  }, {
    "resource": {
      "resourceType": "Observation",
      "id": "01ba8560-dee0-4118-b4a2-58f2bbde03ce",
      "status": "final",
      "code": {
        "coding": [ {
          "system": "urn:oid:2.16.840.1.113883.5.4",
          "code": "ASSERTION",
          "display": "Assertion"
        } ]
      },
      "subject": {
        "reference": "Patient/0ad74377-a3f8-4b1d-8b20-3dcb3200efc6",
        "display": "Adam Everyman"
      },
      "effectivePeriod": {
        "start": "2012"
      },
      "issued": "2012-03-30T10:00:51+02:00",
      "performer": [ {
        "reference": "Practitioner/d0c617b1-0d89-41cf-8dfc-abc0e0b0c572"
      } ],
      "valueCodeableConcept": {
        "coding": [ {
          "system": "http://snomed.info/sct",
          "code": "428041000124106",
          "display": "Current some day smoker"
        } ]
      }
    }
  }, {
    "resource": {
      "resourceType": "Practitioner",
      "id": "d0c617b1-0d89-41cf-8dfc-abc0e0b0c572"
    }
  }, {
    "resource": {
      "resourceType": "AllergyIntolerance",
      "id": "3ac9375a-19a9-48dd-b633-98c5db4051c6",
      "identifier": [ {
        "use": "official",
        "system": "urn:oid:1.3.6.1.4.1.22812.3.99930.3.4.10",
        "value": "6136187001071"
      }, {
        "use": "official",
        "system": "urn:oid:1.3.6.1.4.1.22812.3.99930.3.4.10",
        "value": "6136187001091"
      } ],
      "clinicalStatus": {
        "coding": [ {
          "system": "http://terminology.hl7.org/CodeSystem/allergyintolerance-clinical",
          "code": "active",
          "display": "Active"
        } ]
      },
      "verificationStatus": {
        "coding": [ {
          "system": "http://terminology.hl7.org/CodeSystem/allergyintolerance-verification",
          "code": "confirmed",
          "display": "Confirmed"
        } ]
      },
      "type": "allergy",
      "category": [ "medication" ],
      "code": {
        "coding": [ {
          "system": "http://www.nlm.nih.gov/research/umls/rxnorm",
          "code": "1191",
          "display": "Aspirin"
        } ],
        "text": "Aspirin"
      },
      "patient": {
        "reference": "Patient/0ad74377-a3f8-4b1d-8b20-3dcb3200efc6",
        "display": "Adam Everyman"
      },
      "onsetDateTime": "2011-01-10",
      "recordedDate": "2011-01-10",
      "recorder": {
        "reference": "Practitioner/c75d152c-41e7-419d-a50a-80107f66ed92"
      },
      "reaction": [ {
        "manifestation": [ {
          "coding": [ {
            "system": "http://snomed.info/sct",
            "code": "65124004",
            "display": "Swelling"
          } ],
          "text": "Swelling"
        } ]
      } ]
    }
  }, {
    "resource": {
      "resourceType": "Practitioner",
      "id": "c75d152c-41e7-419d-a50a-80107f66ed92"
    }
  }, {
    "resource": {
      "resourceType": "AllergyIntolerance",
      "id": "80d3a979-0335-4326-bd87-4db2f2ce4e40",
      "identifier": [ {
        "use": "official",
        "system": "urn:oid:1.3.6.1.4.1.22812.3.99930.3.4.10",
        "value": "613618700107"
      }, {
        "use": "official",
        "system": "urn:oid:1.3.6.1.4.1.22812.3.99930.3.4.10",
        "value": "613618700109"
      } ],
      "clinicalStatus": {
        "coding": [ {
          "system": "http://terminology.hl7.org/CodeSystem/allergyintolerance-clinical",
          "code": "active",
          "display": "Active"
        } ]
      },
      "verificationStatus": {
        "coding": [ {
          "system": "http://terminology.hl7.org/CodeSystem/allergyintolerance-verification",
          "code": "confirmed",
          "display": "Confirmed"
        } ]
      },
      "type": "allergy",
      "category": [ "medication" ],
      "code": {
        "coding": [ {
          "system": "http://www.nlm.nih.gov/research/umls/rxnorm",
          "code": "7982",
          "display": "Penicillin G benzathine"
        } ],
        "text": "Penicillin G benzathine"
      },
      "patient": {
        "reference": "Patient/0ad74377-a3f8-4b1d-8b20-3dcb3200efc6",
        "display": "Adam Everyman"
      },
      "onsetDateTime": "1998-01-10",
      "recordedDate": "1998-01-10",
      "recorder": {
        "reference": "Practitioner/9474bf0b-6a02-4d31-ab9a-c9a73810ac84"
      },
      "reaction": [ {
        "manifestation": [ {
          "coding": [ {
            "system": "http://snomed.info/sct",
            "code": "247472004",
            "display": "Hives"
          } ],
          "text": "Hives"
        } ]
      } ]
    }
  }, {
    "resource": {
      "resourceType": "Practitioner",
      "id": "9474bf0b-6a02-4d31-ab9a-c9a73810ac84"
    }
  }, {
    "resource": {
      "resourceType": "AllergyIntolerance",
      "id": "7309ad4b-4ce7-4002-96b7-f02e3e4613c5",
      "identifier": [ {
        "use": "official",
        "system": "urn:oid:1.3.6.1.4.1.22812.3.99930.3.4.10",
        "value": "624373800001"
      }, {
        "use": "official",
        "system": "urn:oid:1.3.6.1.4.1.22812.3.99930.3.4.10",
        "value": "637073500005"
      } ],
      "clinicalStatus": {
        "coding": [ {
          "system": "http://terminology.hl7.org/CodeSystem/allergyintolerance-clinical",
          "code": "active",
          "display": "Active"
        } ]
      },
      "verificationStatus": {
        "coding": [ {
          "system": "http://terminology.hl7.org/CodeSystem/allergyintolerance-verification",
          "code": "confirmed",
          "display": "Confirmed"
        } ]
      },
      "type": "allergy",
      "category": [ "medication" ],
      "code": {
        "text": "Codeine"
      },
      "patient": {
        "reference": "Patient/0ad74377-a3f8-4b1d-8b20-3dcb3200efc6",
        "display": "Adam Everyman"
      },
      "onsetDateTime": "2001-01-10T00:00:00+01:00",
      "recordedDate": "2001-01-10T00:00:00+01:00",
      "recorder": {
        "reference": "Practitioner/5513fac1-5cb0-4017-96fc-bc1f93a1e389"
      },
      "reaction": [ {
        "manifestation": [ {
          "coding": [ {
            "system": "http://snomed.info/sct",
            "code": "241937000",
            "display": "Drug Induced Anaphylaxis"
          } ],
          "text": "Anaphylaxis"
        } ]
      } ]
    }
  }, {
    "resource": {
      "resourceType": "Practitioner",
      "id": "5513fac1-5cb0-4017-96fc-bc1f93a1e389"
    }
  }, {
    "resource": {
      "resourceType": "DiagnosticReport",
      "id": "888dc7e6-0589-4739-93fb-91f361a850b0",
      "identifier": [ {
        "use": "official",
        "system": "urn:oid:1.3.6.1.4.1.22812.3.99930.3.4.5",
        "value": "659988700005"
      } ],
      "status": "final",
      "category": [ {
        "coding": [ {
          "system": "http://terminology.hl7.org/CodeSystem/v2-0074",
          "code": "LAB",
          "display": "Laboratory"
        } ]
      } ],
      "code": {
        "coding": [ {
          "system": "http://www.ama-assn.org/go/cpt",
          "code": "85025",
          "display": "CBC"
        } ]
      },
      "subject": {
        "reference": "Patient/0ad74377-a3f8-4b1d-8b20-3dcb3200efc6",
        "display": "Adam Everyman"
      },
      "effectivePeriod": {
        "start": "2013-01-30"
      },
      "issued": "2013-01-30T00:00:00.000+01:00",
      "performer": [ {
        "reference": "Practitioner/631d66cf-b7ca-427a-8afa-ba6c8e8751ff"
      } ],
      "result": [ {
        "reference": "Observation/946ea43a-67ef-4854-a54d-113acca6e711",
        "display": "WBC"
      }, {
        "reference": "Observation/bd355285-c09b-4a5a-a7e8-b0de2ce0e6d5",
        "display": "PLT"
      }, {
        "reference": "Observation/d32f8719-36b0-4ebc-a469-125381573e4d",
        "display": "HGB"
      }, {
        "reference": "Observation/3442172d-3d1e-454f-85c9-9338758b7fc4",
        "display": "HCT"
      } ]
    }
  }, {
    "resource": {
      "resourceType": "Practitioner",
      "id": "631d66cf-b7ca-427a-8afa-ba6c8e8751ff"
    }
  }, {
    "resource": {
      "resourceType": "Observation",
      "id": "946ea43a-67ef-4854-a54d-113acca6e711",
      "identifier": [ {
        "use": "official",
        "system": "urn:oid:1.3.6.1.4.1.22812.3.99930.3.4.5",
        "value": "6599887000032"
      }, {
        "use": "official",
        "system": "urn:oid:1.3.6.1.4.1.22812.3.99930.3.4.5",
        "value": "6599889000032"
      } ],
      "status": "final",
      "category": [ {
        "coding": [ {
          "system": "http://terminology.hl7.org/CodeSystem/observation-category",
          "code": "laboratory"
        } ]
      } ],
      "code": {
        "coding": [ {
          "system": "http://loinc.org",
          "code": "33765-9",
          "display": "WBC"
        } ]
      },
      "subject": {
        "reference": "Patient/0ad74377-a3f8-4b1d-8b20-3dcb3200efc6",
        "display": "Adam Everyman"
      },
      "effectivePeriod": {
        "start": "2013-01-30"
      },
      "valueQuantity": {
        "value": 5.2,
        "unit": "10^3/ul",
        "system": "http://unitsofmeasure.org",
        "code": "10^3/ul"
      },
      "interpretation": [ {
        "coding": [ {
          "system": "http://terminology.hl7.org/CodeSystem/v3-ObservationInterpretation"
        } ]
      } ]
    }
  }, {
    "resource": {
      "resourceType": "Observation",
      "id": "bd355285-c09b-4a5a-a7e8-b0de2ce0e6d5",
      "identifier": [ {
        "use": "official",
        "system": "urn:oid:1.3.6.1.4.1.22812.3.99930.3.4.5",
        "value": "6599887000033"
      }, {
        "use": "official",
        "system": "urn:oid:1.3.6.1.4.1.22812.3.99930.3.4.5",
        "value": "6599889000033"
      } ],
      "status": "final",
      "category": [ {
        "coding": [ {
          "system": "http://terminology.hl7.org/CodeSystem/observation-category",
          "code": "laboratory"
        } ]
      } ],
      "code": {
        "coding": [ {
          "system": "http://loinc.org",
          "code": "26515-7",
          "display": "PLT"
        } ]
      },
      "subject": {
        "reference": "Patient/0ad74377-a3f8-4b1d-8b20-3dcb3200efc6",
        "display": "Adam Everyman"
      },
      "effectivePeriod": {
        "start": "2013-01-30"
      },
      "valueQuantity": {
        "value": 388,
        "unit": "10^3/ul",
        "system": "http://unitsofmeasure.org",
        "code": "10^3/ul"
      },
      "interpretation": [ {
        "coding": [ {
          "system": "http://terminology.hl7.org/CodeSystem/v3-ObservationInterpretation"
        } ]
      } ]
    }
  }, {
    "resource": {
      "resourceType": "Observation",
      "id": "d32f8719-36b0-4ebc-a469-125381573e4d",
      "identifier": [ {
        "use": "official",
        "system": "urn:oid:1.3.6.1.4.1.22812.3.99930.3.4.5",
        "value": "659988700003"
      }, {
        "use": "official",
        "system": "urn:oid:1.3.6.1.4.1.22812.3.99930.3.4.5",
        "value": "659988900003"
      } ],
      "status": "final",
      "category": [ {
        "coding": [ {
          "system": "http://terminology.hl7.org/CodeSystem/observation-category",
          "code": "laboratory"
        } ]
      } ],
      "code": {
        "coding": [ {
          "system": "http://loinc.org",
          "code": "30313-1",
          "display": "HGB"
        } ]
      },
      "subject": {
        "reference": "Patient/0ad74377-a3f8-4b1d-8b20-3dcb3200efc6",
        "display": "Adam Everyman"
      },
      "effectivePeriod": {
        "start": "2013-01-30"
      },
      "valueQuantity": {
        "value": 14.5,
        "unit": "g/dl",
        "system": "http://unitsofmeasure.org",
        "code": "g/dl"
      },
      "interpretation": [ {
        "coding": [ {
          "system": "http://terminology.hl7.org/CodeSystem/v3-ObservationInterpretation"
        } ]
      } ]
    }
  }, {
    "resource": {
      "resourceType": "Observation",
      "id": "3442172d-3d1e-454f-85c9-9338758b7fc4",
      "identifier": [ {
        "use": "official",
        "system": "urn:oid:1.3.6.1.4.1.22812.3.99930.3.4.5",
        "value": "6599887000031"
      }, {
        "use": "official",
        "system": "urn:oid:1.3.6.1.4.1.22812.3.99930.3.4.5",
        "value": "6599889000031"
      } ],
      "status": "final",
      "category": [ {
        "coding": [ {
          "system": "http://terminology.hl7.org/CodeSystem/observation-category",
          "code": "laboratory"
        } ]
      } ],
      "code": {
        "coding": [ {
          "system": "http://loinc.org",
          "code": "20570-8",
          "display": "HCT"
        } ]
      },
      "subject": {
        "reference": "Patient/0ad74377-a3f8-4b1d-8b20-3dcb3200efc6",
        "display": "Adam Everyman"
      },
      "effectivePeriod": {
        "start": "2013-01-30"
      },
      "valueQuantity": {
        "value": 50,
        "unit": "%",
        "system": "http://unitsofmeasure.org",
        "code": "%"
      },
      "interpretation": [ {
        "coding": [ {
          "system": "http://terminology.hl7.org/CodeSystem/v3-ObservationInterpretation"
        } ]
      } ]
    }
  }, {
    "resource": {
      "resourceType": "Procedure",
      "id": "1c607fff-6a87-40ee-882d-68cdbc7c2c01",
      "identifier": [ {
        "use": "official",
        "system": "urn:oid:1.3.6.1.4.1.22812.3.99930.3.4.7",
        "value": "1898101"
      } ],
      "status": "in-progress",
      "subject": {
        "reference": "Patient/0ad74377-a3f8-4b1d-8b20-3dcb3200efc6",
        "display": "Adam Everyman"
      }
    }
  }, {
    "resource": {
      "resourceType": "Condition",
      "id": "4f458f7c-d089-4613-9333-b50a4d96febf",
      "identifier": [ {
        "use": "official",
        "system": "urn:oid:1.3.6.1.4.1.22812.3.99930.3.4.1.2.1",
        "value": "615028800003"
      }, {
        "use": "official",
        "system": "urn:oid:1.3.6.1.4.1.22812.3.99930.3.4.1.2.1",
        "value": "659935200001"
      } ],
      "clinicalStatus": {
        "coding": [ {
          "system": "http://terminology.hl7.org/CodeSystem/condition-clinical",
          "code": "active",
          "display": "Active"
        } ]
      },
      "verificationStatus": {
        "coding": [ {
          "system": "http://terminology.hl7.org/CodeSystem/condition-ver-status",
          "code": "refuted",
          "display": "Refuted"
        } ]
      },
      "category": [ {
        "coding": [ {
          "system": "http://terminology.hl7.org/CodeSystem/condition-category",
          "code": "problem-list-item",
          "display": "Problem List Item"
        } ]
      } ],
      "code": {
        "coding": [ {
          "system": "http://snomed.info/sct",
          "code": "59621000",
          "display": "Hypertension"
        } ],
        "text": "Essential Hypertension"
      },
      "subject": {
        "reference": "Patient/0ad74377-a3f8-4b1d-8b20-3dcb3200efc6",
        "display": "Adam Everyman"
      },
      "onsetDateTime": "2012-03-30",
      "recordedDate": "2012-03-30T01:00:00-04:00",
      "asserter": {
        "reference": "Practitioner/b73bd566-cb58-44d0-b6a2-cf4a79204005"
      }
    }
  }, {
    "resource": {
      "resourceType": "Practitioner",
      "id": "b73bd566-cb58-44d0-b6a2-cf4a79204005"
    }
  }, {
    "resource": {
      "resourceType": "Condition",
      "id": "f77193e4-290d-412f-95a1-c99fb36a0b93",
      "identifier": [ {
        "use": "official",
        "system": "urn:oid:1.3.6.1.4.1.22812.3.99930.3.4.1.2.1",
        "value": "636842200009"
      }, {
        "use": "official",
        "system": "urn:oid:1.3.6.1.4.1.22812.3.99930.3.4.1.2.1",
        "value": "659935200025"
      } ],
      "clinicalStatus": {
        "coding": [ {
          "system": "http://terminology.hl7.org/CodeSystem/condition-clinical",
          "code": "active",
          "display": "Active"
        } ]
      },
      "verificationStatus": {
        "coding": [ {
          "system": "http://terminology.hl7.org/CodeSystem/condition-ver-status",
          "code": "refuted",
          "display": "Refuted"
        } ]
      },
      "category": [ {
        "coding": [ {
          "system": "http://terminology.hl7.org/CodeSystem/condition-category",
          "code": "problem-list-item",
          "display": "Problem List Item"
        } ]
      } ],
      "code": {
        "coding": [ {
          "system": "http://snomed.info/sct",
          "code": "233604007",
          "display": "Pneumonia"
        } ],
        "text": "Pneumonia"
      },
      "subject": {
        "reference": "Patient/0ad74377-a3f8-4b1d-8b20-3dcb3200efc6",
        "display": "Adam Everyman"
      },
      "onsetDateTime": "2013-01-30",
      "recordedDate": "2013-01-30T00:00:00-05:00",
      "asserter": {
        "reference": "Practitioner/f636c5fb-7471-4242-9fca-a9bb2f38b492"
      }
    }
  }, {
    "resource": {
      "resourceType": "Practitioner",
      "id": "f636c5fb-7471-4242-9fca-a9bb2f38b492"
    }
  }, {
    "resource": {
      "resourceType": "Condition",
      "id": "7e250765-174e-4bd4-a4e6-78e6602c3e48",
      "identifier": [ {
        "use": "official",
        "system": "urn:oid:1.3.6.1.4.1.22812.3.99930.3.4.1.2.1",
        "value": "636842200007"
      }, {
        "use": "official",
        "system": "urn:oid:1.3.6.1.4.1.22812.3.99930.3.4.1.2.1",
        "value": "660100900011"
      } ],
      "clinicalStatus": {
        "coding": [ {
          "system": "http://terminology.hl7.org/CodeSystem/condition-clinical",
          "code": "active",
          "display": "Active"
        } ]
      },
      "verificationStatus": {
        "coding": [ {
          "system": "http://terminology.hl7.org/CodeSystem/condition-ver-status",
          "code": "refuted",
          "display": "Refuted"
        } ]
      },
      "category": [ {
        "coding": [ {
          "system": "http://terminology.hl7.org/CodeSystem/condition-category",
          "code": "problem-list-item",
          "display": "Problem List Item"
        } ]
      } ],
      "code": {
        "coding": [ {
          "system": "http://snomed.info/sct",
          "code": "195967001",
          "display": "Asthma"
        } ],
        "text": "Asthma"
      },
      "subject": {
        "reference": "Patient/0ad74377-a3f8-4b1d-8b20-3dcb3200efc6",
        "display": "Adam Everyman"
      },
      "onsetDateTime": "2011-09-25T01:00:00-04:00",
      "recordedDate": "2011-09-25T01:00:00-04:00",
      "asserter": {
        "reference": "Practitioner/f505e2f1-46d0-41bd-9800-c018602a5185"
      }
    }
  }, {
    "resource": {
      "resourceType": "Practitioner",
      "id": "f505e2f1-46d0-41bd-9800-c018602a5185"
    }
  }, {
    "resource": {
      "resourceType": "CarePlan",
      "id": "870f0f90-b5f2-4105-80f1-fd06db4bed4b",
      "text": {
        "status": "additional",
        "div": "<div xmlns=\"http://www.w3.org/1999/xhtml\"><ul><caption>Planned Observations</caption><li><table><thead><tr><th>Name</th><th>Dates</th><th>Details</th></tr></thead><tbody><tr><td><span><span><span>Goal: Weight Loss</span></span></span></td><td><span><span>On </span><span>30-Mar-2012</span></span><span><br/></span><span><span/></span></td><td><span><span>Goal</span></span></td></tr><tr><td><span><span><span>Goal: Smoking Cessation</span></span></span></td><td><span><span>On </span><span>30-Mar-2012</span></span><span><br/></span><span><span/></span></td><td><span><span>Goal</span></span></td></tr></tbody></table></li></ul><ul><caption>Planned Encounters</caption><li><table><tbody><tr><td><span><span>Pulmonary function Tests</span></span><span><br/></span><span><span>Encounter Reason: </span><span>Pulmonary function Tests (reason)</span></span><span><span>Dr. Penny Puffer Office - need office address</span></span><span><br/></span><span><br/></span><span><span> Puffer</span>, Penny Dr </span></td><td><span><span>On </span><span>6-Feb-2013</span></span><span><br/></span><span><span>00:00</span></span></td></tr></tbody></table></li></ul><ul><caption>Planned Procedures</caption><li><table><thead><tr><th>Name</th><th>Dates</th><th>Details</th></tr></thead><tbody><tr><td><span><span><span>Chest X-Ray, PA and Lateral Views</span></span></span><span><span>By: </span><span><span> Seven</span>, Henry Dr </span></span></td><td><span>On </span><span>30-Jan-2013</span></td><td><span><span>Request</span></span><span>Site: </span><span>Lower Respiratory Tract Structure</span></td></tr></tbody></table></li></ul></div>"
      },
      "status": "active",
      "intent": "plan",
      "category": [ {
        "coding": [ {
          "system": "http://hl7.org/fhir/us/core/CodeSystem/careplan-category",
          "code": "assess-plan"
        } ]
      } ],
      "title": "Plan of Care",
      "description": "<div><ul><caption>Planned Observations</caption><li><table><thead><tr><th>Name</th><th>Dates</th><th>Details</th></tr></thead><tbody><tr><td><span><span><span>Goal: Weight Loss</span></span></span></td><td><span><span>On </span><span>30-Mar-2012</span></span><span><br></br></span><span><span></span></span></td><td><span><span>Goal</span></span></td></tr><tr><td><span><span><span>Goal: Smoking Cessation</span></span></span></td><td><span><span>On </span><span>30-Mar-2012</span></span><span><br></br></span><span><span></span></span></td><td><span><span>Goal</span></span></td></tr></tbody></table></li></ul><ul><caption>Planned Encounters</caption><li><table><tbody><tr><td><span><span>Pulmonary function Tests</span></span><span><br></br></span><span><span>Encounter Reason: </span><span>Pulmonary function Tests (reason)</span></span><span><span>Dr. Penny Puffer Office - need office address</span></span><span><br></br></span><span><br></br></span><span><span> Puffer</span>, Penny Dr </span></td><td><span><span>On </span><span>6-Feb-2013</span></span><span><br></br></span><span><span>00:00</span></span></td></tr></tbody></table></li></ul><ul><caption>Planned Procedures</caption><li><table><thead><tr><th>Name</th><th>Dates</th><th>Details</th></tr></thead><tbody><tr><td><span><span><span>Chest X-Ray, PA and Lateral Views</span></span></span><span><span>By: </span><span><span> Seven</span>, Henry Dr </span></span></td><td><span>On </span><span>30-Jan-2013</span></td><td><span><span>Request</span></span><span>Site: </span><span>Lower Respiratory Tract Structure</span></td></tr></tbody></table></li></ul></div>",
      "subject": {
        "reference": "Patient/0ad74377-a3f8-4b1d-8b20-3dcb3200efc6",
        "display": "Adam Everyman"
      }
    }
  }, {
    "resource": {
      "resourceType": "Immunization",
      "id": "38c584cf-a71a-4ab8-ba08-45e6aba3a6e9",
      "identifier": [ {
        "use": "official",
        "system": "urn:oid:1.3.6.1.4.1.22812.3.99930.3.4.4",
        "value": "637382500009"
      }, {
        "use": "official",
        "system": "urn:oid:1.3.6.1.4.1.22812.3.99930.3.4.4",
        "value": "637382500011"
      } ],
      "status": "completed",
      "vaccineCode": {
        "coding": [ {
          "system": "http://www2a.cdc.gov/vaccines/iis/iisstandards/vaccines.asp?rpt=cvx",
          "code": "88",
          "display": "Influenza virus vaccine"
        } ],
        "text": "Influenza virus vaccine"
      },
      "patient": {
        "reference": "Patient/0ad74377-a3f8-4b1d-8b20-3dcb3200efc6",
        "display": "Adam Everyman"
      },
      "occurrenceDateTime": "2012-03-30",
      "primarySource": true,
      "site": {
        "coding": [ {
          "system": "http://snomed.info/sct",
          "code": "368208006",
          "display": "Left Arm"
        } ]
      },
      "route": {
        "coding": [ {
          "system": "http://www.nlm.nih.gov/research/umls/nci",
          "code": "C28161",
          "display": "INTRAMUSCULAR"
        } ]
      },
      "performer": [ {
        "function": {
          "coding": [ {
            "system": "http://hl7.org/fhir/v2/0443",
            "code": "AP",
            "display": "Administering Provider"
          } ]
        },
        "actor": {
          "reference": "Practitioner/c7a29b64-fe19-4b30-a631-59fb3e096e3b",
          "display": "Nancy Nurse RN"
        }
      } ]
    }
  }, {
    "resource": {
      "resourceType": "Practitioner",
      "id": "c7a29b64-fe19-4b30-a631-59fb3e096e3b",
      "identifier": [ {
        "use": "official",
        "system": "urn:oid:1.3.6.1.4.1.22812.3.99930.3",
        "value": "3333"
      } ],
      "name": [ {
        "family": "Nurse",
        "given": [ "Nancy" ],
        "suffix": [ "RN" ]
      } ],
      "telecom": [ {
        "system": "phone",
        "value": "+1-(555)555-4242"
      } ]
    }
  }, {
    "resource": {
      "resourceType": "Encounter",
      "id": "4351a0db-4d3b-45d8-9725-eff44452cdc4",
      "identifier": [ {
        "use": "official",
        "system": "urn:oid:1.3.6.1.4.1.22812.3.99930.3.3.4",
        "value": "52838152"
      } ],
      "status": "finished",
      "type": [ {
        "coding": [ {
          "system": "http://www.ama-assn.org/go/cpt",
          "code": "99231",
          "display": "UNK"
        } ],
        "text": "Office Visit"
      } ],
      "subject": {
        "reference": "Patient/0ad74377-a3f8-4b1d-8b20-3dcb3200efc6",
        "display": "Adam Everyman"
      },
      "participant": [ {
        "type": [ {
          "coding": [ {
            "system": "http://terminology.hl7.org/CodeSystem/v3-ParticipationType",
            "code": "PART",
            "display": "Participation"
          } ]
        } ],
        "period": {
          "start": "2011-09-25T09:00:51+02:00"
        },
        "individual": {
          "reference": "Practitioner/2b582b68-6731-4d93-8b07-33684c86091d",
          "display": "Dr Henry L Seven"
        }
      } ],
      "period": {
        "start": "2011-09-25T09:00:51+02:00"
      },
      "diagnosis": [ {
        "condition": {
          "reference": "Condition/7b354962-62d4-4e0d-80ce-b95c818a0d96",
          "display": "Asthma"
        }
      } ],
      "location": [ {
        "location": {
          "reference": "Location/33685968-8477-4256-bc1f-9f315f825b0d",
          "display": "Get Well Clinic"
        }
      } ]
    }
  }, {
    "resource": {
      "resourceType": "Condition",
      "id": "7b354962-62d4-4e0d-80ce-b95c818a0d96",
      "identifier": [ {
        "use": "official",
        "system": "urn:oid:1.3.6.1.4.1.22812.3.99930.3.4.1.2.1",
        "value": "554122"
      } ],
      "clinicalStatus": {
        "coding": [ {
          "system": "http://terminology.hl7.org/CodeSystem/condition-clinical",
          "code": "active",
          "display": "Active"
        } ]
      },
      "verificationStatus": {
        "coding": [ {
          "system": "http://terminology.hl7.org/CodeSystem/condition-ver-status",
          "code": "confirmed",
          "display": "Confirmed"
        } ]
      },
      "category": [ {
        "coding": [ {
          "system": "http://terminology.hl7.org/CodeSystem/condition-category",
          "code": "problem-list-item",
          "display": "Problem List Item"
        } ]
      } ],
      "code": {
        "coding": [ {
          "system": "http://snomed.info/sct",
          "code": "195967001",
          "display": "Asthma"
        } ],
        "text": "Asthma"
      },
      "subject": {
        "reference": "Patient/0ad74377-a3f8-4b1d-8b20-3dcb3200efc6",
        "display": "Adam Everyman"
      },
      "onsetDateTime": "2011-09-25T10:00:51+02:00"
    }
  }, {
    "resource": {
      "resourceType": "Location",
      "id": "33685968-8477-4256-bc1f-9f315f825b0d",
      "name": "Get Well Clinic"
    }
  }, {
    "resource": {
      "resourceType": "Encounter",
      "id": "430c40cd-fddf-401f-847b-1d1198cb2283",
      "identifier": [ {
        "use": "official",
        "system": "urn:oid:1.3.6.1.4.1.22812.3.99930.3.3.4",
        "value": "5283815"
      } ],
      "status": "finished",
      "type": [ {
        "coding": [ {
          "system": "http://www.ama-assn.org/go/cpt",
          "code": "99231",
          "display": "UNK"
        } ],
        "text": "Offie Visit"
      } ],
      "subject": {
        "reference": "Patient/0ad74377-a3f8-4b1d-8b20-3dcb3200efc6",
        "display": "Adam Everyman"
      },
      "participant": [ {
        "type": [ {
          "coding": [ {
            "system": "http://terminology.hl7.org/CodeSystem/v3-ParticipationType",
            "code": "PART",
            "display": "Participation"
          } ]
        } ],
        "period": {
          "start": "2013-01-30T09:00:51+01:00"
        },
        "individual": {
          "reference": "Practitioner/2b582b68-6731-4d93-8b07-33684c86091d",
          "display": "Dr Henry L Seven"
        }
      } ],
      "period": {
        "start": "2013-01-30T09:00:51+01:00"
      },
      "diagnosis": [ {
        "condition": {
          "reference": "Condition/06b46456-a529-46b7-87ae-93681737fba5",
          "display": "Pneumonia"
        }
      } ],
      "location": [ {
        "location": {
          "reference": "Location/2e7ef818-5d5d-4890-a361-107785fa2e41",
          "display": "Get Well Clinic"
        }
      } ]
    }
  }, {
    "resource": {
      "resourceType": "Condition",
      "id": "06b46456-a529-46b7-87ae-93681737fba5",
      "identifier": [ {
        "use": "official",
        "system": "urn:oid:1.3.6.1.4.1.22812.3.99930.3.4.1.2.1",
        "value": "55412"
      } ],
      "clinicalStatus": {
        "coding": [ {
          "system": "http://terminology.hl7.org/CodeSystem/condition-clinical",
          "code": "active",
          "display": "Active"
        } ]
      },
      "verificationStatus": {
        "coding": [ {
          "system": "http://terminology.hl7.org/CodeSystem/condition-ver-status",
          "code": "confirmed",
          "display": "Confirmed"
        } ]
      },
      "category": [ {
        "coding": [ {
          "system": "http://terminology.hl7.org/CodeSystem/condition-category",
          "code": "problem-list-item",
          "display": "Problem List Item"
        } ]
      } ],
      "code": {
        "coding": [ {
          "system": "http://snomed.info/sct",
          "code": "233604007",
          "display": "Pneumonia"
        } ],
        "text": "Pneumonia"
      },
      "subject": {
        "reference": "Patient/0ad74377-a3f8-4b1d-8b20-3dcb3200efc6",
        "display": "Adam Everyman"
      },
      "onsetDateTime": "2013-01-30T10:00:51+01:00"
    }
  }, {
    "resource": {
      "resourceType": "Location",
      "id": "2e7ef818-5d5d-4890-a361-107785fa2e41",
      "name": "Get Well Clinic"
    }
  }, {
    "resource": {
      "resourceType": "Encounter",
      "id": "c8985624-42dd-4b0a-afd8-8b3c13f1e0bf",
      "identifier": [ {
        "use": "official",
        "system": "urn:oid:1.3.6.1.4.1.22812.3.99930.3.3.4",
        "value": "52838151"
      } ],
      "status": "finished",
      "type": [ {
        "coding": [ {
          "system": "http://www.ama-assn.org/go/cpt",
          "code": "99231",
          "display": "UNK"
        } ],
        "text": "Offie Visit"
      } ],
      "subject": {
        "reference": "Patient/0ad74377-a3f8-4b1d-8b20-3dcb3200efc6",
        "display": "Adam Everyman"
      },
      "participant": [ {
        "type": [ {
          "coding": [ {
            "system": "http://terminology.hl7.org/CodeSystem/v3-ParticipationType",
            "code": "PART",
            "display": "Participation"
          } ]
        } ],
        "period": {
          "start": "2012-03-30T09:00:51+02:00"
        },
        "individual": {
          "reference": "Practitioner/2b582b68-6731-4d93-8b07-33684c86091d",
          "display": "Dr Henry L Seven"
        }
      } ],
      "period": {
        "start": "2012-03-30T09:00:51+02:00"
      },
      "diagnosis": [ {
        "condition": {
          "reference": "Condition/ae0af616-ba72-41e6-b32e-c23b93b0ac32",
          "display": "Essential hypertension"
        }
      } ],
      "location": [ {
        "location": {
          "reference": "Location/226100c2-545f-41eb-aa8a-3aa708453741",
          "display": "Get Well Clinic"
        }
      } ]
    }
  }, {
    "resource": {
      "resourceType": "Condition",
      "id": "ae0af616-ba72-41e6-b32e-c23b93b0ac32",
      "identifier": [ {
        "use": "official",
        "system": "urn:oid:1.3.6.1.4.1.22812.3.99930.3.4.1.2.1",
        "value": "5541"
      } ],
      "clinicalStatus": {
        "coding": [ {
          "system": "http://terminology.hl7.org/CodeSystem/condition-clinical",
          "code": "active",
          "display": "Active"
        } ]
      },
      "verificationStatus": {
        "coding": [ {
          "system": "http://terminology.hl7.org/CodeSystem/condition-ver-status",
          "code": "confirmed",
          "display": "Confirmed"
        } ]
      },
      "category": [ {
        "coding": [ {
          "system": "http://terminology.hl7.org/CodeSystem/condition-category",
          "code": "problem-list-item",
          "display": "Problem List Item"
        } ]
      } ],
      "code": {
        "coding": [ {
          "system": "http://snomed.info/sct",
          "code": "59621000",
          "display": "Essential hypertension"
        } ],
        "text": "Essential hypertension"
      },
      "subject": {
        "reference": "Patient/0ad74377-a3f8-4b1d-8b20-3dcb3200efc6",
        "display": "Adam Everyman"
      },
      "onsetDateTime": "2013-01-30T10:00:51+01:00"
    }
  }, {
    "resource": {
      "resourceType": "Location",
      "id": "226100c2-545f-41eb-aa8a-3aa708453741",
      "name": "Get Well Clinic"
    }
  } ]
}