{
  "resourceType": "Bundle",
  "entry": [ {
    "resource": {
      "resourceType": "Composition",
      "id": "e24dba08-2d25-46c9-bab6-01a8c3e8afc7",
      "identifier": {
        "use": "official",
        "system": "urn:oid:1.3.6.1.4.1.22812.3.99930.3.1",
        "value": "66670992"
      },
      "status": "preliminary",
      "type": {
        "coding": [ {
          "system": "http://loinc.org",
          "code": "34133-9",
          "display": "SUMMARIZATION OF EPISODE NOTE"
        } ]
      },
      "category": [ {
        "coding": [ {
          "system": "http://hl7.org/fhir/ValueSet/doc-classcodes",
          "code": "LP173421-7",
          "display": "Note"
        } ]
      } ],
      "subject": {
        "reference": "Patient/d531c0f6-a0e7-4691-ad18-9f3738c8aa98",
        "display": "Karl Kidd"
      },
      "date": "2011-07-14T09:00:51-04:00",
      "author": [ {
        "reference": "Practitioner/bc919de8-c39a-480b-8bac-940488457c31",
        "display": "Dr Karen K Kidder"
      }, {
        "reference": "Device/f657bde0-808c-4e0c-a4ad-0bc52f00cfd1"
      } ],
      "title": "Continuity of Care Document",
      "confidentiality": "V",
      "attester": [ {
        "mode": "legal",
        "time": "2011-07-14T09:00:51-04:00",
        "party": {
          "reference": "Practitioner/bc919de8-c39a-480b-8bac-940488457c31",
          "display": "Dr Karen K Kidder"
        }
      }, {
        "mode": "professional",
        "time": "2011-07-14T09:00:51-04:00",
        "party": {
          "reference": "Practitioner/bc919de8-c39a-480b-8bac-940488457c31",
          "display": "Dr Karen K Kidder"
        }
      } ],
      "custodian": {
        "reference": "Organization/0222951c-b5b5-47e7-bc6c-dce952f832a8",
        "display": "Local Community Hospital"
      },
      "event": [ {
        "period": {
          "start": "2013-01-30T09:00:51+01:00",
          "end": "2011-07-14T09:00:51-04:00"
        },
        "detail": [ {
          "reference": "Practitioner/bc919de8-c39a-480b-8bac-940488457c31",
          "display": "Dr Karen K Kidder"
        } ]
      } ],
      "section": [ {
        "title": "Medications",
        "code": {
          "coding": [ {
            "system": "http://loinc.org",
            "code": "10160-0",
            "display": "History of medication use"
          } ]
        },
        "text": {
          "status": "additional",
          "div": "<div xmlns=\"http://www.w3.org/1999/xhtml\"><table><thead><tr><th>Name</th><th>Dates</th><th>Details</th></tr></thead><tbody><tr><td><span><span>Oseltamivir 30 MG Oral Capsule</span></span><span><br/></span><span><span><span>TAKE 1 CAPSULE Q12H AS DIRECTED</span></span></span><span><br/></span><span><span><span>Take one 30 mg capsule every 12 hours until all consumed</span></span></span></td><td/><td><ul><li><table><tbody><tr><td><span> Started </span>30-Jan-2013</td></tr></tbody></table></li></ul><span><span/><span>Active</span></span></td></tr><tr><td><span><span>Albuterol 0.09 MG/ ACTUAT metered dose</span></span><span><br/></span><span><span><span>Take 2 puffs once</span></span></span><span><br/></span><span><span><span>2 puffs once</span></span></span></td><td><span><br/></span><span><span> Kidder</span>, Karen Dr </span></td><td><ul><li><table><tbody><tr><td><span> Started </span>30-Apr-2012</td></tr></tbody></table></li></ul><span><span/><span>Active</span></span><span><span> Indication : </span><span>Asthma</span></span><span><br/></span></td></tr></tbody></table></div>"
        },
        "mode": "snapshot"
      }, {
        "title": "Results",
        "code": {
          "coding": [ {
            "system": "http://loinc.org",
            "code": "30954-2",
            "display": "Relevant diagnostic tests and/or laboratory data"
          } ]
        },
        "text": {
          "status": "additional",
          "div": "<div xmlns=\"http://www.w3.org/1999/xhtml\"><table><thead><tr><th>Date</th><th>Description</th><th>Value</th><th>Details</th></tr></thead><tbody><tr><td><span>Resulted on:</span><span><br/></span><span>30-Jan-2013 09:33</span></td><td colspan=\"2\"><span>CBC</span></td><td/><td/></tr><tr><td/><td><span>HGB</span></td><td><span>14.5  g/dl</span></td><td/></tr><tr><td/><td><span>HCT</span></td><td><span>50  %</span></td><td/></tr><tr><td/><td><span>WBC</span></td><td><span>5.2  10^3/ul</span></td><td/></tr><tr><td/><td><span>PLT</span></td><td><span>388  10^3/ul</span></td><td/></tr></tbody></table></div>"
        },
        "mode": "snapshot",
        "entry": [ {
          "reference": "DiagnosticReport/77574059-ae72-46a1-bb91-9501a68aceb1",
          "display": "CBC"
        } ]
      }, {
        "title": "Allergies and Adverse Reactions",
        "code": {
          "coding": [ {
            "system": "http://loinc.org",
            "code": "48765-2",
            "display": "Allergies, adverse reactions, alerts"
          } ]
        },
        "text": {
          "status": "additional",
          "div": "<div xmlns=\"http://www.w3.org/1999/xhtml\"><table><thead><tr><th>Name</th><th>Dates</th><th>Details</th></tr></thead><tbody><tr><td><span><span>No Known Allergies</span></span></td><td><span/></td><td><span><span>Status: </span><span/></span></td></tr></tbody></table></div>"
        },
        "mode": "snapshot",
        "entry": [ {
          "reference": "AllergyIntolerance/1d141780-16e3-4341-afdb-28a7c1e477ae"
        } ]
      }, {
        "title": "Functional Status",
        "code": {
          "coding": [ {
            "system": "http://loinc.org",
            "code": "47420-5",
            "display": "Functional Status"
          } ]
        },
        "text": {
          "status": "additional",
          "div": "<div xmlns=\"http://www.w3.org/1999/xhtml\"><ul><caption>Functional Status Health Issues</caption><li><table><thead><tr><th>Name</th><th>Dates</th><th>Details</th></tr></thead><tbody><tr><td><span><span>No Functional Impairment</span></span><span><span/></span><span><br/></span></td><td><span><span>Onset<span>:</span></span><span>30-Jan-2013</span></span></td><td><span><span><span>Status: </span><span/></span></span></td></tr></tbody></table></li></ul><ul><caption>Cognitive Status Health Issues</caption><li><table><thead><tr><th>Name</th><th>Dates</th><th>Details</th></tr></thead><tbody><tr><td><span><span>No Cognitive Impairment</span></span><span><span/></span><span><br/></span></td><td><span><span>Onset<span>:</span></span><span>30-Jan-2013</span></span></td><td><span><span><span>Status: </span><span/></span></span></td></tr></tbody></table></li></ul></div>"
        },
        "mode": "snapshot"
      }, {
        "title": "Problems",
        "code": {
          "coding": [ {
            "system": "http://loinc.org",
            "code": "11450-4",
            "display": "Problem List"
          } ]
        },
        "text": {
          "status": "additional",
          "div": "<div xmlns=\"http://www.w3.org/1999/xhtml\"><table><thead><tr><th>Name</th><th>Dates</th><th>Details</th></tr></thead><tbody><tr><td><span><span>Flu-like illness</span></span><span><span/></span><span><br/></span></td><td><span><span>Onset<span>:</span></span><span>30-Jan-2013</span></span></td><td><span><span><span>Status: </span><span>Active</span></span></span></td></tr><tr><td><span><span>Asthma</span></span><span><span/></span><span><br/></span></td><td><span><span>Onset<span>:</span></span><span>12-Mar-2011</span></span></td><td><span><span><span>Status: </span><span>Active</span></span></span></td></tr></tbody></table></div>"
        },
        "mode": "snapshot",
        "entry": [ {
          "reference": "Condition/8098ab9f-5cfe-44a2-bb0a-db768d66de7c",
          "display": "Asthma"
        }, {
          "reference": "Condition/4a4536d8-3ef5-4783-bf8c-525bafd31769",
          "display": "Flu-like illness"
        } ]
      }, {
        "title": "Plan of Care",
        "code": {
          "coding": [ {
            "system": "http://loinc.org",
            "code": "18776-5",
            "display": "Plan of Care"
          } ]
        },
        "text": {
          "status": "additional",
          "div": "<div xmlns=\"http://www.w3.org/1999/xhtml\"><ul><caption>Planned Observations</caption><li><table><thead><tr><th>Name</th><th>Dates</th><th>Details</th></tr></thead><tbody><tr><td><span><span><span>Goal: Asthma Management</span></span></span></td><td><span><span>On </span><span>12-Mar-2011</span></span><span><br/></span><span><span/></span></td><td><span><span>Goal</span></span></td></tr></tbody></table></li></ul><ul><caption>Planned Procedures</caption><li><table><thead><tr><th>Name</th><th>Dates</th><th>Details</th></tr></thead><tbody><tr><td><span><span><span>Chest X-Ray, PA and Lateral Views</span></span></span><span><span>By: </span><span><span> Kidder</span>, Karen Dr </span></span></td><td><span>On </span><span>30-Jan-2013</span></td><td><span><span>Request</span></span><span>Site: </span><span>Lower Respiratory Tract Structure</span></td></tr></tbody></table></li></ul></div>"
        },
        "mode": "snapshot",
        "entry": [ {
          "reference": "CarePlan/2c0df784-dde1-4822-89ed-b431922c799d"
        } ]
      }, {
        "title": "Encounters",
        "code": {
          "coding": [ {
            "system": "http://loinc.org",
            "code": "46240-8",
            "display": "Encounters"
          } ]
        },
        "text": {
          "status": "additional",
          "div": "<div xmlns=\"http://www.w3.org/1999/xhtml\"><table><tbody><tr><td><span><span>Admission</span></span><span><br/></span><span><span>Encounter Diagnosis: </span><span>Flu-like illness</span></span><span><span><span>Active</span></span></span><span><span>Local Community Hospital</span></span><span><br/></span><span><br/></span><span><span> Kidder</span>, Karen Dr </span></td><td><span><span>On </span><span>30-Jan-2013</span></span><span><br/></span><span><span>09:00</span></span></td></tr><tr><td><span><span>Admission</span></span><span><br/></span><span><span>Encounter Diagnosis: </span><span>Asthma</span></span><span><span><span>Active</span></span></span><span><span>Community General Hospital</span></span><span><br/></span><span><br/></span><span><span> Kidder</span>, Karen Dr </span></td><td><span><span>On </span><span>12-Mar-2011</span></span><span><br/></span><span><span>10:00</span></span></td></tr><tr><td><span><span>Admission</span></span><span><br/></span><span><span>Encounter Diagnosis: </span><span>Asthma</span></span><span><span><span>Active</span></span></span><span><span>Local Community Hospital</span></span><span><br/></span><span><br/></span><span><span> Kidder</span>, Karen Dr </span></td><td><span><span>On </span><span>15-Mar-2010</span></span><span><br/></span><span><span>10:00</span></span></td></tr></tbody></table></div>"
        },
        "mode": "snapshot",
        "entry": [ {
          "reference": "Encounter/893449fd-4b9c-475d-8766-ae5dd0e5a416",
          "display": "Admission"
        }, {
          "reference": "Encounter/11d6d0e3-d218-4108-b336-7f672312131b",
          "display": "Admission"
        }, {
          "reference": "Encounter/6d436f9a-45af-4226-a322-ebc593f165f0",
          "display": "Admission"
        } ]
      }, {
        "title": "Immunization",
        "code": {
          "coding": [ {
            "system": "http://loinc.org",
            "code": "11369-6",
            "display": "Immunizations"
          } ]
        },
        "text": {
          "status": "additional",
          "div": "<div xmlns=\"http://www.w3.org/1999/xhtml\"><table><thead><tr><th>Name</th><th>Dates</th><th>Details</th></tr></thead><tbody><tr><td><span><span>Measles, Mumps and Rubella virus vaccine</span></span><span><br/></span></td><td><span><span>Administered on<span>:</span></span><span>12-Mar-2011</span></span></td><td><span><span> Site: </span><span><span>Left Arm</span></span></span><span><br/></span></td></tr></tbody></table></div>"
        },
        "mode": "snapshot",
        "entry": [ {
          "reference": "Immunization/6cb71d8c-baca-48dc-b25f-0f47c5540e42",
          "display": "Measles, Mumps and Rubella virus vaccine"
        } ]
      }, {
        "title": "Social History",
        "code": {
          "coding": [ {
            "system": "http://loinc.org",
            "code": "29762-2",
            "display": "Social History"
          } ]
        },
        "text": {
          "status": "additional",
          "div": "<div xmlns=\"http://www.w3.org/1999/xhtml\"><ul><caption>Smoking Status</caption><li><span>Never smoker</span></li></ul></div>"
        },
        "mode": "snapshot",
        "entry": [ {
          "reference": "Observation/1c3d60cd-8e9a-4626-b9e0-871636e97a9a",
          "display": "Assertion"
        } ]
      } ]
    }
  }, {
    "resource": {
      "resourceType": "Patient",
      "id": "d531c0f6-a0e7-4691-ad18-9f3738c8aa98",
      "extension": [ {
        "url": "http://hl7.org/fhir/us/core/StructureDefinition/us-core-race",
        "extension": [ {
          "url": "text",
          "valueString": "White"
        }, {
          "url": "ombCategory",
          "valueCoding": {
            "system": "urn:oid:2.16.840.1.113883.6.238",
            "code": "2106-3",
            "display": "White"
          }
        } ]
      }, {
        "url": "http://hl7.org/fhir/us/core/StructureDefinition/us-core-ethnicity",
        "extension": [ {
          "url": "text",
          "valueString": "Not Hispanic or Latino"
        }, {
          "url": "ombCategory",
          "valueCoding": {
            "system": "urn:oid:2.16.840.1.113883.6.238",
            "code": "2186-5",
            "display": "Not Hispanic or Latino"
          }
        } ]
      } ],
      "identifier": [ {
        "use": "official",
        "system": "urn:oid:1.3.6.1.4.1.22812.3.99930.3",
        "value": "110107073916283"
      } ],
      "name": [ {
        "family": "Kidd",
        "given": [ "Karl" ]
      } ],
      "telecom": [ {
        "system": "phone",
        "value": "+1-(555)555-3333",
        "use": "home"
      } ],
      "gender": "male",
      "birthDate": "2000-10-22",
      "address": [ {
        "use": "home",
        "line": [ "1234 Six Forks" ],
        "city": "Portland",
        "state": "OR",
        "postalCode": "97005",
        "country": "US"
      } ],
      "communication": [ {
        "language": {
          "coding": [ {
            "system": "urn:ietf:bcp:47",
            "code": "eng"
          } ]
        },
        "preferred": true
      } ],
      "managingOrganization": {
        "reference": "Organization/0222951c-b5b5-47e7-bc6c-dce952f832a8",
        "display": "Local Community Hospital"
      }
    }
  }, {
    "resource": {
      "resourceType": "Organization",
      "id": "0222951c-b5b5-47e7-bc6c-dce952f832a8",
      "identifier": [ {
        "use": "official",
        "system": "urn:oid:1.3.6.1.4.1.22812.3.99930.3",
        "value": "3"
      } ],
      "name": "Local Community Hospital",
      "telecom": [ {
        "system": "phone",
        "value": "+1-(555)555-1034"
      } ],
      "address": [ {
        "line": [ "Local Community Hospital", "1034 Healthcare Dr." ],
        "city": "Portland",
        "state": "OR",
        "postalCode": "97005",
        "country": "US"
      } ]
    }
  }, {
    "resource": {
      "resourceType": "Practitioner",
      "id": "bc919de8-c39a-480b-8bac-940488457c31",
      "identifier": [ {
        "use": "official",
        "system": "urn:oid:2.16.840.1.113883.4.6",
        "value": "1111111111"
      }, {
        "use": "official",
        "system": "urn:oid:1.3.6.1.4.1.22812.3.99930.3",
        "value": "91138"
      } ],
      "name": [ {
        "family": "Kidder",
        "given": [ "Karen", "K" ],
        "prefix": [ "Dr" ]
      } ],
      "telecom": [ {
        "system": "phone",
        "value": "+1-(555)555-1046"
      } ],
      "address": [ {
        "line": [ "Local Community Hospital", "1034 Healthcare Dr." ],
        "city": "Portland",
        "state": "OR",
        "postalCode": "97005",
        "country": "US"
      } ]
    }
  }, {
    "resource": {
      "resourceType": "Device",
      "id": "f657bde0-808c-4e0c-a4ad-0bc52f00cfd1",
      "identifier": [ {
        "use": "official",
        "system": "urn:oid:1.3.6.1.4.1.22812.3.99930.3.3.3",
        "value": "3"
      } ],
      "manufacturer": "Sunrise Clinical Systems 11.200.4210.17305",
      "type": {
        "coding": [ {
          "display": "Sunrise Clinical Systems 11.200.4210.17305"
        } ]
      },
      "version": [ {
        "value": "Sunrise Clinical Systems 11.200.4210.17305; Transform 4.1.1.18"
      } ],
      "owner": {
        "reference": "Organization/0222951c-b5b5-47e7-bc6c-dce952f832a8"
      }
    }
  }, {
    "resource": {
      "resourceType": "DiagnosticReport",
      "id": "77574059-ae72-46a1-bb91-9501a68aceb1",
      "identifier": [ {
        "use": "official",
        "system": "urn:oid:1.3.6.1.4.1.22812.3.99930.3.4.5",
        "value": "659988700005"
      } ],
      "status": "final",
      "category": [ {
        "coding": [ {
          "system": "http://terminology.hl7.org/CodeSystem/v2-0074",
          "code": "LAB",
          "display": "Laboratory"
        } ]
      } ],
      "code": {
        "coding": [ {
          "system": "http://www.ama-assn.org/go/cpt",
          "code": "85025",
          "display": "CBC"
        } ]
      },
      "subject": {
        "reference": "Patient/d531c0f6-a0e7-4691-ad18-9f3738c8aa98",
        "display": "Karl Kidd"
      },
      "effectivePeriod": {
        "start": "2013-01-30"
      },
      "issued": "2013-01-30T00:00:00.000+01:00",
      "performer": [ {
        "reference": "Practitioner/e181100b-26d6-4fb2-bd58-a53562fd2f0c"
      } ],
      "result": [ {
        "reference": "Observation/0a776cd3-035c-4b9a-97dd-42dea34d8e34",
        "display": "HGB"
      }, {
        "reference": "Observation/9ddceda9-9d89-4efe-b8eb-9bbc73377973",
        "display": "HCT"
      }, {
        "reference": "Observation/76f07897-312b-495b-8fee-dd82370e7448",
        "display": "WBC"
      }, {
        "reference": "Observation/04430b8a-0887-4daa-8f53-765ab610d338",
        "display": "PLT"
      } ]
    }
  }, {
    "resource": {
      "resourceType": "Practitioner",
      "id": "e181100b-26d6-4fb2-bd58-a53562fd2f0c"
    }
  }, {
    "resource": {
      "resourceType": "Observation",
      "id": "0a776cd3-035c-4b9a-97dd-42dea34d8e34",
      "identifier": [ {
        "use": "official",
        "system": "urn:oid:1.3.6.1.4.1.22812.3.99930.3.4.5",
        "value": "659988700003"
      }, {
        "use": "official",
        "system": "urn:oid:1.3.6.1.4.1.22812.3.99930.3.4.5",
        "value": "659988900003"
      } ],
      "status": "final",
      "category": [ {
        "coding": [ {
          "system": "http://terminology.hl7.org/CodeSystem/observation-category",
          "code": "laboratory"
        } ]
      } ],
      "code": {
        "coding": [ {
          "system": "http://loinc.org",
          "code": "30313-1",
          "display": "HGB"
        } ]
      },
      "subject": {
        "reference": "Patient/d531c0f6-a0e7-4691-ad18-9f3738c8aa98",
        "display": "Karl Kidd"
      },
      "effectivePeriod": {
        "start": "2013-01-30"
      },
      "valueQuantity": {
        "value": 14.5,
        "unit": "g/dl",
        "system": "http://unitsofmeasure.org",
        "code": "g/dl"
      },
      "interpretation": [ {
        "coding": [ {
          "system": "http://terminology.hl7.org/CodeSystem/v3-ObservationInterpretation"
        } ]
      } ]
    }
  }, {
    "resource": {
      "resourceType": "Observation",
      "id": "9ddceda9-9d89-4efe-b8eb-9bbc73377973",
      "identifier": [ {
        "use": "official",
        "system": "urn:oid:1.3.6.1.4.1.22812.3.99930.3.4.5",
        "value": "6599887000031"
      }, {
        "use": "official",
        "system": "urn:oid:1.3.6.1.4.1.22812.3.99930.3.4.5",
        "value": "6599889000031"
      } ],
      "status": "final",
      "category": [ {
        "coding": [ {
          "system": "http://terminology.hl7.org/CodeSystem/observation-category",
          "code": "laboratory"
        } ]
      } ],
      "code": {
        "coding": [ {
          "system": "http://loinc.org",
          "code": "20570-8",
          "display": "HCT"
        } ]
      },
      "subject": {
        "reference": "Patient/d531c0f6-a0e7-4691-ad18-9f3738c8aa98",
        "display": "Karl Kidd"
      },
      "effectivePeriod": {
        "start": "2013-01-30"
      },
      "valueQuantity": {
        "value": 50,
        "unit": "%",
        "system": "http://unitsofmeasure.org",
        "code": "%"
      },
      "interpretation": [ {
        "coding": [ {
          "system": "http://terminology.hl7.org/CodeSystem/v3-ObservationInterpretation"
        } ]
      } ]
    }
  }, {
    "resource": {
      "resourceType": "Observation",
      "id": "76f07897-312b-495b-8fee-dd82370e7448",
      "identifier": [ {
        "use": "official",
        "system": "urn:oid:1.3.6.1.4.1.22812.3.99930.3.4.5",
        "value": "6599887000032"
      }, {
        "use": "official",
        "system": "urn:oid:1.3.6.1.4.1.22812.3.99930.3.4.5",
        "value": "6599889000032"
      } ],
      "status": "final",
      "category": [ {
        "coding": [ {
          "system": "http://terminology.hl7.org/CodeSystem/observation-category",
          "code": "laboratory"
        } ]
      } ],
      "code": {
        "coding": [ {
          "system": "http://loinc.org",
          "code": "33765-9",
          "display": "WBC"
        } ]
      },
      "subject": {
        "reference": "Patient/d531c0f6-a0e7-4691-ad18-9f3738c8aa98",
        "display": "Karl Kidd"
      },
      "effectivePeriod": {
        "start": "2013-01-30"
      },
      "valueQuantity": {
        "value": 5.2,
        "unit": "10^3/ul",
        "system": "http://unitsofmeasure.org",
        "code": "10^3/ul"
      },
      "interpretation": [ {
        "coding": [ {
          "system": "http://terminology.hl7.org/CodeSystem/v3-ObservationInterpretation"
        } ]
      } ]
    }
  }, {
    "resource": {
      "resourceType": "Observation",
      "id": "04430b8a-0887-4daa-8f53-765ab610d338",
      "identifier": [ {
        "use": "official",
        "system": "urn:oid:1.3.6.1.4.1.22812.3.99930.3.4.5",
        "value": "6599887000033"
      }, {
        "use": "official",
        "system": "urn:oid:1.3.6.1.4.1.22812.3.99930.3.4.5",
        "value": "6599889000033"
      } ],
      "status": "final",
      "category": [ {
        "coding": [ {
          "system": "http://terminology.hl7.org/CodeSystem/observation-category",
          "code": "laboratory"
        } ]
      } ],
      "code": {
        "coding": [ {
          "system": "http://loinc.org",
          "code": "26515-7",
          "display": "PLT"
        } ]
      },
      "subject": {
        "reference": "Patient/d531c0f6-a0e7-4691-ad18-9f3738c8aa98",
        "display": "Karl Kidd"
      },
      "effectivePeriod": {
        "start": "2013-01-30"
      },
      "valueQuantity": {
        "value": 388,
        "unit": "10^3/ul",
        "system": "http://unitsofmeasure.org",
        "code": "10^3/ul"
      },
      "interpretation": [ {
        "coding": [ {
          "system": "http://terminology.hl7.org/CodeSystem/v3-ObservationInterpretation"
        } ]
      } ]
    }
  }, {
    "resource": {
      "resourceType": "AllergyIntolerance",
      "id": "1d141780-16e3-4341-afdb-28a7c1e477ae",
      "identifier": [ {
        "use": "official",
        "system": "urn:oid:1.3.6.1.4.1.22812.3.99930.3.4.10",
        "value": "613618700107"
      }, {
        "use": "official",
        "system": "urn:oid:1.3.6.1.4.1.22812.3.99930.3.4.10",
        "value": "613618700109"
      } ],
      "clinicalStatus": {
        "coding": [ {
          "system": "http://terminology.hl7.org/CodeSystem/allergyintolerance-clinical",
          "code": "active",
          "display": "Active"
        } ]
      },
      "verificationStatus": {
        "coding": [ {
          "system": "http://terminology.hl7.org/CodeSystem/allergyintolerance-verification",
          "code": "confirmed",
          "display": "Confirmed"
        } ]
      },
      "type": "allergy",
      "category": [ "medication" ],
      "patient": {
        "reference": "Patient/d531c0f6-a0e7-4691-ad18-9f3738c8aa98",
        "display": "Karl Kidd"
      },
      "recorder": {
        "reference": "Practitioner/24255b57-537e-4eca-8777-e7e2548f693e"
      }
    }
  }, {
    "resource": {
      "resourceType": "Practitioner",
      "id": "24255b57-537e-4eca-8777-e7e2548f693e"
    }
  }, {
    "resource": {
      "resourceType": "Condition",
      "id": "8098ab9f-5cfe-44a2-bb0a-db768d66de7c",
      "identifier": [ {
        "use": "official",
        "system": "urn:oid:1.3.6.1.4.1.22812.3.99930.3.4.1.2.1",
        "value": "636842200007"
      }, {
        "use": "official",
        "system": "urn:oid:1.3.6.1.4.1.22812.3.99930.3.4.1.2.1",
        "value": "660100900011"
      } ],
      "clinicalStatus": {
        "coding": [ {
          "system": "http://terminology.hl7.org/CodeSystem/condition-clinical",
          "code": "active",
          "display": "Active"
        } ]
      },
      "verificationStatus": {
        "coding": [ {
          "system": "http://terminology.hl7.org/CodeSystem/condition-ver-status",
          "code": "refuted",
          "display": "Refuted"
        } ]
      },
      "category": [ {
        "coding": [ {
          "system": "http://terminology.hl7.org/CodeSystem/condition-category",
          "code": "problem-list-item",
          "display": "Problem List Item"
        } ]
      } ],
      "code": {
        "coding": [ {
          "system": "http://snomed.info/sct",
          "code": "195967001",
          "display": "Asthma"
        } ],
        "text": "Asthma"
      },
      "subject": {
        "reference": "Patient/d531c0f6-a0e7-4691-ad18-9f3738c8aa98",
        "display": "Karl Kidd"
      },
      "onsetDateTime": "2011-03-12T00:00:00-05:00",
      "recordedDate": "2011-03-12T00:00:00-05:00",
      "asserter": {
        "reference": "Practitioner/57b40e00-b722-42c1-87d6-28e6f741f358"
      }
    }
  }, {
    "resource": {
      "resourceType": "Practitioner",
      "id": "57b40e00-b722-42c1-87d6-28e6f741f358"
    }
  }, {
    "resource": {
      "resourceType": "Condition",
      "id": "4a4536d8-3ef5-4783-bf8c-525bafd31769",
      "identifier": [ {
        "use": "official",
        "system": "urn:oid:1.3.6.1.4.1.22812.3.99930.3.4.1.2.1",
        "value": "636842200009"
      }, {
        "use": "official",
        "system": "urn:oid:1.3.6.1.4.1.22812.3.99930.3.4.1.2.1",
        "value": "659935200025"
      } ],
      "clinicalStatus": {
        "coding": [ {
          "system": "http://terminology.hl7.org/CodeSystem/condition-clinical",
          "code": "active",
          "display": "Active"
        } ]
      },
      "verificationStatus": {
        "coding": [ {
          "system": "http://terminology.hl7.org/CodeSystem/condition-ver-status",
          "code": "refuted",
          "display": "Refuted"
        } ]
      },
      "category": [ {
        "coding": [ {
          "system": "http://terminology.hl7.org/CodeSystem/condition-category",
          "code": "problem-list-item",
          "display": "Problem List Item"
        } ]
      } ],
      "code": {
        "coding": [ {
          "system": "http://snomed.info/sct",
          "code": "95891005",
          "display": "Flu-like illness"
        } ],
        "text": "Flu-like illness"
      },
      "subject": {
        "reference": "Patient/d531c0f6-a0e7-4691-ad18-9f3738c8aa98",
        "display": "Karl Kidd"
      },
      "onsetDateTime": "2013-01-30",
      "recordedDate": "2013-01-30T00:00:00-05:00",
      "asserter": {
        "reference": "Practitioner/1c74f012-581d-4207-9485-b93d3d03a94f"
      }
    }
  }, {
    "resource": {
      "resourceType": "Practitioner",
      "id": "1c74f012-581d-4207-9485-b93d3d03a94f"
    }
  }, {
    "resource": {
      "resourceType": "CarePlan",
      "id": "2c0df784-dde1-4822-89ed-b431922c799d",
      "text": {
        "status": "additional",
        "div": "<div xmlns=\"http://www.w3.org/1999/xhtml\"><ul><caption>Planned Observations</caption><li><table><thead><tr><th>Name</th><th>Dates</th><th>Details</th></tr></thead><tbody><tr><td><span><span><span>Goal: Asthma Management</span></span></span></td><td><span><span>On </span><span>12-Mar-2011</span></span><span><br/></span><span><span/></span></td><td><span><span>Goal</span></span></td></tr></tbody></table></li></ul><ul><caption>Planned Procedures</caption><li><table><thead><tr><th>Name</th><th>Dates</th><th>Details</th></tr></thead><tbody><tr><td><span><span><span>Chest X-Ray, PA and Lateral Views</span></span></span><span><span>By: </span><span><span> Kidder</span>, Karen Dr </span></span></td><td><span>On </span><span>30-Jan-2013</span></td><td><span><span>Request</span></span><span>Site: </span><span>Lower Respiratory Tract Structure</span></td></tr></tbody></table></li></ul></div>"
      },
      "status": "active",
      "intent": "plan",
      "category": [ {
        "coding": [ {
          "system": "http://hl7.org/fhir/us/core/CodeSystem/careplan-category",
          "code": "assess-plan"
        } ]
      } ],
      "title": "Plan of Care",
      "description": "<div><ul><caption>Planned Observations</caption><li><table><thead><tr><th>Name</th><th>Dates</th><th>Details</th></tr></thead><tbody><tr><td><span><span><span>Goal: Asthma Management</span></span></span></td><td><span><span>On </span><span>12-Mar-2011</span></span><span><br></br></span><span><span></span></span></td><td><span><span>Goal</span></span></td></tr></tbody></table></li></ul><ul><caption>Planned Procedures</caption><li><table><thead><tr><th>Name</th><th>Dates</th><th>Details</th></tr></thead><tbody><tr><td><span><span><span>Chest X-Ray, PA and Lateral Views</span></span></span><span><span>By: </span><span><span> Kidder</span>, Karen Dr </span></span></td><td><span>On </span><span>30-Jan-2013</span></td><td><span><span>Request</span></span><span>Site: </span><span>Lower Respiratory Tract Structure</span></td></tr></tbody></table></li></ul></div>",
      "subject": {
        "reference": "Patient/d531c0f6-a0e7-4691-ad18-9f3738c8aa98",
        "display": "Karl Kidd"
      }
    }
  }, {
    "resource": {
      "resourceType": "Encounter",
      "id": "893449fd-4b9c-475d-8766-ae5dd0e5a416",
      "identifier": [ {
        "use": "official",
        "system": "urn:oid:1.3.6.1.4.1.22812.3.99930.3.3.4",
        "value": "5283815"
      } ],
      "status": "finished",
      "type": [ {
        "coding": [ {
          "system": "http://www.ama-assn.org/go/cpt",
          "code": "99231",
          "display": "UNK"
        } ],
        "text": "Admission"
      } ],
      "subject": {
        "reference": "Patient/d531c0f6-a0e7-4691-ad18-9f3738c8aa98",
        "display": "Karl Kidd"
      },
      "participant": [ {
        "type": [ {
          "coding": [ {
            "system": "http://terminology.hl7.org/CodeSystem/v3-ParticipationType",
            "code": "PART",
            "display": "Participation"
          } ]
        } ],
        "period": {
          "start": "2013-01-30T09:00:51+01:00"
        },
        "individual": {
          "reference": "Practitioner/bc919de8-c39a-480b-8bac-940488457c31",
          "display": "Dr Karen K Kidder"
        }
      } ],
      "period": {
        "start": "2013-01-30T09:00:51+01:00"
      },
      "diagnosis": [ {
        "condition": {
          "reference": "Condition/cc466e50-c788-4da7-b9f2-242617f47fe4",
          "display": "Flu-like illness"
        }
      } ],
      "location": [ {
        "location": {
          "reference": "Location/7a950bc1-767f-41eb-bf06-99ba7121981c",
          "display": "Local Community Hospital"
        }
      } ]
    }
  }, {
    "resource": {
      "resourceType": "Condition",
      "id": "cc466e50-c788-4da7-b9f2-242617f47fe4",
      "identifier": [ {
        "use": "official",
        "system": "urn:oid:1.3.6.1.4.1.22812.3.99930.3.4.1.2.1",
        "value": "55412"
      } ],
      "clinicalStatus": {
        "coding": [ {
          "system": "http://terminology.hl7.org/CodeSystem/condition-clinical",
          "code": "active",
          "display": "Active"
        } ]
      },
      "verificationStatus": {
        "coding": [ {
          "system": "http://terminology.hl7.org/CodeSystem/condition-ver-status",
          "code": "confirmed",
          "display": "Confirmed"
        } ]
      },
      "category": [ {
        "coding": [ {
          "system": "http://terminology.hl7.org/CodeSystem/condition-category",
          "code": "problem-list-item",
          "display": "Problem List Item"
        } ]
      } ],
      "code": {
        "coding": [ {
          "system": "http://snomed.info/sct",
          "code": "95891005",
          "display": "Flu-like illness"
        } ],
        "text": "Flu-like illness"
      },
      "subject": {
        "reference": "Patient/d531c0f6-a0e7-4691-ad18-9f3738c8aa98",
        "display": "Karl Kidd"
      },
      "onsetDateTime": "2013-01-30T10:00:51+01:00"
    }
  }, {
    "resource": {
      "resourceType": "Location",
      "id": "7a950bc1-767f-41eb-bf06-99ba7121981c",
      "name": "Local Community Hospital"
    }
  }, {
    "resource": {
      "resourceType": "Encounter",
      "id": "11d6d0e3-d218-4108-b336-7f672312131b",
      "identifier": [ {
        "use": "official",
        "system": "urn:oid:1.3.6.1.4.1.22812.3.99930.3.3.4",
        "value": "52838151"
      } ],
      "status": "finished",
      "type": [ {
        "coding": [ {
          "system": "http://www.ama-assn.org/go/cpt",
          "code": "99231",
          "display": "UNK"
        } ],
        "text": "Admission"
      } ],
      "subject": {
        "reference": "Patient/d531c0f6-a0e7-4691-ad18-9f3738c8aa98",
        "display": "Karl Kidd"
      },
      "participant": [ {
        "type": [ {
          "coding": [ {
            "system": "http://terminology.hl7.org/CodeSystem/v3-ParticipationType",
            "code": "PART",
            "display": "Participation"
          } ]
        } ],
        "period": {
          "start": "2011-03-12T10:00:51+01:00"
        },
        "individual": {
          "reference": "Practitioner/bc919de8-c39a-480b-8bac-940488457c31",
          "display": "Dr Karen K Kidder"
        }
      } ],
      "period": {
        "start": "2011-03-12T10:00:51+01:00"
      },
      "diagnosis": [ {
        "condition": {
          "reference": "Condition/cc466e50-c788-4da7-b9f2-242617f47fe4",
          "display": "Flu-like illness"
        }
      } ],
      "location": [ {
        "location": {
          "reference": "Location/18278b98-1d7c-4fec-8b82-30d1fac1618c",
          "display": "Community General Hospital"
        }
      } ]
    }
  }, {
    "resource": {
      "resourceType": "Location",
      "id": "18278b98-1d7c-4fec-8b82-30d1fac1618c",
      "name": "Community General Hospital"
    }
  }, {
    "resource": {
      "resourceType": "Encounter",
      "id": "6d436f9a-45af-4226-a322-ebc593f165f0",
      "identifier": [ {
        "use": "official",
        "system": "urn:oid:1.3.6.1.4.1.22812.3.99930.3.3.4",
        "value": "52838152"
      } ],
      "status": "finished",
      "type": [ {
        "coding": [ {
          "system": "http://www.ama-assn.org/go/cpt",
          "code": "99231",
          "display": "UNK"
        } ],
        "text": "Admission"
      } ],
      "subject": {
        "reference": "Patient/d531c0f6-a0e7-4691-ad18-9f3738c8aa98",
        "display": "Karl Kidd"
      },
      "participant": [ {
        "type": [ {
          "coding": [ {
            "system": "http://terminology.hl7.org/CodeSystem/v3-ParticipationType",
            "code": "PART",
            "display": "Participation"
          } ]
        } ],
        "period": {
          "start": "2010-03-15T10:00:51+01:00"
        },
        "individual": {
          "reference": "Practitioner/bc919de8-c39a-480b-8bac-940488457c31",
          "display": "Dr Karen K Kidder"
        }
      } ],
      "period": {
        "start": "2010-03-15T10:00:51+01:00"
      },
      "diagnosis": [ {
        "condition": {
          "reference": "Condition/cc466e50-c788-4da7-b9f2-242617f47fe4",
          "display": "Flu-like illness"
        }
      } ],
      "location": [ {
        "location": {
          "reference": "Location/e01b9f51-d321-407d-a747-6a32d2459b6b",
          "display": "Local Community Hospital"
        }
      } ]
    }
  }, {
    "resource": {
      "resourceType": "Location",
      "id": "e01b9f51-d321-407d-a747-6a32d2459b6b",
      "name": "Local Community Hospital"
    }
  }, {
    "resource": {
      "resourceType": "Immunization",
      "id": "6cb71d8c-baca-48dc-b25f-0f47c5540e42",
      "identifier": [ {
        "use": "official",
        "system": "urn:oid:1.3.6.1.4.1.22812.3.99930.3.4.4",
        "value": "637382500009"
      }, {
        "use": "official",
        "system": "urn:oid:1.3.6.1.4.1.22812.3.99930.3.4.4",
        "value": "637382500011"
      } ],
      "status": "completed",
      "vaccineCode": {
        "coding": [ {
          "system": "http://www2a.cdc.gov/vaccines/iis/iisstandards/vaccines.asp?rpt=cvx",
          "code": "03",
          "display": "MMR"
        } ],
        "text": "Measles, Mumps and Rubella virus vaccine"
      },
      "patient": {
        "reference": "Patient/d531c0f6-a0e7-4691-ad18-9f3738c8aa98",
        "display": "Karl Kidd"
      },
      "occurrenceDateTime": "2011-03-12",
      "primarySource": true,
      "site": {
        "coding": [ {
          "system": "http://snomed.info/sct",
          "code": "368208006",
          "display": "Left Arm"
        } ]
      },
      "route": {
        "coding": [ {
          "system": "http://www.nlm.nih.gov/research/umls/nci",
          "code": "C28161",
          "display": "INTRAMUSCULAR"
        } ]
      },
      "performer": [ {
        "function": {
          "coding": [ {
            "system": "http://hl7.org/fhir/v2/0443",
            "code": "AP",
            "display": "Administering Provider"
          } ]
        },
        "actor": {
          "reference": "Practitioner/ee22cfb5-7789-4561-9484-91660882fd98",
          "display": "Nancy Nurse RN"
        }
      } ]
    }
  }, {
    "resource": {
      "resourceType": "Practitioner",
      "id": "ee22cfb5-7789-4561-9484-91660882fd98",
      "identifier": [ {
        "use": "official",
        "system": "urn:oid:1.3.6.1.4.1.22812.3.99930.3",
        "value": "3333"
      } ],
      "name": [ {
        "family": "Nurse",
        "given": [ "Nancy" ],
        "suffix": [ "RN" ]
      } ],
      "telecom": [ {
        "system": "phone",
        "value": "+1-(555)555-4220"
      } ]
    }
  }, {
    "resource": {
      "resourceType": "Observation",
      "id": "1c3d60cd-8e9a-4626-b9e0-871636e97a9a",
      "status": "final",
      "code": {
        "coding": [ {
          "system": "urn:oid:2.16.840.1.113883.5.4",
          "code": "ASSERTION",
          "display": "Assertion"
        } ]
      },
      "subject": {
        "reference": "Patient/d531c0f6-a0e7-4691-ad18-9f3738c8aa98",
        "display": "Karl Kidd"
      },
      "issued": "2010-03-15T10:30:00-04:00",
      "performer": [ {
        "reference": "Practitioner/ab663ae1-ab34-4e98-afa0-73750bdeef04"
      } ],
      "valueCodeableConcept": {
        "coding": [ {
          "system": "http://snomed.info/sct",
          "code": "266919005",
          "display": "Never smoker"
        } ]
      }
    }
  }, {
    "resource": {
      "resourceType": "Practitioner",
      "id": "ab663ae1-ab34-4e98-afa0-73750bdeef04"
    }
  } ]
}