{
  "resourceType": "Bundle",
  "entry": [ {
    "resource": {
      "resourceType": "Composition",
      "id": "7403a440-a2dc-40fd-a548-c83d046493c0",
      "identifier": {
        "use": "official",
        "system": "urn:oid:1.3.6.1.4.1.22812.3.99930.3.1",
        "value": "66670992"
      },
      "status": "preliminary",
      "type": {
        "coding": [ {
          "system": "http://loinc.org",
          "code": "18842-5",
          "display": "DISCHARGE SUMMARIZATION NOTE"
        } ]
      },
      "category": [ {
        "coding": [ {
          "system": "http://hl7.org/fhir/ValueSet/doc-classcodes",
          "code": "LP173421-7",
          "display": "Note"
        } ]
      } ],
      "subject": {
        "reference": "Patient/2e5c0a7d-e86e-4841-bc79-cd93e3da1a3c",
        "display": "Mary Grant"
      },
      "date": "2012-10-02T10:00:51-04:00",
      "author": [ {
        "reference": "Practitioner/44882bd2-2ca8-4f28-a5b4-e6ed481a4cd8",
        "display": "Dr Martin Rodriguez"
      }, {
        "reference": "Device/2a5fb3bc-3d93-4b5d-944c-f3a830375296"
      } ],
      "title": "Discharge Summary",
      "confidentiality": "V",
      "attester": [ {
        "mode": "legal",
        "time": "2012-10-02T10:00:51-04:00",
        "party": {
          "reference": "Practitioner/44882bd2-2ca8-4f28-a5b4-e6ed481a4cd8",
          "display": "Dr Martin Rodriguez"
        }
      }, {
        "mode": "professional",
        "time": "2012-10-02T10:00:51-04:00",
        "party": {
          "reference": "Practitioner/44882bd2-2ca8-4f28-a5b4-e6ed481a4cd8",
          "display": "Dr Martin Rodriguez"
        }
      } ],
      "custodian": {
        "reference": "Organization/b16cab16-daa5-4010-b144-431e8be00ca6",
        "display": "Local Community Hospital"
      },
      "event": [ {
        "period": {
          "start": "2012-10-02",
          "end": "2012-10-05"
        },
        "detail": [ {
          "reference": "Practitioner/44882bd2-2ca8-4f28-a5b4-e6ed481a4cd8",
          "display": "Dr Martin Rodriguez"
        } ]
      } ],
      "section": [ {
        "title": "Encounters",
        "code": {
          "coding": [ {
            "system": "http://loinc.org",
            "code": "46240-8",
            "display": "Encounters"
          } ]
        },
        "text": {
          "status": "additional",
          "div": "<div xmlns=\"http://www.w3.org/1999/xhtml\"><table><tbody><tr><td><span><span>In-patient Admission</span></span><span><br/></span><span><span>Encounter Reason: </span><span>Nasal congestion, nasal discharge, facial pain, and intermittent fevers.</span></span><span><span>Encounter Diagnosis: </span><span>Neoplasm of accessory sinus</span></span><span><span><span>Active</span></span></span><span><span>Discharge Disposition: </span><span>Discharged to home or self care (routine discharge)</span></span><span><br/></span><span><span>Local Community Hospital</span></span><span><br/></span><span><span>1000 Hospital Way Portland OR 97005</span></span><span><br/></span><span><span>(555) 555-1122</span></span><span><br/></span><span><br/></span><span><span> Rodriguez</span>, Martin Dr </span></td><td><span><span>2-Oct-2012</span><span> to </span><span>5-Oct-2012</span></span></td></tr></tbody></table></div>"
        },
        "mode": "snapshot",
        "entry": [ {
          "reference": "Encounter/53dea7d4-50d6-476b-8332-7eb2eab15e38",
          "display": "In-patient Admission"
        } ]
      }, {
        "title": "Functional Status",
        "code": {
          "coding": [ {
            "system": "http://loinc.org",
            "code": "47420-5",
            "display": "Functional Status"
          } ]
        },
        "text": {
          "status": "additional",
          "div": "<div xmlns=\"http://www.w3.org/1999/xhtml\"><ul><caption>Functional Status Health Issues</caption><li><table><thead><tr><th>Name</th><th>Dates</th><th>Details</th></tr></thead><tbody><tr><td><span><span>Dependence on walking stick</span></span><span><span/></span><span><br/></span></td><td><span><span>Onset<span>:</span></span><span>20-Sep-2012</span></span></td><td><span><span><span>Status: </span><span>Active</span></span></span></td></tr></tbody></table></li></ul><ul><caption>Cognitive Status Health Issues</caption><li><table><thead><tr><th>Name</th><th>Dates</th><th>Details</th></tr></thead><tbody><tr><td><span><span>Memory Impairment</span></span><span><span/></span><span><br/></span></td><td><span><span>Onset<span>:</span></span><span>5-Oct-2012</span></span></td><td><span><span><span>Status: </span><span>Active</span></span></span></td></tr></tbody></table></li></ul></div>"
        },
        "mode": "snapshot"
      }, {
        "title": "Results",
        "code": {
          "coding": [ {
            "system": "http://loinc.org",
            "code": "30954-2",
            "display": "Relevant diagnostic tests and/or laboratory data"
          } ]
        },
        "text": {
          "status": "additional",
          "div": "<div xmlns=\"http://www.w3.org/1999/xhtml\"><table><thead><tr><th>Date</th><th>Description</th><th>Value</th><th>Details</th></tr></thead><tbody><tr><td><span>Resulted on:</span><span><br/></span><span>2-Oct-2012 11:33</span></td><td colspan=\"2\"><span>CBC</span></td><td/><td/></tr><tr><td/><td><span>HGB</span></td><td><span>12.4  g/dl</span></td><td/></tr><tr><td/><td><span>WBC</span></td><td><span>19.1  10^3/ul</span></td><td/></tr><tr><td/><td><span>PLT</span></td><td><span>255  10^3/ul</span></td><td/></tr></tbody></table></div>"
        },
        "mode": "snapshot",
        "entry": [ {
          "reference": "DiagnosticReport/9faea3d0-b0f5-4158-892b-a481e4c2c9e2",
          "display": "CBC"
        } ]
      }, {
        "title": "Plan of Care",
        "code": {
          "coding": [ {
            "system": "http://loinc.org",
            "code": "18776-5",
            "display": "Plan of Care"
          } ]
        },
        "text": {
          "status": "additional",
          "div": "<div xmlns=\"http://www.w3.org/1999/xhtml\"><ul><caption>Planned Observations</caption><li><table><thead><tr><th>Name</th><th>Dates</th><th>Details</th></tr></thead><tbody><tr><td><span><span><span>Goal: Weight loss</span></span></span></td><td><span><span>On </span><span>2-Oct-2012</span></span><span><br/></span><span><span/></span></td><td><span><span>Goal</span></span></td></tr></tbody></table></li></ul></div>"
        },
        "mode": "snapshot",
        "entry": [ {
          "reference": "CarePlan/9f7dbd48-41da-47d3-8776-bbc005b5f0a5"
        } ]
      }, {
        "title": "Problems",
        "code": {
          "coding": [ {
            "system": "http://loinc.org",
            "code": "11450-4",
            "display": "Problem List"
          } ]
        },
        "text": {
          "status": "additional",
          "div": "<div xmlns=\"http://www.w3.org/1999/xhtml\"><table><thead><tr><th>Name</th><th>Dates</th><th>Details</th></tr></thead><tbody><tr><td><span><span>Sinusitis</span></span><span><span/></span><span><br/></span></td><td><span><span>Onset<span>:</span></span><span>20-Sep-2012</span></span></td><td><span><span><span>Status: </span><span>Active</span></span></span></td></tr><tr><td><span><span>Depression</span></span><span><span/></span><span><br/></span></td><td><span><span>Onset<span>:</span></span><span>10-Nov-2011</span></span></td><td><span><span><span>Status: </span><span>Active</span></span></span></td></tr><tr><td><span><span>Hypothroidism</span></span><span><span/></span><span><br/></span></td><td><span><span>Onset<span>:</span></span><span>15-Apr-2010</span></span></td><td><span><span><span>Status: </span><span>Active</span></span></span></td></tr></tbody></table></div>"
        },
        "mode": "snapshot",
        "entry": [ {
          "reference": "Condition/0f841997-8894-496a-85ea-3f5012d15afb",
          "display": "Depression"
        }, {
          "reference": "Condition/56f2218e-6947-48ca-a64a-b534803b035a",
          "display": "Hypothroidism"
        }, {
          "reference": "Condition/aacf8498-648e-479b-b9c9-a5d91d9f418e",
          "display": "Sinusitis"
        } ]
      }, {
        "title": "Medications",
        "code": {
          "coding": [ {
            "system": "http://loinc.org",
            "code": "10160-0",
            "display": "History of medication use"
          } ]
        },
        "text": {
          "status": "additional",
          "div": "<div xmlns=\"http://www.w3.org/1999/xhtml\"><table><thead><tr><th>Name</th><th>Dates</th><th>Details</th></tr></thead><tbody><tr><td><span><span>Cefepime 20 MG/ML</span></span><span><br/></span><span><span><span>1 GM IV Q12H </span></span></span><span><br/></span><span><span/></span></td><td/><td><ul><li><table><tbody><tr><td><span> Started </span>2-Oct-2012</td></tr></tbody></table></li></ul><span><span/><span>Active</span></span></td></tr><tr><td><span><span>Cephalexin 500 MG Oral Tablet</span></span><span><br/></span><span><span><span>1 TABLET FOUR TIMES DAILY FOR 10 DAYS</span></span></span><span><br/></span><span><span><span>Take four times daily for 10 days</span></span></span></td><td/><td><ul><li><table><tbody><tr><td><span> Started </span>20-Sep-2012</td></tr></tbody></table></li></ul><span><span/><span>Active</span></span><span><span>Generic substitution allowed</span></span><span><br/></span></td></tr><tr><td><span><span>Fluoxetine 40 MG Oral Capsule</span></span><span><br/></span><span><span><span>TAKE 1 TABLET once daily As Directed</span></span></span><span><br/></span><span><span/></span></td><td/><td><ul><li><table><tbody><tr><td><span> Started </span>20-Nov-2011</td></tr></tbody></table></li></ul><span><span/><span>Active</span></span></td></tr><tr><td><span><span>Levothyroxine Sodium 0.05 MG Oral Tablet</span></span><span><br/></span><span><span><span>TAKE 1 TABLET once daily As Directed</span></span></span><span><br/></span><span><span/></span></td><td/><td><ul><li><table><tbody><tr><td><span> Started </span>15-Apr-2010</td></tr></tbody></table></li></ul><span><span/><span>Active</span></span></td></tr></tbody></table></div>"
        },
        "mode": "snapshot"
      }, {
        "title": "Immunization",
        "code": {
          "coding": [ {
            "system": "http://loinc.org",
            "code": "11369-6",
            "display": "Immunizations"
          } ]
        },
        "text": {
          "status": "additional",
          "div": "<div xmlns=\"http://www.w3.org/1999/xhtml\"><table><thead><tr><th>Name</th><th>Dates</th><th>Details</th></tr></thead><tbody><tr><td><span><span>Influenza virus vaccine</span></span><span><br/></span></td><td><span><span>Administered on<span>:</span></span><span>2-Oct-2012</span></span></td><td><span><span> Site: </span><span><span>Left Arm</span></span></span><span><br/></span></td></tr></tbody></table></div>"
        },
        "mode": "snapshot",
        "entry": [ {
          "reference": "Immunization/8ada9a67-30ba-46d2-a424-b987eea88946",
          "display": "Influenza virus vaccine"
        } ]
      }, {
        "title": "Social History",
        "code": {
          "coding": [ {
            "system": "http://loinc.org",
            "code": "29762-2",
            "display": "Social History"
          } ]
        },
        "text": {
          "status": "additional",
          "div": "<div xmlns=\"http://www.w3.org/1999/xhtml\"><ul><caption>Smoking Status</caption><li><span>Never smoker</span><span> Started 2012</span></li></ul></div>"
        },
        "mode": "snapshot",
        "entry": [ {
          "reference": "Observation/8888e0f7-c31a-4bdd-be3b-7c1e284a6997",
          "display": "Assertion"
        } ]
      }, {
        "title": "Procedures",
        "code": {
          "coding": [ {
            "system": "http://loinc.org",
            "code": "47519-4",
            "display": "History of Procedures"
          } ]
        },
        "text": {
          "status": "additional",
          "div": "<div xmlns=\"http://www.w3.org/1999/xhtml\"><table><thead><tr><th>Date</th><th>Description</th><th>Value</th><th>Details</th></tr></thead><tbody><tr><td><span><span>Resulted on:</span></span><span><br/></span><span>2-Oct-2012</span></td><td><span>Sinus CT</span></td><td><span>Normal</span></td><td><span>Site: </span><span><span>Lower Respiratory Tract Structure</span></span></td></tr></tbody></table></div>"
        },
        "mode": "snapshot",
        "entry": [ {
          "reference": "Observation/0c22c5eb-b245-48e8-b74c-47635ce4478c",
          "display": "Sinus CT"
        } ]
      }, {
        "title": "Allergies and Adverse Reactions",
        "code": {
          "coding": [ {
            "system": "http://loinc.org",
            "code": "48765-2",
            "display": "Allergies, adverse reactions, alerts"
          } ]
        },
        "text": {
          "status": "additional",
          "div": "<div xmlns=\"http://www.w3.org/1999/xhtml\"><table><thead><tr><th>Name</th><th>Dates</th><th>Details</th></tr></thead><tbody><tr><td><span><span>Penicillin G benzathine</span></span></td><td><span><span><span>Onset<span>:</span></span><span>10-Jan-1998</span></span></span></td><td><span><span><span>Reaction: </span><span>Hives</span></span></span><span><br/></span><span><span>Status: </span><span>Active</span></span></td></tr><tr><td><span><span>Aspirin</span></span></td><td><span/></td><td><span><span><span>Reaction: </span><span>Nausea</span></span></span><span><br/></span><span><span>Status: </span><span>Active</span></span></td></tr></tbody></table></div>"
        },
        "mode": "snapshot",
        "entry": [ {
          "reference": "AllergyIntolerance/8fb07f21-4405-4a14-906d-74fbc0863428",
          "display": "Penicillin G benzathine"
        }, {
          "reference": "AllergyIntolerance/79c3e612-5826-4a77-ac6f-89717f5644de",
          "display": "Aspirin"
        } ]
      } ]
    }
  }, {
    "resource": {
      "resourceType": "Patient",
      "id": "2e5c0a7d-e86e-4841-bc79-cd93e3da1a3c",
      "extension": [ {
        "url": "http://hl7.org/fhir/us/core/StructureDefinition/us-core-race",
        "extension": [ {
          "url": "text",
          "valueString": "White"
        }, {
          "url": "ombCategory",
          "valueCoding": {
            "system": "urn:oid:2.16.840.1.113883.6.238",
            "code": "2106-3",
            "display": "White"
          }
        } ]
      }, {
        "url": "http://hl7.org/fhir/us/core/StructureDefinition/us-core-ethnicity",
        "extension": [ {
          "url": "text",
          "valueString": "Not Hispanic or Latino"
        }, {
          "url": "ombCategory",
          "valueCoding": {
            "system": "urn:oid:2.16.840.1.113883.6.238",
            "code": "2186-5",
            "display": "Not Hispanic or Latino"
          }
        } ]
      } ],
      "identifier": [ {
        "use": "official",
        "system": "urn:oid:1.3.6.1.4.1.22812.3.99930.3",
        "value": "110107073916280"
      } ],
      "name": [ {
        "family": "Grant",
        "given": [ "Mary" ]
      } ],
      "telecom": [ {
        "system": "phone",
        "value": "+1-(555)555-3333",
        "use": "home"
      } ],
      "gender": "female",
      "birthDate": "1987-03-21",
      "address": [ {
        "use": "home",
        "line": [ "1234 Six Forks" ],
        "city": "Portland",
        "state": "OR",
        "postalCode": "97005",
        "country": "US"
      } ],
      "communication": [ {
        "language": {
          "coding": [ {
            "system": "urn:ietf:bcp:47",
            "code": "eng"
          } ]
        },
        "preferred": true
      } ],
      "managingOrganization": {
        "reference": "Organization/b16cab16-daa5-4010-b144-431e8be00ca6",
        "display": "Local Community Hospital"
      }
    }
  }, {
    "resource": {
      "resourceType": "Organization",
      "id": "b16cab16-daa5-4010-b144-431e8be00ca6",
      "identifier": [ {
        "use": "official",
        "system": "urn:oid:1.3.6.1.4.1.22812.3.99930.3",
        "value": "3"
      } ],
      "name": "Local Community Hospital",
      "telecom": [ {
        "system": "phone",
        "value": "+1-(555)555-1122"
      } ],
      "address": [ {
        "line": [ "1000 Hospital Way" ],
        "city": "Portland",
        "state": "OR",
        "postalCode": "97005",
        "country": "US"
      } ]
    }
  }, {
    "resource": {
      "resourceType": "Practitioner",
      "id": "44882bd2-2ca8-4f28-a5b4-e6ed481a4cd8",
      "identifier": [ {
        "use": "official",
        "system": "urn:oid:2.16.840.1.113883.4.6",
        "value": "1111111111"
      }, {
        "use": "official",
        "system": "urn:oid:1.3.6.1.4.1.22812.3.99930.3",
        "value": "91138"
      } ],
      "name": [ {
        "family": "Rodriguez",
        "given": [ "Martin" ],
        "prefix": [ "Dr" ]
      } ],
      "telecom": [ {
        "system": "phone",
        "value": "+1-(555)555-1122"
      } ],
      "address": [ {
        "line": [ "1002 Healthcare Dr." ],
        "city": "Portland",
        "state": "OR",
        "postalCode": "97005",
        "country": "US"
      } ]
    }
  }, {
    "resource": {
      "resourceType": "Device",
      "id": "2a5fb3bc-3d93-4b5d-944c-f3a830375296",
      "identifier": [ {
        "use": "official",
        "system": "urn:oid:1.3.6.1.4.1.22812.3.99930.3.3.3",
        "value": "3"
      } ],
      "manufacturer": "Enterprise EHR Clinical System 11.200.4210.17305",
      "type": {
        "coding": [ {
          "display": "Enterprise EHR Clinical System 11.200.4210.17305"
        } ]
      },
      "version": [ {
        "value": "Enterprise EHR Clinical System 11.200.4210.17305; Transform 4.1.1.18"
      } ],
      "owner": {
        "reference": "Organization/b16cab16-daa5-4010-b144-431e8be00ca6"
      }
    }
  }, {
    "resource": {
      "resourceType": "Encounter",
      "id": "53dea7d4-50d6-476b-8332-7eb2eab15e38",
      "identifier": [ {
        "use": "official",
        "system": "urn:oid:1.3.6.1.4.1.22812.3.99930.3.3.4",
        "value": "5283815"
      } ],
      "status": "finished",
      "type": [ {
        "coding": [ {
          "system": "http://www.ama-assn.org/go/cpt",
          "code": "99231",
          "display": "UNK"
        } ],
        "text": "In-patient Admission"
      } ],
      "subject": {
        "reference": "Patient/2e5c0a7d-e86e-4841-bc79-cd93e3da1a3c",
        "display": "Mary Grant"
      },
      "participant": [ {
        "type": [ {
          "coding": [ {
            "system": "http://terminology.hl7.org/CodeSystem/v3-ParticipationType",
            "code": "PART",
            "display": "Participation"
          } ]
        } ],
        "period": {
          "start": "2012-10-02",
          "end": "2012-10-05"
        },
        "individual": {
          "reference": "Practitioner/44882bd2-2ca8-4f28-a5b4-e6ed481a4cd8",
          "display": "Dr Martin Rodriguez"
        }
      } ],
      "period": {
        "start": "2012-10-02",
        "end": "2012-10-05"
      },
      "reasonReference": [ {
        "reference": "Condition/afceafd3-10ad-4c95-91d1-a52c7be58dc9"
      } ],
      "diagnosis": [ {
        "condition": {
          "reference": "Condition/683cbd84-f759-40e7-87d1-bacd164ec83d",
          "display": "Neoplasm of accessory sinus"
        }
      } ],
      "location": [ {
        "location": {
          "reference": "Location/8d12b5b7-ea49-4f0e-84f2-ca9c65d5014c",
          "display": "Local Community Hospital"
        }
      } ]
    }
  }, {
    "resource": {
      "resourceType": "Condition",
      "id": "afceafd3-10ad-4c95-91d1-a52c7be58dc9",
      "identifier": [ {
        "use": "official",
        "system": "urn:oid:1.3.6.1.4.1.22812.3.99930.3.4.1.3",
        "value": "147852"
      } ],
      "category": [ {
        "coding": [ {
          "system": "http://hl7.org/fhir/condition-category",
          "code": "encounter-diagnosis",
          "display": "Encounter Diagnosis"
        } ]
      } ],
      "subject": {
        "reference": "Patient/2e5c0a7d-e86e-4841-bc79-cd93e3da1a3c",
        "display": "Mary Grant"
      }
    }
  }, {
    "resource": {
      "resourceType": "Condition",
      "id": "683cbd84-f759-40e7-87d1-bacd164ec83d",
      "identifier": [ {
        "use": "official",
        "system": "urn:oid:1.3.6.1.4.1.22812.3.99930.3.4.1.2.1",
        "value": "55412"
      } ],
      "clinicalStatus": {
        "coding": [ {
          "system": "http://terminology.hl7.org/CodeSystem/condition-clinical",
          "code": "active",
          "display": "Active"
        } ]
      },
      "verificationStatus": {
        "coding": [ {
          "system": "http://terminology.hl7.org/CodeSystem/condition-ver-status",
          "code": "confirmed",
          "display": "Confirmed"
        } ]
      },
      "category": [ {
        "coding": [ {
          "system": "http://terminology.hl7.org/CodeSystem/condition-category",
          "code": "problem-list-item",
          "display": "Problem List Item"
        } ]
      } ],
      "code": {
        "coding": [ {
          "system": "http://snomed.info/sct",
          "code": "126675008",
          "display": "Neoplasm of accessory sinus"
        } ],
        "text": "Neoplasm of accessory sinus"
      },
      "subject": {
        "reference": "Patient/2e5c0a7d-e86e-4841-bc79-cd93e3da1a3c",
        "display": "Mary Grant"
      },
      "onsetDateTime": "2012-10-02T10:00:51+02:00"
    }
  }, {
    "resource": {
      "resourceType": "Location",
      "id": "8d12b5b7-ea49-4f0e-84f2-ca9c65d5014c",
      "name": "Local Community Hospital",
      "telecom": [ {
        "system": "phone",
        "value": "+1-(555)555-1122"
      } ],
      "address": {
        "line": [ "1000 Hospital Way" ],
        "city": "Portland",
        "state": "OR",
        "postalCode": "97005",
        "country": "US"
      }
    }
  }, {
    "resource": {
      "resourceType": "DiagnosticReport",
      "id": "9faea3d0-b0f5-4158-892b-a481e4c2c9e2",
      "identifier": [ {
        "use": "official",
        "system": "urn:oid:1.3.6.1.4.1.22812.3.99930.3.4.5",
        "value": "659988700005"
      } ],
      "status": "final",
      "category": [ {
        "coding": [ {
          "system": "http://terminology.hl7.org/CodeSystem/v2-0074",
          "code": "LAB",
          "display": "Laboratory"
        } ]
      } ],
      "code": {
        "coding": [ {
          "system": "http://www.ama-assn.org/go/cpt",
          "code": "85025",
          "display": "CBC"
        } ]
      },
      "subject": {
        "reference": "Patient/2e5c0a7d-e86e-4841-bc79-cd93e3da1a3c",
        "display": "Mary Grant"
      },
      "effectivePeriod": {
        "start": "2012-10-02"
      },
      "issued": "2012-10-02T00:00:00.000+02:00",
      "performer": [ {
        "reference": "Practitioner/eb877d60-1fed-4a89-8c23-6e2f0140638d"
      } ],
      "result": [ {
        "reference": "Observation/55b1795b-d872-41c5-9a5a-753a4763adcb",
        "display": "HGB"
      }, {
        "reference": "Observation/e5d1bad9-ba02-4c09-9e87-282b6d08d7f2",
        "display": "PLT"
      }, {
        "reference": "Observation/040df6e4-9ca0-41c8-a574-aa30c2648815",
        "display": "WBC"
      } ]
    }
  }, {
    "resource": {
      "resourceType": "Practitioner",
      "id": "eb877d60-1fed-4a89-8c23-6e2f0140638d"
    }
  }, {
    "resource": {
      "resourceType": "Observation",
      "id": "55b1795b-d872-41c5-9a5a-753a4763adcb",
      "identifier": [ {
        "use": "official",
        "system": "urn:oid:1.3.6.1.4.1.22812.3.99930.3.4.5",
        "value": "659988700003"
      }, {
        "use": "official",
        "system": "urn:oid:1.3.6.1.4.1.22812.3.99930.3.4.5",
        "value": "659988900003"
      } ],
      "status": "final",
      "category": [ {
        "coding": [ {
          "system": "http://terminology.hl7.org/CodeSystem/observation-category",
          "code": "laboratory"
        } ]
      } ],
      "code": {
        "coding": [ {
          "system": "http://loinc.org",
          "code": "30313-1",
          "display": "HGB"
        } ]
      },
      "subject": {
        "reference": "Patient/2e5c0a7d-e86e-4841-bc79-cd93e3da1a3c",
        "display": "Mary Grant"
      },
      "effectivePeriod": {
        "start": "2012-10-02"
      },
      "valueQuantity": {
        "value": 12.4,
        "unit": "g/dl",
        "system": "http://unitsofmeasure.org",
        "code": "g/dl"
      },
      "interpretation": [ {
        "coding": [ {
          "system": "http://terminology.hl7.org/CodeSystem/v3-ObservationInterpretation"
        } ]
      } ]
    }
  }, {
    "resource": {
      "resourceType": "Observation",
      "id": "e5d1bad9-ba02-4c09-9e87-282b6d08d7f2",
      "identifier": [ {
        "use": "official",
        "system": "urn:oid:1.3.6.1.4.1.22812.3.99930.3.4.5",
        "value": "6599887000033"
      }, {
        "use": "official",
        "system": "urn:oid:1.3.6.1.4.1.22812.3.99930.3.4.5",
        "value": "6599889000033"
      } ],
      "status": "final",
      "category": [ {
        "coding": [ {
          "system": "http://terminology.hl7.org/CodeSystem/observation-category",
          "code": "laboratory"
        } ]
      } ],
      "code": {
        "coding": [ {
          "system": "http://loinc.org",
          "code": "26515-7",
          "display": "PLT"
        } ]
      },
      "subject": {
        "reference": "Patient/2e5c0a7d-e86e-4841-bc79-cd93e3da1a3c",
        "display": "Mary Grant"
      },
      "effectivePeriod": {
        "start": "2012-10-02"
      },
      "valueQuantity": {
        "value": 255,
        "unit": "10^3/ul",
        "system": "http://unitsofmeasure.org",
        "code": "10^3/ul"
      },
      "interpretation": [ {
        "coding": [ {
          "system": "http://terminology.hl7.org/CodeSystem/v3-ObservationInterpretation"
        } ]
      } ]
    }
  }, {
    "resource": {
      "resourceType": "Observation",
      "id": "040df6e4-9ca0-41c8-a574-aa30c2648815",
      "identifier": [ {
        "use": "official",
        "system": "urn:oid:1.3.6.1.4.1.22812.3.99930.3.4.5",
        "value": "6599887000032"
      }, {
        "use": "official",
        "system": "urn:oid:1.3.6.1.4.1.22812.3.99930.3.4.5",
        "value": "6599889000032"
      } ],
      "status": "final",
      "category": [ {
        "coding": [ {
          "system": "http://terminology.hl7.org/CodeSystem/observation-category",
          "code": "laboratory"
        } ]
      } ],
      "code": {
        "coding": [ {
          "system": "http://loinc.org",
          "code": "33765-9",
          "display": "WBC"
        } ]
      },
      "subject": {
        "reference": "Patient/2e5c0a7d-e86e-4841-bc79-cd93e3da1a3c",
        "display": "Mary Grant"
      },
      "effectivePeriod": {
        "start": "2012-10-02"
      },
      "valueQuantity": {
        "value": 19.1,
        "unit": "10^3/ul",
        "system": "http://unitsofmeasure.org",
        "code": "10^3/ul"
      },
      "interpretation": [ {
        "coding": [ {
          "system": "http://terminology.hl7.org/CodeSystem/v3-ObservationInterpretation"
        } ]
      } ]
    }
  }, {
    "resource": {
      "resourceType": "CarePlan",
      "id": "9f7dbd48-41da-47d3-8776-bbc005b5f0a5",
      "text": {
        "status": "additional",
        "div": "<div xmlns=\"http://www.w3.org/1999/xhtml\"><ul><caption>Planned Observations</caption><li><table><thead><tr><th>Name</th><th>Dates</th><th>Details</th></tr></thead><tbody><tr><td><span><span><span>Goal: Weight loss</span></span></span></td><td><span><span>On </span><span>2-Oct-2012</span></span><span><br/></span><span><span/></span></td><td><span><span>Goal</span></span></td></tr></tbody></table></li></ul></div>"
      },
      "status": "active",
      "intent": "plan",
      "category": [ {
        "coding": [ {
          "system": "http://hl7.org/fhir/us/core/CodeSystem/careplan-category",
          "code": "assess-plan"
        } ]
      } ],
      "title": "Plan of Care",
      "description": "<div><ul><caption>Planned Observations</caption><li><table><thead><tr><th>Name</th><th>Dates</th><th>Details</th></tr></thead><tbody><tr><td><span><span><span>Goal: Weight loss</span></span></span></td><td><span><span>On </span><span>2-Oct-2012</span></span><span><br></br></span><span><span></span></span></td><td><span><span>Goal</span></span></td></tr></tbody></table></li></ul></div>",
      "subject": {
        "reference": "Patient/2e5c0a7d-e86e-4841-bc79-cd93e3da1a3c",
        "display": "Mary Grant"
      }
    }
  }, {
    "resource": {
      "resourceType": "Condition",
      "id": "0f841997-8894-496a-85ea-3f5012d15afb",
      "identifier": [ {
        "use": "official",
        "system": "urn:oid:1.3.6.1.4.1.22812.3.99930.3.4.1.2.1",
        "value": "636842200007"
      }, {
        "use": "official",
        "system": "urn:oid:1.3.6.1.4.1.22812.3.99930.3.4.1.2.1",
        "value": "660100900011"
      } ],
      "clinicalStatus": {
        "coding": [ {
          "system": "http://terminology.hl7.org/CodeSystem/condition-clinical",
          "code": "active",
          "display": "Active"
        } ]
      },
      "verificationStatus": {
        "coding": [ {
          "system": "http://terminology.hl7.org/CodeSystem/condition-ver-status",
          "code": "refuted",
          "display": "Refuted"
        } ]
      },
      "category": [ {
        "coding": [ {
          "system": "http://terminology.hl7.org/CodeSystem/condition-category",
          "code": "problem-list-item",
          "display": "Problem List Item"
        } ]
      } ],
      "code": {
        "coding": [ {
          "system": "http://snomed.info/sct",
          "code": "35489007",
          "display": "Depression"
        } ],
        "text": "Depression"
      },
      "subject": {
        "reference": "Patient/2e5c0a7d-e86e-4841-bc79-cd93e3da1a3c",
        "display": "Mary Grant"
      },
      "onsetDateTime": "2011-11-10T00:00:00-05:00",
      "recordedDate": "2011-11-10T00:00:00-05:00",
      "asserter": {
        "reference": "Practitioner/89510b81-c0c5-4e13-a32f-54a78ccdb2e5"
      }
    }
  }, {
    "resource": {
      "resourceType": "Practitioner",
      "id": "89510b81-c0c5-4e13-a32f-54a78ccdb2e5"
    }
  }, {
    "resource": {
      "resourceType": "Condition",
      "id": "56f2218e-6947-48ca-a64a-b534803b035a",
      "identifier": [ {
        "use": "official",
        "system": "urn:oid:1.3.6.1.4.1.22812.3.99930.3.4.1.2.1",
        "value": "6368422000070"
      }, {
        "use": "official",
        "system": "urn:oid:1.3.6.1.4.1.22812.3.99930.3.4.1.2.1",
        "value": "6601009000110"
      } ],
      "clinicalStatus": {
        "coding": [ {
          "system": "http://terminology.hl7.org/CodeSystem/condition-clinical",
          "code": "active",
          "display": "Active"
        } ]
      },
      "verificationStatus": {
        "coding": [ {
          "system": "http://terminology.hl7.org/CodeSystem/condition-ver-status",
          "code": "refuted",
          "display": "Refuted"
        } ]
      },
      "category": [ {
        "coding": [ {
          "system": "http://terminology.hl7.org/CodeSystem/condition-category",
          "code": "problem-list-item",
          "display": "Problem List Item"
        } ]
      } ],
      "code": {
        "coding": [ {
          "system": "http://snomed.info/sct",
          "code": "40930008",
          "display": "Hypothroidism"
        } ],
        "text": "Hypothroidism"
      },
      "subject": {
        "reference": "Patient/2e5c0a7d-e86e-4841-bc79-cd93e3da1a3c",
        "display": "Mary Grant"
      },
      "onsetDateTime": "2010-04-15T01:00:00-04:00",
      "recordedDate": "2010-04-15T01:00:00-04:00",
      "asserter": {
        "reference": "Practitioner/8ecf237e-5395-4950-97d3-0c843d869e56"
      }
    }
  }, {
    "resource": {
      "resourceType": "Practitioner",
      "id": "8ecf237e-5395-4950-97d3-0c843d869e56"
    }
  }, {
    "resource": {
      "resourceType": "Condition",
      "id": "aacf8498-648e-479b-b9c9-a5d91d9f418e",
      "identifier": [ {
        "use": "official",
        "system": "urn:oid:1.3.6.1.4.1.22812.3.99930.3.4.1.2.1",
        "value": "615028800003"
      }, {
        "use": "official",
        "system": "urn:oid:1.3.6.1.4.1.22812.3.99930.3.4.1.2.1",
        "value": "659935200001"
      } ],
      "clinicalStatus": {
        "coding": [ {
          "system": "http://terminology.hl7.org/CodeSystem/condition-clinical",
          "code": "active",
          "display": "Active"
        } ]
      },
      "verificationStatus": {
        "coding": [ {
          "system": "http://terminology.hl7.org/CodeSystem/condition-ver-status",
          "code": "refuted",
          "display": "Refuted"
        } ]
      },
      "category": [ {
        "coding": [ {
          "system": "http://terminology.hl7.org/CodeSystem/condition-category",
          "code": "problem-list-item",
          "display": "Problem List Item"
        } ]
      } ],
      "code": {
        "coding": [ {
          "system": "http://snomed.info/sct",
          "code": "36971009",
          "display": "Sinusitis"
        } ],
        "text": "Sinusitis"
      },
      "subject": {
        "reference": "Patient/2e5c0a7d-e86e-4841-bc79-cd93e3da1a3c",
        "display": "Mary Grant"
      },
      "onsetDateTime": "2012-09-20",
      "recordedDate": "2012-06-20T01:00:00-04:00",
      "asserter": {
        "reference": "Practitioner/9f9c4bc6-4764-420c-93a8-7c994ebfcc9a"
      }
    }
  }, {
    "resource": {
      "resourceType": "Practitioner",
      "id": "9f9c4bc6-4764-420c-93a8-7c994ebfcc9a"
    }
  }, {
    "resource": {
      "resourceType": "Immunization",
      "id": "8ada9a67-30ba-46d2-a424-b987eea88946",
      "identifier": [ {
        "use": "official",
        "system": "urn:oid:1.3.6.1.4.1.22812.3.99930.3.4.4",
        "value": "637382500009"
      }, {
        "use": "official",
        "system": "urn:oid:1.3.6.1.4.1.22812.3.99930.3.4.4",
        "value": "637382500011"
      } ],
      "status": "completed",
      "vaccineCode": {
        "coding": [ {
          "system": "http://www2a.cdc.gov/vaccines/iis/iisstandards/vaccines.asp?rpt=cvx",
          "code": "88",
          "display": "Influenza virus vaccine"
        } ],
        "text": "Influenza virus vaccine"
      },
      "patient": {
        "reference": "Patient/2e5c0a7d-e86e-4841-bc79-cd93e3da1a3c",
        "display": "Mary Grant"
      },
      "occurrenceDateTime": "2012-10-02",
      "primarySource": true,
      "site": {
        "coding": [ {
          "system": "http://snomed.info/sct",
          "code": "368208006",
          "display": "Left Arm"
        } ]
      },
      "route": {
        "coding": [ {
          "system": "http://www.nlm.nih.gov/research/umls/nci",
          "code": "C28161",
          "display": "INTRAMUSCULAR"
        } ]
      },
      "performer": [ {
        "function": {
          "coding": [ {
            "system": "http://hl7.org/fhir/v2/0443",
            "code": "AP",
            "display": "Administering Provider"
          } ]
        },
        "actor": {
          "reference": "Practitioner/0601f58e-4c41-4a01-999c-682ec5288404",
          "display": "Nancy Nightingale RN"
        }
      } ]
    }
  }, {
    "resource": {
      "resourceType": "Practitioner",
      "id": "0601f58e-4c41-4a01-999c-682ec5288404",
      "identifier": [ {
        "use": "official",
        "system": "urn:oid:1.3.6.1.4.1.22812.3.99930.3",
        "value": "3333"
      } ],
      "name": [ {
        "family": "Nightingale",
        "given": [ "Nancy" ],
        "suffix": [ "RN" ]
      } ],
      "telecom": [ {
        "system": "phone",
        "value": "+1-(555)555-1014"
      } ],
      "address": [ {
        "line": [ "Get Well Clinic", "1004 Healthcare Dr." ],
        "city": "Portland",
        "state": "OR",
        "postalCode": "97005",
        "country": "US"
      } ]
    }
  }, {
    "resource": {
      "resourceType": "Observation",
      "id": "8888e0f7-c31a-4bdd-be3b-7c1e284a6997",
      "status": "final",
      "code": {
        "coding": [ {
          "system": "urn:oid:2.16.840.1.113883.5.4",
          "code": "ASSERTION",
          "display": "Assertion"
        } ]
      },
      "subject": {
        "reference": "Patient/2e5c0a7d-e86e-4841-bc79-cd93e3da1a3c",
        "display": "Mary Grant"
      },
      "effectivePeriod": {
        "start": "2012"
      },
      "issued": "2012-09-20T10:00:51+02:00",
      "performer": [ {
        "reference": "Practitioner/a6b6070b-68bf-41c1-8afd-15e5a1d41d39"
      } ],
      "valueCodeableConcept": {
        "coding": [ {
          "system": "http://snomed.info/sct",
          "code": "266919005",
          "display": "Never smoker"
        } ]
      }
    }
  }, {
    "resource": {
      "resourceType": "Practitioner",
      "id": "a6b6070b-68bf-41c1-8afd-15e5a1d41d39"
    }
  }, {
    "resource": {
      "resourceType": "Observation",
      "id": "0c22c5eb-b245-48e8-b74c-47635ce4478c",
      "identifier": [ {
        "use": "official",
        "system": "urn:oid:1.3.6.1.4.1.22812.3.99930.3.4.7",
        "value": "11144556"
      } ],
      "status": "preliminary",
      "code": {
        "coding": [ {
          "system": "http://snomed.info/sct",
          "code": "241526005",
          "display": "Sinus CT"
        } ],
        "text": "Sinus CT"
      },
      "subject": {
        "reference": "Patient/2e5c0a7d-e86e-4841-bc79-cd93e3da1a3c",
        "display": "Mary Grant"
      },
      "effectivePeriod": {
        "start": "2012-10-02"
      },
      "performer": [ {
        "reference": "Practitioner/44882bd2-2ca8-4f28-a5b4-e6ed481a4cd8",
        "display": "Dr Martin Rodriguez"
      } ],
      "valueString": "Normal",
      "bodySite": {
        "coding": [ {
          "system": "http://snomed.info/sct",
          "code": "82094008",
          "display": "Lower Respiratory Tract Structure"
        } ]
      }
    }
  }, {
    "resource": {
      "resourceType": "AllergyIntolerance",
      "id": "8fb07f21-4405-4a14-906d-74fbc0863428",
      "identifier": [ {
        "use": "official",
        "system": "urn:oid:1.3.6.1.4.1.22812.3.99930.3.4.10",
        "value": "613618700107"
      }, {
        "use": "official",
        "system": "urn:oid:1.3.6.1.4.1.22812.3.99930.3.4.10",
        "value": "613618700109"
      } ],
      "clinicalStatus": {
        "coding": [ {
          "system": "http://terminology.hl7.org/CodeSystem/allergyintolerance-clinical",
          "code": "active",
          "display": "Active"
        } ]
      },
      "verificationStatus": {
        "coding": [ {
          "system": "http://terminology.hl7.org/CodeSystem/allergyintolerance-verification",
          "code": "confirmed",
          "display": "Confirmed"
        } ]
      },
      "type": "allergy",
      "category": [ "medication" ],
      "code": {
        "coding": [ {
          "system": "http://www.nlm.nih.gov/research/umls/rxnorm",
          "code": "7982",
          "display": "Penicillin G benzathine"
        } ],
        "text": "Penicillin G benzathine"
      },
      "patient": {
        "reference": "Patient/2e5c0a7d-e86e-4841-bc79-cd93e3da1a3c",
        "display": "Mary Grant"
      },
      "onsetDateTime": "1998-01-10",
      "recordedDate": "1998-01-10",
      "recorder": {
        "reference": "Practitioner/426b9a13-2eb0-4611-a02a-26137db4076e"
      },
      "reaction": [ {
        "manifestation": [ {
          "coding": [ {
            "system": "http://snomed.info/sct",
            "code": "247472004",
            "display": "Hives"
          } ],
          "text": "Hives"
        } ]
      } ]
    }
  }, {
    "resource": {
      "resourceType": "Practitioner",
      "id": "426b9a13-2eb0-4611-a02a-26137db4076e"
    }
  }, {
    "resource": {
      "resourceType": "AllergyIntolerance",
      "id": "79c3e612-5826-4a77-ac6f-89717f5644de",
      "identifier": [ {
        "use": "official",
        "system": "urn:oid:1.3.6.1.4.1.22812.3.99930.3.4.10",
        "value": "613618700100"
      }, {
        "use": "official",
        "system": "urn:oid:1.3.6.1.4.1.22812.3.99930.3.4.10",
        "value": "6136187001091"
      } ],
      "clinicalStatus": {
        "coding": [ {
          "system": "http://terminology.hl7.org/CodeSystem/allergyintolerance-clinical",
          "code": "active",
          "display": "Active"
        } ]
      },
      "verificationStatus": {
        "coding": [ {
          "system": "http://terminology.hl7.org/CodeSystem/allergyintolerance-verification",
          "code": "confirmed",
          "display": "Confirmed"
        } ]
      },
      "type": "allergy",
      "category": [ "medication" ],
      "code": {
        "coding": [ {
          "system": "http://www.nlm.nih.gov/research/umls/rxnorm",
          "code": "1191",
          "display": "Aspirin"
        } ],
        "text": "Aspirin"
      },
      "patient": {
        "reference": "Patient/2e5c0a7d-e86e-4841-bc79-cd93e3da1a3c",
        "display": "Mary Grant"
      },
      "recorder": {
        "reference": "Practitioner/b21f3973-b71e-45e7-875e-db52f808bb63"
      },
      "reaction": [ {
        "manifestation": [ {
          "coding": [ {
            "system": "http://snomed.info/sct",
            "code": "422587007",
            "display": "Nausea"
          } ],
          "text": "Nausea"
        } ]
      } ]
    }
  }, {
    "resource": {
      "resourceType": "Practitioner",
      "id": "b21f3973-b71e-45e7-875e-db52f808bb63"
    }
  } ]
}