{
  "resourceType": "Bundle",
  "entry": [ {
    "resource": {
      "resourceType": "Composition",
      "id": "9244e1f6-4c6b-49a8-aec4-7fe5fcaee12e",
      "identifier": {
        "use": "official",
        "system": "urn:oid:1.3.6.1.4.1.22812.3.99930.3.1",
        "value": "66670992"
      },
      "status": "preliminary",
      "type": {
        "coding": [ {
          "system": "http://loinc.org",
          "code": "34133-9",
          "display": "SUMMARIZATION OF EPISODE NOTE"
        } ]
      },
      "category": [ {
        "coding": [ {
          "system": "http://hl7.org/fhir/ValueSet/doc-classcodes",
          "code": "LP173421-7",
          "display": "Note"
        } ]
      } ],
      "subject": {
        "reference": "Patient/8daeca14-d628-4298-ac90-a1842973e303",
        "display": "Kari Kidd"
      },
      "date": "2012-01-30T08:00:51-05:00",
      "author": [ {
        "reference": "Practitioner/b5b598d8-4e0a-43cc-b548-d932b8e8a2a7",
        "display": "Dr Karen K Kidder"
      }, {
        "reference": "Device/2a4bad8f-c9ff-42c1-9063-098eade799af"
      } ],
      "title": "Summary of Care",
      "confidentiality": "V",
      "attester": [ {
        "mode": "legal",
        "time": "2012-01-30T08:00:51-05:00",
        "party": {
          "reference": "Practitioner/b5b598d8-4e0a-43cc-b548-d932b8e8a2a7",
          "display": "Dr Karen K Kidder"
        }
      }, {
        "mode": "professional",
        "time": "2012-01-30T08:00:51-05:00",
        "party": {
          "reference": "Practitioner/b5b598d8-4e0a-43cc-b548-d932b8e8a2a7",
          "display": "Dr Karen K Kidder"
        }
      } ],
      "custodian": {
        "reference": "Organization/24b74457-b19a-4443-9bb3-958fe31aa15d",
        "display": "Get Well Clinic"
      },
      "event": [ {
        "period": {
          "start": "2013-01-30T09:00:51+01:00",
          "end": "2012-01-30T08:00:51-05:00"
        },
        "detail": [ {
          "reference": "Practitioner/b5b598d8-4e0a-43cc-b548-d932b8e8a2a7",
          "display": "Dr Karen K Kidder"
        }, {
          "reference": "Practitioner/78ae86d5-6a7c-443e-b77c-9a6125441dfe",
          "display": "Dr Penny Puffer"
        } ]
      } ],
      "section": [ {
        "title": "Problems",
        "code": {
          "coding": [ {
            "system": "http://loinc.org",
            "code": "11450-4",
            "display": "Problem List"
          } ]
        },
        "text": {
          "status": "additional",
          "div": "<div xmlns=\"http://www.w3.org/1999/xhtml\"><table><thead><tr><th>Name</th><th>Dates</th><th>Details</th></tr></thead><tbody><tr><td><span><span>Flu-like illness</span></span><span><span/></span><span><br/></span></td><td><span><span>Onset<span>:</span></span><span>30-Jan-2013</span></span></td><td><span><span><span>Status: </span><span>Active</span></span></span></td></tr><tr><td><span><span>Asthma</span></span><span><span/></span><span><br/></span></td><td><span><span>Onset<span>:</span></span><span>12-Mar-2011</span></span></td><td><span><span><span>Status: </span><span>Active</span></span></span></td></tr></tbody></table></div>"
        },
        "mode": "snapshot",
        "entry": [ {
          "reference": "Condition/dfdce474-bd80-4da0-823b-2a35460d6d08",
          "display": "Flu-like illness"
        }, {
          "reference": "Condition/6c4b7115-dd9e-428e-99f1-62f6c7ee39bb",
          "display": "Asthma"
        } ]
      }, {
        "title": "Immunization",
        "code": {
          "coding": [ {
            "system": "http://loinc.org",
            "code": "11369-6",
            "display": "Immunizations"
          } ]
        },
        "text": {
          "status": "additional",
          "div": "<div xmlns=\"http://www.w3.org/1999/xhtml\"><table><thead><tr><th>Name</th><th>Dates</th><th>Details</th></tr></thead><tbody><tr><td><span><span>Measles, Mumps and Rubella virus vaccine</span></span><span><br/></span></td><td><span><span>Administered on<span>:</span></span><span>12-Mar-2011</span></span></td><td><span><span> Site: </span><span><span>Left Arm</span></span></span><span><br/></span></td></tr></tbody></table></div>"
        },
        "mode": "snapshot",
        "entry": [ {
          "reference": "Immunization/b22ac4d0-9568-429f-b590-1b9481e193b5",
          "display": "Measles, Mumps and Rubella virus vaccine"
        } ]
      }, {
        "title": "Plan of Care",
        "code": {
          "coding": [ {
            "system": "http://loinc.org",
            "code": "18776-5",
            "display": "Plan of Care"
          } ]
        },
        "text": {
          "status": "additional",
          "div": "<div xmlns=\"http://www.w3.org/1999/xhtml\"><ul><caption>Planned Observations</caption><li><table><thead><tr><th>Name</th><th>Dates</th><th>Details</th></tr></thead><tbody><tr><td><span><span><span>Goal: Asthma Management</span></span></span></td><td><span><span>On </span><span>12-Mar-2011</span></span><span><br/></span><span><span/></span></td><td><span><span>Goal</span></span></td></tr><tr><td><span><span><span>Goal: Weight Loss</span></span></span></td><td><span><span>On </span><span>12-Mar-2011</span></span><span><br/></span><span><span/></span></td><td><span><span>Goal</span></span></td></tr></tbody></table></li></ul><ul><caption>Planned Encounters</caption><li><table><tbody><tr><td><span><span>Pulmonary function Tests</span></span><span><br/></span><span><span>Encounter Reason: </span><span>Pulmonary function Tests (reason)</span></span><span><span>Dr. Penny Puffer Office - need office address</span></span><span><br/></span><span><br/></span><span><span> Puffer</span>, Penny Dr </span></td><td><span><span>On </span><span>1-Feb-2013</span></span><span><br/></span><span><span>00:00</span></span></td></tr></tbody></table></li></ul><ul><caption>Planned Procedures</caption><li><table><thead><tr><th>Name</th><th>Dates</th><th>Details</th></tr></thead><tbody><tr><td><span><span><span>Chest X-Ray, PA and Lateral Views</span></span></span><span><span>By: </span><span><span> Kidder</span>, Karen Dr </span></span></td><td><span>On </span><span>30-Jan-2013</span></td><td><span><span>Request</span></span><span>Site: </span><span>Lower Respiratory Tract Structure</span></td></tr></tbody></table></li></ul></div>"
        },
        "mode": "snapshot",
        "entry": [ {
          "reference": "CarePlan/a88f02cf-5b96-4b00-8955-a3926522a8a4"
        } ]
      }, {
        "title": "Medications",
        "code": {
          "coding": [ {
            "system": "http://loinc.org",
            "code": "10160-0",
            "display": "History of medication use"
          } ]
        },
        "text": {
          "status": "additional",
          "div": "<div xmlns=\"http://www.w3.org/1999/xhtml\"><table><thead><tr><th>Name</th><th>Dates</th><th>Details</th></tr></thead><tbody><tr><td><span><span>Oseltamivir 30 MG Oral Capsule</span></span><span><br/></span><span><span><span>TAKE 1 CAPSULE Q12H AS DIRECTED</span></span></span><span><br/></span><span><span><span>Take one 30 mg capsule every 12 hours until all consumed</span></span></span></td><td/><td><ul><li><table><tbody><tr><td><span> Started </span>30-Jan-2013</td></tr></tbody></table></li></ul><span><span/><span>Active</span></span></td></tr><tr><td><span><span>Albuterol 0.09 MG/ ACTUAT metered dose</span></span><span><br/></span><span><span><span>Take 2 puffs qid PRN</span></span></span><span><br/></span><span><span><span>2 puffs four times per day as needed for wheezing</span></span></span></td><td><span><br/></span><span><span> Kidder</span>, Karen Dr </span></td><td><ul><li><table><tbody><tr><td><span> Started </span>30-Jan-2010</td></tr></tbody></table></li></ul><span><span/><span>Active</span></span><span><span> Indication : </span><span>Asthma</span></span><span><br/></span></td></tr></tbody></table></div>"
        },
        "mode": "snapshot"
      }, {
        "title": "Procedures",
        "code": {
          "coding": [ {
            "system": "http://loinc.org",
            "code": "47519-4",
            "display": "History of Procedures"
          } ]
        },
        "text": {
          "status": "additional",
          "div": "<div xmlns=\"http://www.w3.org/1999/xhtml\"><table><thead><tr><th>Procedure</th><th>Dates</th><th>Details</th></tr></thead><tbody><tr><td><span>No Known Procedures</span></td><td/><td/></tr></tbody></table></div>"
        },
        "mode": "snapshot",
        "entry": [ {
          "reference": "Procedure/38dfdf52-b103-4186-93ec-c9b20b3888af"
        } ]
      }, {
        "title": "Functional Status",
        "code": {
          "coding": [ {
            "system": "http://loinc.org",
            "code": "47420-5",
            "display": "Functional Status"
          } ]
        },
        "text": {
          "status": "additional",
          "div": "<div xmlns=\"http://www.w3.org/1999/xhtml\"><ul><caption>Functional Status Health Issues</caption><li><table><thead><tr><th>Name</th><th>Dates</th><th>Details</th></tr></thead><tbody><tr><td><span><span>No Functional Impairment</span></span><span><span/></span><span><br/></span></td><td><span><span>Onset<span>:</span></span><span>30-Jan-2013</span></span></td><td><span><span><span>Status: </span><span/></span></span></td></tr></tbody></table></li></ul><ul><caption>Cognitive Status Health Issues</caption><li><table><thead><tr><th>Name</th><th>Dates</th><th>Details</th></tr></thead><tbody><tr><td><span><span>No Cognitive Impairment</span></span><span><span/></span><span><br/></span></td><td><span><span>Onset<span>:</span></span><span>30-Jan-2013</span></span></td><td><span><span><span>Status: </span><span/></span></span></td></tr></tbody></table></li></ul></div>"
        },
        "mode": "snapshot"
      }, {
        "title": "Results",
        "code": {
          "coding": [ {
            "system": "http://loinc.org",
            "code": "30954-2",
            "display": "Relevant diagnostic tests and/or laboratory data"
          } ]
        },
        "text": {
          "status": "additional",
          "div": "<div xmlns=\"http://www.w3.org/1999/xhtml\"><table><thead><tr><th>Date</th><th>Description</th><th>Value</th><th>Details</th></tr></thead><tbody><tr><td><span>Resulted on:</span><span><br/></span><span>30-Jan-2013 09:33</span></td><td colspan=\"2\"><span>CBC</span></td><td/><td/></tr><tr><td/><td><span>HGB</span></td><td><span>14.5  g/dl</span></td><td/></tr><tr><td/><td><span>HCT</span></td><td><span>50  %</span></td><td/></tr><tr><td/><td><span>WBC</span></td><td><span>5.2  10^3/ul</span></td><td/></tr><tr><td/><td><span>PLT</span></td><td><span>388  10^3/ul</span></td><td/></tr></tbody></table></div>"
        },
        "mode": "snapshot",
        "entry": [ {
          "reference": "DiagnosticReport/d379917d-b865-486f-af12-af1a5dd3cdca",
          "display": "CBC"
        } ]
      }, {
        "title": "Allergies and Adverse Reactions",
        "code": {
          "coding": [ {
            "system": "http://loinc.org",
            "code": "48765-2",
            "display": "Allergies, adverse reactions, alerts"
          } ]
        },
        "text": {
          "status": "additional",
          "div": "<div xmlns=\"http://www.w3.org/1999/xhtml\"><table><thead><tr><th>Name</th><th>Dates</th><th>Details</th></tr></thead><tbody><tr><td><span><span>Penicillin G benzathine</span></span></td><td><span><span><span>Onset<span>:</span></span><span>10-Jan-2005</span></span></span></td><td><span><span><span>Reaction: </span><span>Hives</span></span></span><span><br/></span><span><span>Status: </span><span>Active</span></span></td></tr></tbody></table></div>"
        },
        "mode": "snapshot",
        "entry": [ {
          "reference": "AllergyIntolerance/b355d23e-d6c8-4c70-8c6e-b7a7c007501b",
          "display": "Penicillin G benzathine"
        } ]
      }, {
        "title": "Encounters",
        "code": {
          "coding": [ {
            "system": "http://loinc.org",
            "code": "46240-8",
            "display": "Encounters"
          } ]
        },
        "text": {
          "status": "additional",
          "div": "<div xmlns=\"http://www.w3.org/1999/xhtml\"><table><tbody><tr><td><span><span>Office Visit</span></span><span><br/></span><span><span>Encounter Diagnosis: </span><span>Flu-like illness</span></span><span><span><span>Active</span></span></span><span><span>Get Well Clinic</span></span><span><br/></span><span><br/></span><span><span> Kidder</span>, Karen Dr </span></td><td><span><span>On </span><span>30-Jan-2013</span></span><span><br/></span><span><span>09:00</span></span></td></tr><tr><td><span><span>Office Visit</span></span><span><br/></span><span><span>Encounter Diagnosis: </span><span>Asthma</span></span><span><span><span>Active</span></span></span><span><span>Get Well Clinic</span></span><span><br/></span><span><br/></span><span><span> Kidder</span>, Karen Dr </span></td><td><span><span>On </span><span>12-Mar-2011</span></span><span><br/></span><span><span>10:00</span></span></td></tr><tr><td><span><span>Office Visit</span></span><span><br/></span><span><span>Encounter Diagnosis: </span><span>Asthma</span></span><span><span><span>Active</span></span></span><span><span>Get Well Clinic</span></span><span><br/></span><span><br/></span><span><span> Kidder</span>, Karen Dr </span></td><td><span><span>On </span><span>15-Apr-2010</span></span><span><br/></span><span><span>10:00</span></span></td></tr></tbody></table></div>"
        },
        "mode": "snapshot",
        "entry": [ {
          "reference": "Encounter/58c28040-6891-4be4-8014-e46cbccbdcd9",
          "display": "Office Visit"
        }, {
          "reference": "Encounter/bb748062-525b-4624-9ab3-975bcf303974",
          "display": "Office Visit"
        }, {
          "reference": "Encounter/a98bd747-70e9-4194-a341-d70558a4a9d2",
          "display": "Office Visit"
        } ]
      }, {
        "title": "Social History",
        "code": {
          "coding": [ {
            "system": "http://loinc.org",
            "code": "29762-2",
            "display": "Social History"
          } ]
        },
        "text": {
          "status": "additional",
          "div": "<div xmlns=\"http://www.w3.org/1999/xhtml\"><ul><caption>Smoking Status</caption><li><span>Never smoker</span></li><li><span>Never smoker</span></li></ul></div>"
        },
        "mode": "snapshot",
        "entry": [ {
          "reference": "Observation/4ba13acb-c703-491c-a719-3a49393135bb",
          "display": "Assertion"
        }, {
          "reference": "Observation/237e1093-1149-4e83-b64f-d9111247798e",
          "display": "Assertion"
        } ]
      } ]
    }
  }, {
    "resource": {
      "resourceType": "Patient",
      "id": "8daeca14-d628-4298-ac90-a1842973e303",
      "extension": [ {
        "url": "http://hl7.org/fhir/us/core/StructureDefinition/us-core-race",
        "extension": [ {
          "url": "text",
          "valueString": "White"
        }, {
          "url": "ombCategory",
          "valueCoding": {
            "system": "urn:oid:2.16.840.1.113883.6.238",
            "code": "2106-3",
            "display": "White"
          }
        } ]
      }, {
        "url": "http://hl7.org/fhir/us/core/StructureDefinition/us-core-ethnicity",
        "extension": [ {
          "url": "text",
          "valueString": "Not Hispanic or Latino"
        }, {
          "url": "ombCategory",
          "valueCoding": {
            "system": "urn:oid:2.16.840.1.113883.6.238",
            "code": "2186-5",
            "display": "Not Hispanic or Latino"
          }
        } ]
      } ],
      "identifier": [ {
        "use": "official",
        "system": "urn:oid:1.3.6.1.4.1.22812.3.99930.3",
        "value": "110107073916283"
      } ],
      "name": [ {
        "family": "Kidd",
        "given": [ "Kari" ]
      } ],
      "telecom": [ {
        "system": "phone",
        "value": "+1-(555)555-3333",
        "use": "home"
      } ],
      "gender": "female",
      "birthDate": "2000-10-22",
      "address": [ {
        "use": "home",
        "line": [ "1234 Six Forks" ],
        "city": "Portland",
        "state": "OR",
        "postalCode": "97005",
        "country": "US"
      } ],
      "communication": [ {
        "language": {
          "coding": [ {
            "system": "urn:ietf:bcp:47",
            "code": "eng"
          } ]
        },
        "preferred": true
      } ],
      "managingOrganization": {
        "reference": "Organization/24b74457-b19a-4443-9bb3-958fe31aa15d",
        "display": "Get Well Clinic"
      }
    }
  }, {
    "resource": {
      "resourceType": "Organization",
      "id": "24b74457-b19a-4443-9bb3-958fe31aa15d",
      "identifier": [ {
        "use": "official",
        "system": "urn:oid:1.3.6.1.4.1.22812.3.99930.3",
        "value": "3"
      } ],
      "name": "Get Well Clinic",
      "telecom": [ {
        "system": "phone",
        "value": "+1-(555)555-1046"
      } ],
      "address": [ {
        "line": [ "1044 Healthcare Dr." ],
        "city": "Portland",
        "state": "OR",
        "postalCode": "97005",
        "country": "US"
      } ]
    }
  }, {
    "resource": {
      "resourceType": "Practitioner",
      "id": "b5b598d8-4e0a-43cc-b548-d932b8e8a2a7",
      "identifier": [ {
        "use": "official",
        "system": "urn:oid:2.16.840.1.113883.4.6",
        "value": "1111111111"
      }, {
        "use": "official",
        "system": "urn:oid:1.3.6.1.4.1.22812.3.99930.3",
        "value": "91138"
      } ],
      "name": [ {
        "family": "Kidder",
        "given": [ "Karen", "K" ],
        "prefix": [ "Dr" ]
      } ],
      "telecom": [ {
        "system": "phone",
        "value": "+1-(555)555-1046"
      } ],
      "address": [ {
        "line": [ "1044 Healthcare Dr." ],
        "city": "Portland",
        "state": "OR",
        "postalCode": "97005",
        "country": "US"
      } ]
    }
  }, {
    "resource": {
      "resourceType": "Device",
      "id": "2a4bad8f-c9ff-42c1-9063-098eade799af",
      "identifier": [ {
        "use": "official",
        "system": "urn:oid:1.3.6.1.4.1.22812.3.99930.3.3.3",
        "value": "3"
      } ],
      "manufacturer": "Sunrise Clinical Systems 11.200.4210.17305",
      "type": {
        "coding": [ {
          "display": "Sunrise Clinical Systems 11.200.4210.17305"
        } ]
      },
      "version": [ {
        "value": "Sunrise Clinical Systems 11.200.4210.17305; Transform 4.1.1.18"
      } ],
      "owner": {
        "reference": "Organization/24b74457-b19a-4443-9bb3-958fe31aa15d"
      }
    }
  }, {
    "resource": {
      "resourceType": "Practitioner",
      "id": "78ae86d5-6a7c-443e-b77c-9a6125441dfe",
      "identifier": [ {
        "use": "official",
        "system": "http://hl7.org/fhir/sid/us-npi",
        "value": "2222222222"
      } ],
      "name": [ {
        "family": "Puffer",
        "given": [ "Penny" ],
        "prefix": [ "Dr" ]
      } ],
      "telecom": [ {
        "system": "phone",
        "value": "+1-(555)555-1049"
      } ],
      "address": [ {
        "line": [ "1047 Healthcare Drive" ],
        "city": "Portland",
        "state": "OR",
        "postalCode": "97005",
        "country": "US"
      } ]
    }
  }, {
    "resource": {
      "resourceType": "Condition",
      "id": "dfdce474-bd80-4da0-823b-2a35460d6d08",
      "identifier": [ {
        "use": "official",
        "system": "urn:oid:1.3.6.1.4.1.22812.3.99930.3.4.1.2.1",
        "value": "636842200009"
      }, {
        "use": "official",
        "system": "urn:oid:1.3.6.1.4.1.22812.3.99930.3.4.1.2.1",
        "value": "659935200025"
      } ],
      "clinicalStatus": {
        "coding": [ {
          "system": "http://terminology.hl7.org/CodeSystem/condition-clinical",
          "code": "active",
          "display": "Active"
        } ]
      },
      "verificationStatus": {
        "coding": [ {
          "system": "http://terminology.hl7.org/CodeSystem/condition-ver-status",
          "code": "refuted",
          "display": "Refuted"
        } ]
      },
      "category": [ {
        "coding": [ {
          "system": "http://terminology.hl7.org/CodeSystem/condition-category",
          "code": "problem-list-item",
          "display": "Problem List Item"
        } ]
      } ],
      "code": {
        "coding": [ {
          "system": "http://snomed.info/sct",
          "code": "95891005",
          "display": "Flu-like illness"
        } ],
        "text": "Flu-like illness"
      },
      "subject": {
        "reference": "Patient/8daeca14-d628-4298-ac90-a1842973e303",
        "display": "Kari Kidd"
      },
      "onsetDateTime": "2013-01-30",
      "recordedDate": "2013-01-30T00:00:00-05:00",
      "asserter": {
        "reference": "Practitioner/cf98f98e-d614-4d7a-b865-a44aebcf8db7"
      }
    }
  }, {
    "resource": {
      "resourceType": "Practitioner",
      "id": "cf98f98e-d614-4d7a-b865-a44aebcf8db7"
    }
  }, {
    "resource": {
      "resourceType": "Condition",
      "id": "6c4b7115-dd9e-428e-99f1-62f6c7ee39bb",
      "identifier": [ {
        "use": "official",
        "system": "urn:oid:1.3.6.1.4.1.22812.3.99930.3.4.1.2.1",
        "value": "636842200007"
      }, {
        "use": "official",
        "system": "urn:oid:1.3.6.1.4.1.22812.3.99930.3.4.1.2.1",
        "value": "660100900011"
      } ],
      "clinicalStatus": {
        "coding": [ {
          "system": "http://terminology.hl7.org/CodeSystem/condition-clinical",
          "code": "active",
          "display": "Active"
        } ]
      },
      "verificationStatus": {
        "coding": [ {
          "system": "http://terminology.hl7.org/CodeSystem/condition-ver-status",
          "code": "refuted",
          "display": "Refuted"
        } ]
      },
      "category": [ {
        "coding": [ {
          "system": "http://terminology.hl7.org/CodeSystem/condition-category",
          "code": "problem-list-item",
          "display": "Problem List Item"
        } ]
      } ],
      "code": {
        "coding": [ {
          "system": "http://snomed.info/sct",
          "code": "195967001",
          "display": "Asthma"
        } ],
        "text": "Asthma"
      },
      "subject": {
        "reference": "Patient/8daeca14-d628-4298-ac90-a1842973e303",
        "display": "Kari Kidd"
      },
      "onsetDateTime": "2011-03-12T00:00:00-05:00",
      "recordedDate": "2011-03-12T00:00:00-05:00",
      "asserter": {
        "reference": "Practitioner/5febfba7-22e4-4c25-ac4e-d648fa758474"
      }
    }
  }, {
    "resource": {
      "resourceType": "Practitioner",
      "id": "5febfba7-22e4-4c25-ac4e-d648fa758474"
    }
  }, {
    "resource": {
      "resourceType": "Immunization",
      "id": "b22ac4d0-9568-429f-b590-1b9481e193b5",
      "identifier": [ {
        "use": "official",
        "system": "urn:oid:1.3.6.1.4.1.22812.3.99930.3.4.4",
        "value": "637382500009"
      }, {
        "use": "official",
        "system": "urn:oid:1.3.6.1.4.1.22812.3.99930.3.4.4",
        "value": "637382500011"
      } ],
      "status": "completed",
      "vaccineCode": {
        "coding": [ {
          "system": "http://www2a.cdc.gov/vaccines/iis/iisstandards/vaccines.asp?rpt=cvx",
          "code": "03",
          "display": "MMR"
        } ],
        "text": "Measles, Mumps and Rubella virus vaccine"
      },
      "patient": {
        "reference": "Patient/8daeca14-d628-4298-ac90-a1842973e303",
        "display": "Kari Kidd"
      },
      "occurrenceDateTime": "2011-03-12",
      "primarySource": true,
      "site": {
        "coding": [ {
          "system": "http://snomed.info/sct",
          "code": "368208006",
          "display": "Left Arm"
        } ]
      },
      "route": {
        "coding": [ {
          "system": "http://www.nlm.nih.gov/research/umls/nci",
          "code": "C28161",
          "display": "INTRAMUSCULAR"
        } ]
      },
      "performer": [ {
        "function": {
          "coding": [ {
            "system": "http://hl7.org/fhir/v2/0443",
            "code": "AP",
            "display": "Administering Provider"
          } ]
        },
        "actor": {
          "reference": "Practitioner/1681773b-af72-4b8b-af87-622a4c396b87",
          "display": "Nancy Nurse RN"
        }
      } ]
    }
  }, {
    "resource": {
      "resourceType": "Practitioner",
      "id": "1681773b-af72-4b8b-af87-622a4c396b87",
      "identifier": [ {
        "use": "official",
        "system": "urn:oid:1.3.6.1.4.1.22812.3.99930.3",
        "value": "3333"
      } ],
      "name": [ {
        "family": "Nurse",
        "given": [ "Nancy" ],
        "suffix": [ "RN" ]
      } ],
      "telecom": [ {
        "system": "phone",
        "value": "+1-(555)555-4220"
      } ]
    }
  }, {
    "resource": {
      "resourceType": "CarePlan",
      "id": "a88f02cf-5b96-4b00-8955-a3926522a8a4",
      "text": {
        "status": "additional",
        "div": "<div xmlns=\"http://www.w3.org/1999/xhtml\"><ul><caption>Planned Observations</caption><li><table><thead><tr><th>Name</th><th>Dates</th><th>Details</th></tr></thead><tbody><tr><td><span><span><span>Goal: Asthma Management</span></span></span></td><td><span><span>On </span><span>12-Mar-2011</span></span><span><br/></span><span><span/></span></td><td><span><span>Goal</span></span></td></tr><tr><td><span><span><span>Goal: Weight Loss</span></span></span></td><td><span><span>On </span><span>12-Mar-2011</span></span><span><br/></span><span><span/></span></td><td><span><span>Goal</span></span></td></tr></tbody></table></li></ul><ul><caption>Planned Encounters</caption><li><table><tbody><tr><td><span><span>Pulmonary function Tests</span></span><span><br/></span><span><span>Encounter Reason: </span><span>Pulmonary function Tests (reason)</span></span><span><span>Dr. Penny Puffer Office - need office address</span></span><span><br/></span><span><br/></span><span><span> Puffer</span>, Penny Dr </span></td><td><span><span>On </span><span>1-Feb-2013</span></span><span><br/></span><span><span>00:00</span></span></td></tr></tbody></table></li></ul><ul><caption>Planned Procedures</caption><li><table><thead><tr><th>Name</th><th>Dates</th><th>Details</th></tr></thead><tbody><tr><td><span><span><span>Chest X-Ray, PA and Lateral Views</span></span></span><span><span>By: </span><span><span> Kidder</span>, Karen Dr </span></span></td><td><span>On </span><span>30-Jan-2013</span></td><td><span><span>Request</span></span><span>Site: </span><span>Lower Respiratory Tract Structure</span></td></tr></tbody></table></li></ul></div>"
      },
      "status": "active",
      "intent": "plan",
      "category": [ {
        "coding": [ {
          "system": "http://hl7.org/fhir/us/core/CodeSystem/careplan-category",
          "code": "assess-plan"
        } ]
      } ],
      "title": "Plan of Care",
      "description": "<div><ul><caption>Planned Observations</caption><li><table><thead><tr><th>Name</th><th>Dates</th><th>Details</th></tr></thead><tbody><tr><td><span><span><span>Goal: Asthma Management</span></span></span></td><td><span><span>On </span><span>12-Mar-2011</span></span><span><br></br></span><span><span></span></span></td><td><span><span>Goal</span></span></td></tr><tr><td><span><span><span>Goal: Weight Loss</span></span></span></td><td><span><span>On </span><span>12-Mar-2011</span></span><span><br></br></span><span><span></span></span></td><td><span><span>Goal</span></span></td></tr></tbody></table></li></ul><ul><caption>Planned Encounters</caption><li><table><tbody><tr><td><span><span>Pulmonary function Tests</span></span><span><br></br></span><span><span>Encounter Reason: </span><span>Pulmonary function Tests (reason)</span></span><span><span>Dr. Penny Puffer Office - need office address</span></span><span><br></br></span><span><br></br></span><span><span> Puffer</span>, Penny Dr </span></td><td><span><span>On </span><span>1-Feb-2013</span></span><span><br></br></span><span><span>00:00</span></span></td></tr></tbody></table></li></ul><ul><caption>Planned Procedures</caption><li><table><thead><tr><th>Name</th><th>Dates</th><th>Details</th></tr></thead><tbody><tr><td><span><span><span>Chest X-Ray, PA and Lateral Views</span></span></span><span><span>By: </span><span><span> Kidder</span>, Karen Dr </span></span></td><td><span>On </span><span>30-Jan-2013</span></td><td><span><span>Request</span></span><span>Site: </span><span>Lower Respiratory Tract Structure</span></td></tr></tbody></table></li></ul></div>",
      "subject": {
        "reference": "Patient/8daeca14-d628-4298-ac90-a1842973e303",
        "display": "Kari Kidd"
      }
    }
  }, {
    "resource": {
      "resourceType": "Procedure",
      "id": "38dfdf52-b103-4186-93ec-c9b20b3888af",
      "identifier": [ {
        "use": "official",
        "system": "urn:oid:1.3.6.1.4.1.22812.3.99930.3.4.7",
        "value": "1898101"
      } ],
      "status": "in-progress",
      "subject": {
        "reference": "Patient/8daeca14-d628-4298-ac90-a1842973e303",
        "display": "Kari Kidd"
      }
    }
  }, {
    "resource": {
      "resourceType": "DiagnosticReport",
      "id": "d379917d-b865-486f-af12-af1a5dd3cdca",
      "identifier": [ {
        "use": "official",
        "system": "urn:oid:1.3.6.1.4.1.22812.3.99930.3.4.5",
        "value": "659988700005"
      } ],
      "status": "final",
      "category": [ {
        "coding": [ {
          "system": "http://terminology.hl7.org/CodeSystem/v2-0074",
          "code": "LAB",
          "display": "Laboratory"
        } ]
      } ],
      "code": {
        "coding": [ {
          "system": "http://www.ama-assn.org/go/cpt",
          "code": "85025",
          "display": "CBC"
        } ]
      },
      "subject": {
        "reference": "Patient/8daeca14-d628-4298-ac90-a1842973e303",
        "display": "Kari Kidd"
      },
      "effectivePeriod": {
        "start": "2013-01-30"
      },
      "issued": "2013-01-30T00:00:00.000+01:00",
      "performer": [ {
        "reference": "Practitioner/128181a4-e156-4619-9112-8eb3cc65b5c9"
      } ],
      "result": [ {
        "reference": "Observation/10de9ab7-d3fc-4db1-9302-c63ed8e5ed60",
        "display": "HCT"
      }, {
        "reference": "Observation/15d812ba-398a-4298-8a06-5c35745ff47b",
        "display": "WBC"
      }, {
        "reference": "Observation/6819b67d-512d-4395-9f5d-31009b2f95a4",
        "display": "PLT"
      }, {
        "reference": "Observation/7c8c35af-3bc8-4e89-b57e-8c93f71feb7e",
        "display": "HGB"
      } ]
    }
  }, {
    "resource": {
      "resourceType": "Practitioner",
      "id": "128181a4-e156-4619-9112-8eb3cc65b5c9"
    }
  }, {
    "resource": {
      "resourceType": "Observation",
      "id": "10de9ab7-d3fc-4db1-9302-c63ed8e5ed60",
      "identifier": [ {
        "use": "official",
        "system": "urn:oid:1.3.6.1.4.1.22812.3.99930.3.4.5",
        "value": "6599887000031"
      }, {
        "use": "official",
        "system": "urn:oid:1.3.6.1.4.1.22812.3.99930.3.4.5",
        "value": "6599889000031"
      } ],
      "status": "final",
      "category": [ {
        "coding": [ {
          "system": "http://terminology.hl7.org/CodeSystem/observation-category",
          "code": "laboratory"
        } ]
      } ],
      "code": {
        "coding": [ {
          "system": "http://loinc.org",
          "code": "20570-8",
          "display": "HCT"
        } ]
      },
      "subject": {
        "reference": "Patient/8daeca14-d628-4298-ac90-a1842973e303",
        "display": "Kari Kidd"
      },
      "effectivePeriod": {
        "start": "2013-01-30"
      },
      "valueQuantity": {
        "value": 50,
        "unit": "%",
        "system": "http://unitsofmeasure.org",
        "code": "%"
      },
      "interpretation": [ {
        "coding": [ {
          "system": "http://terminology.hl7.org/CodeSystem/v3-ObservationInterpretation"
        } ]
      } ]
    }
  }, {
    "resource": {
      "resourceType": "Observation",
      "id": "15d812ba-398a-4298-8a06-5c35745ff47b",
      "identifier": [ {
        "use": "official",
        "system": "urn:oid:1.3.6.1.4.1.22812.3.99930.3.4.5",
        "value": "6599887000032"
      }, {
        "use": "official",
        "system": "urn:oid:1.3.6.1.4.1.22812.3.99930.3.4.5",
        "value": "6599889000032"
      } ],
      "status": "final",
      "category": [ {
        "coding": [ {
          "system": "http://terminology.hl7.org/CodeSystem/observation-category",
          "code": "laboratory"
        } ]
      } ],
      "code": {
        "coding": [ {
          "system": "http://loinc.org",
          "code": "33765-9",
          "display": "WBC"
        } ]
      },
      "subject": {
        "reference": "Patient/8daeca14-d628-4298-ac90-a1842973e303",
        "display": "Kari Kidd"
      },
      "effectivePeriod": {
        "start": "2013-01-30"
      },
      "valueQuantity": {
        "value": 5.2,
        "unit": "10^3/ul",
        "system": "http://unitsofmeasure.org",
        "code": "10^3/ul"
      },
      "interpretation": [ {
        "coding": [ {
          "system": "http://terminology.hl7.org/CodeSystem/v3-ObservationInterpretation"
        } ]
      } ]
    }
  }, {
    "resource": {
      "resourceType": "Observation",
      "id": "6819b67d-512d-4395-9f5d-31009b2f95a4",
      "identifier": [ {
        "use": "official",
        "system": "urn:oid:1.3.6.1.4.1.22812.3.99930.3.4.5",
        "value": "6599887000033"
      }, {
        "use": "official",
        "system": "urn:oid:1.3.6.1.4.1.22812.3.99930.3.4.5",
        "value": "6599889000033"
      } ],
      "status": "final",
      "category": [ {
        "coding": [ {
          "system": "http://terminology.hl7.org/CodeSystem/observation-category",
          "code": "laboratory"
        } ]
      } ],
      "code": {
        "coding": [ {
          "system": "http://loinc.org",
          "code": "26515-7",
          "display": "PLT"
        } ]
      },
      "subject": {
        "reference": "Patient/8daeca14-d628-4298-ac90-a1842973e303",
        "display": "Kari Kidd"
      },
      "effectivePeriod": {
        "start": "2013-01-30"
      },
      "valueQuantity": {
        "value": 388,
        "unit": "10^3/ul",
        "system": "http://unitsofmeasure.org",
        "code": "10^3/ul"
      },
      "interpretation": [ {
        "coding": [ {
          "system": "http://terminology.hl7.org/CodeSystem/v3-ObservationInterpretation"
        } ]
      } ]
    }
  }, {
    "resource": {
      "resourceType": "Observation",
      "id": "7c8c35af-3bc8-4e89-b57e-8c93f71feb7e",
      "identifier": [ {
        "use": "official",
        "system": "urn:oid:1.3.6.1.4.1.22812.3.99930.3.4.5",
        "value": "659988700003"
      }, {
        "use": "official",
        "system": "urn:oid:1.3.6.1.4.1.22812.3.99930.3.4.5",
        "value": "659988900003"
      } ],
      "status": "final",
      "category": [ {
        "coding": [ {
          "system": "http://terminology.hl7.org/CodeSystem/observation-category",
          "code": "laboratory"
        } ]
      } ],
      "code": {
        "coding": [ {
          "system": "http://loinc.org",
          "code": "30313-1",
          "display": "HGB"
        } ]
      },
      "subject": {
        "reference": "Patient/8daeca14-d628-4298-ac90-a1842973e303",
        "display": "Kari Kidd"
      },
      "effectivePeriod": {
        "start": "2013-01-30"
      },
      "valueQuantity": {
        "value": 14.5,
        "unit": "g/dl",
        "system": "http://unitsofmeasure.org",
        "code": "g/dl"
      },
      "interpretation": [ {
        "coding": [ {
          "system": "http://terminology.hl7.org/CodeSystem/v3-ObservationInterpretation"
        } ]
      } ]
    }
  }, {
    "resource": {
      "resourceType": "AllergyIntolerance",
      "id": "b355d23e-d6c8-4c70-8c6e-b7a7c007501b",
      "identifier": [ {
        "use": "official",
        "system": "urn:oid:1.3.6.1.4.1.22812.3.99930.3.4.10",
        "value": "613618700107"
      }, {
        "use": "official",
        "system": "urn:oid:1.3.6.1.4.1.22812.3.99930.3.4.10",
        "value": "613618700109"
      } ],
      "clinicalStatus": {
        "coding": [ {
          "system": "http://terminology.hl7.org/CodeSystem/allergyintolerance-clinical",
          "code": "active",
          "display": "Active"
        } ]
      },
      "verificationStatus": {
        "coding": [ {
          "system": "http://terminology.hl7.org/CodeSystem/allergyintolerance-verification",
          "code": "confirmed",
          "display": "Confirmed"
        } ]
      },
      "type": "allergy",
      "category": [ "medication" ],
      "code": {
        "coding": [ {
          "system": "http://www.nlm.nih.gov/research/umls/rxnorm",
          "code": "7982",
          "display": "Penicillin G benzathine"
        } ],
        "text": "Penicillin G benzathine"
      },
      "patient": {
        "reference": "Patient/8daeca14-d628-4298-ac90-a1842973e303",
        "display": "Kari Kidd"
      },
      "onsetDateTime": "2005-01-10",
      "recordedDate": "2005-01-10",
      "recorder": {
        "reference": "Practitioner/efb094b3-6eaf-44f7-b437-7cb2a489035b"
      },
      "reaction": [ {
        "manifestation": [ {
          "coding": [ {
            "system": "http://snomed.info/sct",
            "code": "247472004",
            "display": "Hives"
          } ],
          "text": "Hives"
        } ]
      } ]
    }
  }, {
    "resource": {
      "resourceType": "Practitioner",
      "id": "efb094b3-6eaf-44f7-b437-7cb2a489035b"
    }
  }, {
    "resource": {
      "resourceType": "Encounter",
      "id": "58c28040-6891-4be4-8014-e46cbccbdcd9",
      "identifier": [ {
        "use": "official",
        "system": "urn:oid:1.3.6.1.4.1.22812.3.99930.3.3.4",
        "value": "5283815"
      } ],
      "status": "finished",
      "type": [ {
        "coding": [ {
          "system": "http://www.ama-assn.org/go/cpt",
          "code": "99231",
          "display": "UNK"
        } ],
        "text": "Office Visit"
      } ],
      "subject": {
        "reference": "Patient/8daeca14-d628-4298-ac90-a1842973e303",
        "display": "Kari Kidd"
      },
      "participant": [ {
        "type": [ {
          "coding": [ {
            "system": "http://terminology.hl7.org/CodeSystem/v3-ParticipationType",
            "code": "PART",
            "display": "Participation"
          } ]
        } ],
        "period": {
          "start": "2013-01-30T09:00:51+01:00"
        },
        "individual": {
          "reference": "Practitioner/b5b598d8-4e0a-43cc-b548-d932b8e8a2a7",
          "display": "Dr Karen K Kidder"
        }
      } ],
      "period": {
        "start": "2013-01-30T09:00:51+01:00"
      },
      "diagnosis": [ {
        "condition": {
          "reference": "Condition/eece92d2-e900-4951-9cca-2b44d448af92",
          "display": "Flu-like illness"
        }
      } ],
      "location": [ {
        "location": {
          "reference": "Location/83dfaca5-7d84-430b-8c0b-d13b6a6e06c3",
          "display": "Get Well Clinic"
        }
      } ]
    }
  }, {
    "resource": {
      "resourceType": "Condition",
      "id": "eece92d2-e900-4951-9cca-2b44d448af92",
      "identifier": [ {
        "use": "official",
        "system": "urn:oid:1.3.6.1.4.1.22812.3.99930.3.4.1.2.1",
        "value": "55412"
      } ],
      "clinicalStatus": {
        "coding": [ {
          "system": "http://terminology.hl7.org/CodeSystem/condition-clinical",
          "code": "active",
          "display": "Active"
        } ]
      },
      "verificationStatus": {
        "coding": [ {
          "system": "http://terminology.hl7.org/CodeSystem/condition-ver-status",
          "code": "confirmed",
          "display": "Confirmed"
        } ]
      },
      "category": [ {
        "coding": [ {
          "system": "http://terminology.hl7.org/CodeSystem/condition-category",
          "code": "problem-list-item",
          "display": "Problem List Item"
        } ]
      } ],
      "code": {
        "coding": [ {
          "system": "http://snomed.info/sct",
          "code": "95891005",
          "display": "Flu-like illness"
        } ],
        "text": "Flu-like illness"
      },
      "subject": {
        "reference": "Patient/8daeca14-d628-4298-ac90-a1842973e303",
        "display": "Kari Kidd"
      },
      "onsetDateTime": "2013-01-30T10:00:51+01:00"
    }
  }, {
    "resource": {
      "resourceType": "Location",
      "id": "83dfaca5-7d84-430b-8c0b-d13b6a6e06c3",
      "name": "Get Well Clinic"
    }
  }, {
    "resource": {
      "resourceType": "Encounter",
      "id": "bb748062-525b-4624-9ab3-975bcf303974",
      "identifier": [ {
        "use": "official",
        "system": "urn:oid:1.3.6.1.4.1.22812.3.99930.3.3.4",
        "value": "52838151"
      } ],
      "status": "finished",
      "type": [ {
        "coding": [ {
          "system": "http://www.ama-assn.org/go/cpt",
          "code": "99231",
          "display": "UNK"
        } ],
        "text": "Office Visit"
      } ],
      "subject": {
        "reference": "Patient/8daeca14-d628-4298-ac90-a1842973e303",
        "display": "Kari Kidd"
      },
      "participant": [ {
        "type": [ {
          "coding": [ {
            "system": "http://terminology.hl7.org/CodeSystem/v3-ParticipationType",
            "code": "PART",
            "display": "Participation"
          } ]
        } ],
        "period": {
          "start": "2011-03-12T10:00:51+01:00"
        },
        "individual": {
          "reference": "Practitioner/b5b598d8-4e0a-43cc-b548-d932b8e8a2a7",
          "display": "Dr Karen K Kidder"
        }
      } ],
      "period": {
        "start": "2011-03-12T10:00:51+01:00"
      },
      "diagnosis": [ {
        "condition": {
          "reference": "Condition/eece92d2-e900-4951-9cca-2b44d448af92",
          "display": "Flu-like illness"
        }
      } ],
      "location": [ {
        "location": {
          "reference": "Location/eef32aa8-a556-4c57-bab1-ad05970caded",
          "display": "Get Well Clinic"
        }
      } ]
    }
  }, {
    "resource": {
      "resourceType": "Location",
      "id": "eef32aa8-a556-4c57-bab1-ad05970caded",
      "name": "Get Well Clinic"
    }
  }, {
    "resource": {
      "resourceType": "Encounter",
      "id": "a98bd747-70e9-4194-a341-d70558a4a9d2",
      "identifier": [ {
        "use": "official",
        "system": "urn:oid:1.3.6.1.4.1.22812.3.99930.3.3.4",
        "value": "52838152"
      } ],
      "status": "finished",
      "type": [ {
        "coding": [ {
          "system": "http://www.ama-assn.org/go/cpt",
          "code": "99231",
          "display": "UNK"
        } ],
        "text": "Office Visit"
      } ],
      "subject": {
        "reference": "Patient/8daeca14-d628-4298-ac90-a1842973e303",
        "display": "Kari Kidd"
      },
      "participant": [ {
        "type": [ {
          "coding": [ {
            "system": "http://terminology.hl7.org/CodeSystem/v3-ParticipationType",
            "code": "PART",
            "display": "Participation"
          } ]
        } ],
        "period": {
          "start": "2010-04-15T10:00:51+02:00"
        },
        "individual": {
          "reference": "Practitioner/b5b598d8-4e0a-43cc-b548-d932b8e8a2a7",
          "display": "Dr Karen K Kidder"
        }
      } ],
      "period": {
        "start": "2010-04-15T10:00:51+02:00"
      },
      "diagnosis": [ {
        "condition": {
          "reference": "Condition/eece92d2-e900-4951-9cca-2b44d448af92",
          "display": "Flu-like illness"
        }
      } ],
      "location": [ {
        "location": {
          "reference": "Location/19ca66da-31d3-419e-8d2c-006c655f6b86",
          "display": "Get Well Clinic"
        }
      } ]
    }
  }, {
    "resource": {
      "resourceType": "Location",
      "id": "19ca66da-31d3-419e-8d2c-006c655f6b86",
      "name": "Get Well Clinic"
    }
  }, {
    "resource": {
      "resourceType": "Observation",
      "id": "4ba13acb-c703-491c-a719-3a49393135bb",
      "status": "final",
      "code": {
        "coding": [ {
          "system": "urn:oid:2.16.840.1.113883.5.4",
          "code": "ASSERTION",
          "display": "Assertion"
        } ]
      },
      "subject": {
        "reference": "Patient/8daeca14-d628-4298-ac90-a1842973e303",
        "display": "Kari Kidd"
      },
      "issued": "2010-04-15T10:30:00-04:00",
      "performer": [ {
        "reference": "Practitioner/11642318-2548-4bd9-8648-9740cbc2b34c"
      } ],
      "valueCodeableConcept": {
        "coding": [ {
          "system": "http://snomed.info/sct",
          "code": "266919005",
          "display": "Never smoker"
        } ]
      }
    }
  }, {
    "resource": {
      "resourceType": "Practitioner",
      "id": "11642318-2548-4bd9-8648-9740cbc2b34c"
    }
  }, {
    "resource": {
      "resourceType": "Observation",
      "id": "237e1093-1149-4e83-b64f-d9111247798e",
      "status": "final",
      "code": {
        "coding": [ {
          "system": "urn:oid:2.16.840.1.113883.5.4",
          "code": "ASSERTION",
          "display": "Assertion"
        } ]
      },
      "subject": {
        "reference": "Patient/8daeca14-d628-4298-ac90-a1842973e303",
        "display": "Kari Kidd"
      },
      "issued": "2011-03-12T09:30:00-05:00",
      "performer": [ {
        "reference": "Practitioner/62452299-af5d-45e3-bc33-2dee24a5ef0e"
      } ],
      "valueCodeableConcept": {
        "coding": [ {
          "system": "http://snomed.info/sct",
          "code": "266919005",
          "display": "Never smoker"
        } ]
      }
    }
  }, {
    "resource": {
      "resourceType": "Practitioner",
      "id": "62452299-af5d-45e3-bc33-2dee24a5ef0e"
    }
  } ]
}