{
  "resourceType": "Bundle",
  "entry": [ {
    "resource": {
      "resourceType": "Composition",
      "id": "451d3fdd-ef9f-43c5-b075-394ff97e282b",
      "identifier": {
        "use": "official",
        "system": "urn:oid:1.3.6.1.4.1.22812.3.99930.3.1",
        "value": "66670992"
      },
      "status": "preliminary",
      "type": {
        "coding": [ {
          "system": "http://loinc.org",
          "code": "34133-9",
          "display": "SUMMARIZATION OF EPISODE NOTE"
        } ]
      },
      "category": [ {
        "coding": [ {
          "system": "http://hl7.org/fhir/ValueSet/doc-classcodes",
          "code": "LP173421-7",
          "display": "Note"
        } ]
      } ],
      "subject": {
        "reference": "Patient/54c81340-37ae-436c-bd85-565d22562acc",
        "display": "Mary Grant"
      },
      "date": "2012-09-20T10:00:51-04:00",
      "author": [ {
        "reference": "Practitioner/867750fc-9329-4b84-a064-be05b3f16bc4",
        "display": "Dr Martin Green"
      }, {
        "reference": "Device/4cba03cc-e09a-4f04-8cc0-567bb974b92c"
      } ],
      "title": "Summary of Care",
      "confidentiality": "V",
      "attester": [ {
        "mode": "legal",
        "time": "2012-09-20T10:00:51-04:00",
        "party": {
          "reference": "Practitioner/867750fc-9329-4b84-a064-be05b3f16bc4",
          "display": "Dr Martin Green"
        }
      }, {
        "mode": "professional",
        "time": "2012-09-20T10:00:51-04:00",
        "party": {
          "reference": "Practitioner/867750fc-9329-4b84-a064-be05b3f16bc4",
          "display": "Dr Martin Green"
        }
      } ],
      "custodian": {
        "reference": "Organization/a563d6bd-7c6c-45ff-8e83-996ca3c30dbd",
        "display": "Get Well Clinic"
      },
      "event": [ {
        "period": {
          "start": "2012-09-20T09:00:51+02:00",
          "end": "2012-09-20T10:00:51-04:00"
        },
        "detail": [ {
          "reference": "Practitioner/867750fc-9329-4b84-a064-be05b3f16bc4",
          "display": "Dr Martin Green"
        } ]
      } ],
      "section": [ {
        "title": "Encounters",
        "code": {
          "coding": [ {
            "system": "http://loinc.org",
            "code": "46240-8",
            "display": "Encounters"
          } ]
        },
        "text": {
          "status": "additional",
          "div": "<div xmlns=\"http://www.w3.org/1999/xhtml\"><table><tbody><tr><td><span><span>Offie Visit</span></span><span><br/></span><span><span>Encounter Reason: </span><span>A two week history of nasal congestion, nasal discharge, facial pain, and intermittent fevers.</span></span><span><span>Encounter Diagnosis: </span><span>Sinusitis</span></span><span><span><span>Active</span></span></span><span><span>Get Well Clinic</span></span><span><br/></span><span><span>1002 Healthcare Dr. Portland OR 97005</span></span><span><br/></span><span><span>(555) 555-1122</span></span><span><br/></span><span><br/></span><span><span> Green</span>, Martin Dr </span></td><td><span><span>On </span><span>20-Sep-2012</span></span><span><br/></span><span><span>09:00</span></span></td></tr></tbody></table></div>"
        },
        "mode": "snapshot",
        "entry": [ {
          "reference": "Encounter/48860e64-26e4-4368-80ca-093105a02973",
          "display": "Offie Visit"
        } ]
      }, {
        "title": "Medications",
        "code": {
          "coding": [ {
            "system": "http://loinc.org",
            "code": "10160-0",
            "display": "History of medication use"
          } ]
        },
        "text": {
          "status": "additional",
          "div": "<div xmlns=\"http://www.w3.org/1999/xhtml\"><table><thead><tr><th>Name</th><th>Dates</th><th>Details</th></tr></thead><tbody><tr><td><span><span>Cephalexin 500 MG Oral Tablet</span></span><span><br/></span><span><span><span>TAKE 1 TABLET FOUR TIMES DAILY FOR 10 DAYS</span></span></span><span><br/></span><span><span><span>Take four times daily for 10 days</span></span></span></td><td/><td><ul><li><table><tbody><tr><td><span> Started </span>20-Sep-2012</td></tr></tbody></table></li></ul><span><span/><span>Active</span></span><span><span>Generic substitution allowed</span></span><span><br/></span></td></tr><tr><td><span><span>Fluoxetine 40 MG Oral Capsule</span></span><span><br/></span><span><span><span>TAKE 1 TABLET once daily As Directed</span></span></span><span><br/></span><span><span/></span></td><td/><td><ul><li><table><tbody><tr><td><span> Started </span>20-Nov-2011</td></tr></tbody></table></li></ul><span><span/><span>Active</span></span></td></tr><tr><td><span><span>Levothyroxine Sodium 0.05 MG Oral Tablet</span></span><span><br/></span><span><span><span>TAKE 1 TABLET once daily As Directed</span></span></span><span><br/></span><span><span/></span></td><td/><td><ul><li><table><tbody><tr><td><span> Started </span>15-Apr-2010</td></tr></tbody></table></li></ul><span><span/><span>Active</span></span></td></tr></tbody></table></div>"
        },
        "mode": "snapshot"
      }, {
        "title": "Results",
        "code": {
          "coding": [ {
            "system": "http://loinc.org",
            "code": "30954-2",
            "display": "Relevant diagnostic tests and/or laboratory data"
          } ]
        },
        "text": {
          "status": "additional",
          "div": "<div xmlns=\"http://www.w3.org/1999/xhtml\"><table><thead><tr><th>Date</th><th>Description</th><th>Value</th><th>Details</th></tr></thead><tbody><tr><td><span>Resulted on:</span><span><br/></span><span>20-Sep-2012 11:33</span></td><td colspan=\"2\"><span>CBC</span></td><td/><td/></tr><tr><td/><td><span>HGB</span></td><td><span>12.8  g/dl</span></td><td/></tr><tr><td/><td><span>WBC</span></td><td><span>17.6  10^3/ul</span></td><td/></tr><tr><td/><td><span>PLT</span></td><td><span>247  10^3/ul</span></td><td/></tr></tbody></table></div>"
        },
        "mode": "snapshot",
        "entry": [ {
          "reference": "DiagnosticReport/60eddb06-88fc-41ea-bcfe-64044048daa7",
          "display": "CBC"
        } ]
      }, {
        "title": "Plan of Care",
        "code": {
          "coding": [ {
            "system": "http://loinc.org",
            "code": "18776-5",
            "display": "Plan of Care"
          } ]
        },
        "text": {
          "status": "additional",
          "div": "<div xmlns=\"http://www.w3.org/1999/xhtml\"><ul><caption>Planned Observations</caption><li><table><thead><tr><th>Name</th><th>Dates</th><th>Details</th></tr></thead><tbody><tr><td><span><span><span>Goal: Weight Loss</span></span></span></td><td><span><span>On </span><span>20-Sep-2012</span></span><span><br/></span><span><span/></span></td><td><span><span>Goal</span></span></td></tr></tbody></table></li></ul></div>"
        },
        "mode": "snapshot",
        "entry": [ {
          "reference": "CarePlan/6b5cb7b1-9db3-4cdd-918e-e62dd30485bc"
        } ]
      }, {
        "title": "Social History",
        "code": {
          "coding": [ {
            "system": "http://loinc.org",
            "code": "29762-2",
            "display": "Social History"
          } ]
        },
        "text": {
          "status": "additional",
          "div": "<div xmlns=\"http://www.w3.org/1999/xhtml\"><ul><caption>Smoking Status</caption><li><span>Never smoker</span><span> Started 2012</span></li></ul></div>"
        },
        "mode": "snapshot",
        "entry": [ {
          "reference": "Observation/7a8aa8d6-95d2-40ef-b8a4-742b1041ecec",
          "display": "Assertion"
        } ]
      }, {
        "title": "Procedures",
        "code": {
          "coding": [ {
            "system": "http://loinc.org",
            "code": "47519-4",
            "display": "History of Procedures"
          } ]
        },
        "text": {
          "status": "additional",
          "div": "<div xmlns=\"http://www.w3.org/1999/xhtml\"><table><thead><tr><th>Date</th><th>Description</th><th>Value</th><th>Details</th></tr></thead><tbody><tr><td><span><span>Resulted on:</span></span><span><br/></span><span>6-Feb-2013</span></td><td><span>Chest X-Ray, PA and Lateral Views</span></td><td><span>Normal</span></td><td><span>Site: </span><span><span>Lower Respiratory Tract Structure</span></span></td></tr></tbody></table></div>"
        },
        "mode": "snapshot",
        "entry": [ {
          "reference": "Observation/5e549ccc-fd0a-47e5-890e-1ab724b4762f",
          "display": "Chest X-Ray, PA and Lateral Views"
        } ]
      }, {
        "title": "Problems",
        "code": {
          "coding": [ {
            "system": "http://loinc.org",
            "code": "11450-4",
            "display": "Problem List"
          } ]
        },
        "text": {
          "status": "additional",
          "div": "<div xmlns=\"http://www.w3.org/1999/xhtml\"><table><thead><tr><th>Name</th><th>Dates</th><th>Details</th></tr></thead><tbody><tr><td><span><span>Sinusitis</span></span><span><span/></span><span><br/></span></td><td><span><span>Onset<span>:</span></span><span>20-Sep-2012</span></span></td><td><span><span><span>Status: </span><span>Active</span></span></span></td></tr><tr><td><span><span>Depression</span></span><span><span/></span><span><br/></span></td><td><span><span>Onset<span>:</span></span><span>10-Nov-2011</span></span></td><td><span><span><span>Status: </span><span>Active</span></span></span></td></tr><tr><td><span><span>Hypothroidism</span></span><span><span/></span><span><br/></span></td><td><span><span>Onset<span>:</span></span><span>15-Apr-2010</span></span></td><td><span><span><span>Status: </span><span>Active</span></span></span></td></tr></tbody></table></div>"
        },
        "mode": "snapshot",
        "entry": [ {
          "reference": "Condition/3a035535-bfd6-4080-8321-f9906d0e8d7c",
          "display": "Hypothroidism"
        }, {
          "reference": "Condition/83509194-7fe9-4102-aae2-c65aa69a1424",
          "display": "Sinusitis"
        }, {
          "reference": "Condition/13cad69c-b597-4e17-a803-381bc41db313",
          "display": "Depression"
        } ]
      }, {
        "title": "Allergies and Adverse Reactions",
        "code": {
          "coding": [ {
            "system": "http://loinc.org",
            "code": "48765-2",
            "display": "Allergies, adverse reactions, alerts"
          } ]
        },
        "text": {
          "status": "additional",
          "div": "<div xmlns=\"http://www.w3.org/1999/xhtml\"><table><thead><tr><th>Name</th><th>Dates</th><th>Details</th></tr></thead><tbody><tr><td><span><span>Penicillin G benzathine</span></span></td><td><span><span><span>Onset<span>:</span></span><span>10-Jan-1998</span></span></span></td><td><span><span><span>Reaction: </span><span>Hives</span></span></span><span><br/></span><span><span>Status: </span><span>Active</span></span></td></tr><tr><td><span><span>Aspirin</span></span></td><td><span/></td><td><span><span><span>Reaction: </span><span>Nausea</span></span></span><span><br/></span><span><span>Status: </span><span>Active</span></span></td></tr></tbody></table></div>"
        },
        "mode": "snapshot",
        "entry": [ {
          "reference": "AllergyIntolerance/65070a57-9156-4d99-bd97-ac8135977d0e",
          "display": "Penicillin G benzathine"
        }, {
          "reference": "AllergyIntolerance/b28ad620-a067-4c46-9da6-985868ef1d23",
          "display": "Aspirin"
        } ]
      } ]
    }
  }, {
    "resource": {
      "resourceType": "Patient",
      "id": "54c81340-37ae-436c-bd85-565d22562acc",
      "extension": [ {
        "url": "http://hl7.org/fhir/us/core/StructureDefinition/us-core-race",
        "extension": [ {
          "url": "text",
          "valueString": "White"
        }, {
          "url": "ombCategory",
          "valueCoding": {
            "system": "urn:oid:2.16.840.1.113883.6.238",
            "code": "2106-3",
            "display": "White"
          }
        } ]
      }, {
        "url": "http://hl7.org/fhir/us/core/StructureDefinition/us-core-ethnicity",
        "extension": [ {
          "url": "text",
          "valueString": "Not Hispanic or Latino"
        }, {
          "url": "ombCategory",
          "valueCoding": {
            "system": "urn:oid:2.16.840.1.113883.6.238",
            "code": "2186-5",
            "display": "Not Hispanic or Latino"
          }
        } ]
      } ],
      "identifier": [ {
        "use": "official",
        "system": "urn:oid:1.3.6.1.4.1.22812.3.99930.3",
        "value": "110107073916280"
      } ],
      "name": [ {
        "family": "Grant",
        "given": [ "Mary" ]
      } ],
      "telecom": [ {
        "system": "phone",
        "value": "+1-(555)555-3333",
        "use": "home"
      } ],
      "gender": "female",
      "birthDate": "1987-03-21",
      "address": [ {
        "use": "home",
        "line": [ "1234 Six Forks" ],
        "city": "Portland",
        "state": "OR",
        "postalCode": "97005",
        "country": "US"
      } ],
      "communication": [ {
        "language": {
          "coding": [ {
            "system": "urn:ietf:bcp:47",
            "code": "eng"
          } ]
        },
        "preferred": true
      } ],
      "managingOrganization": {
        "reference": "Organization/a563d6bd-7c6c-45ff-8e83-996ca3c30dbd",
        "display": "Get Well Clinic"
      }
    }
  }, {
    "resource": {
      "resourceType": "Organization",
      "id": "a563d6bd-7c6c-45ff-8e83-996ca3c30dbd",
      "identifier": [ {
        "use": "official",
        "system": "urn:oid:1.3.6.1.4.1.22812.3.99930.3",
        "value": "3"
      } ],
      "name": "Get Well Clinic",
      "telecom": [ {
        "system": "phone",
        "value": "+1-(555)555-1122"
      } ],
      "address": [ {
        "line": [ "1002 Healthcare Dr." ],
        "city": "Portland",
        "state": "OR",
        "postalCode": "97005",
        "country": "US"
      } ]
    }
  }, {
    "resource": {
      "resourceType": "Practitioner",
      "id": "867750fc-9329-4b84-a064-be05b3f16bc4",
      "identifier": [ {
        "use": "official",
        "system": "urn:oid:2.16.840.1.113883.4.6",
        "value": "1111111111"
      }, {
        "use": "official",
        "system": "urn:oid:1.3.6.1.4.1.22812.3.99930.3",
        "value": "91138"
      } ],
      "name": [ {
        "family": "Green",
        "given": [ "Martin" ],
        "prefix": [ "Dr" ]
      } ],
      "telecom": [ {
        "system": "phone",
        "value": "+1-(555)555-1122"
      } ],
      "address": [ {
        "line": [ "1002 Healthcare Dr." ],
        "city": "Portland",
        "state": "OR",
        "postalCode": "97005",
        "country": "US"
      } ]
    }
  }, {
    "resource": {
      "resourceType": "Device",
      "id": "4cba03cc-e09a-4f04-8cc0-567bb974b92c",
      "identifier": [ {
        "use": "official",
        "system": "urn:oid:1.3.6.1.4.1.22812.3.99930.3.3.3",
        "value": "3"
      } ],
      "manufacturer": "Enterprise EHR Clinical System 11.200.4210.17305",
      "type": {
        "coding": [ {
          "display": "Enterprise EHR Clinical System 11.200.4210.17305"
        } ]
      },
      "version": [ {
        "value": "Enterprise EHR Clinical System 11.200.4210.17305; Transform 4.1.1.18"
      } ],
      "owner": {
        "reference": "Organization/a563d6bd-7c6c-45ff-8e83-996ca3c30dbd"
      }
    }
  }, {
    "resource": {
      "resourceType": "Encounter",
      "id": "48860e64-26e4-4368-80ca-093105a02973",
      "identifier": [ {
        "use": "official",
        "system": "urn:oid:1.3.6.1.4.1.22812.3.99930.3.3.4",
        "value": "5283815"
      } ],
      "status": "finished",
      "type": [ {
        "coding": [ {
          "system": "http://www.ama-assn.org/go/cpt",
          "code": "99231",
          "display": "UNK"
        } ],
        "text": "Offie Visit"
      } ],
      "subject": {
        "reference": "Patient/54c81340-37ae-436c-bd85-565d22562acc",
        "display": "Mary Grant"
      },
      "participant": [ {
        "type": [ {
          "coding": [ {
            "system": "http://terminology.hl7.org/CodeSystem/v3-ParticipationType",
            "code": "PART",
            "display": "Participation"
          } ]
        } ],
        "period": {
          "start": "2012-09-20T09:00:51+02:00"
        },
        "individual": {
          "reference": "Practitioner/867750fc-9329-4b84-a064-be05b3f16bc4",
          "display": "Dr Martin Green"
        }
      } ],
      "period": {
        "start": "2012-09-20T09:00:51+02:00"
      },
      "reasonReference": [ {
        "reference": "Condition/4d411df4-89d4-4e11-a459-76cb2d875e94"
      } ],
      "diagnosis": [ {
        "condition": {
          "reference": "Condition/5a58e48c-a9eb-4ea9-8982-c072b181690c",
          "display": "Sinusitis"
        }
      } ],
      "location": [ {
        "location": {
          "reference": "Location/2ed9bbe3-d1ec-47e8-9f07-189b80dd9b89",
          "display": "Get Well Clinic"
        }
      } ]
    }
  }, {
    "resource": {
      "resourceType": "Condition",
      "id": "4d411df4-89d4-4e11-a459-76cb2d875e94",
      "identifier": [ {
        "use": "official",
        "system": "urn:oid:1.3.6.1.4.1.22812.3.99930.3.4.1.3",
        "value": "147852"
      } ],
      "category": [ {
        "coding": [ {
          "system": "http://hl7.org/fhir/condition-category",
          "code": "encounter-diagnosis",
          "display": "Encounter Diagnosis"
        } ]
      } ],
      "subject": {
        "reference": "Patient/54c81340-37ae-436c-bd85-565d22562acc",
        "display": "Mary Grant"
      }
    }
  }, {
    "resource": {
      "resourceType": "Condition",
      "id": "5a58e48c-a9eb-4ea9-8982-c072b181690c",
      "identifier": [ {
        "use": "official",
        "system": "urn:oid:1.3.6.1.4.1.22812.3.99930.3.4.1.2.1",
        "value": "55412"
      } ],
      "clinicalStatus": {
        "coding": [ {
          "system": "http://terminology.hl7.org/CodeSystem/condition-clinical",
          "code": "active",
          "display": "Active"
        } ]
      },
      "verificationStatus": {
        "coding": [ {
          "system": "http://terminology.hl7.org/CodeSystem/condition-ver-status",
          "code": "confirmed",
          "display": "Confirmed"
        } ]
      },
      "category": [ {
        "coding": [ {
          "system": "http://terminology.hl7.org/CodeSystem/condition-category",
          "code": "problem-list-item",
          "display": "Problem List Item"
        } ]
      } ],
      "code": {
        "coding": [ {
          "system": "http://snomed.info/sct",
          "code": "36971009",
          "display": "Sinusitis"
        } ],
        "text": "Sinusitis"
      },
      "subject": {
        "reference": "Patient/54c81340-37ae-436c-bd85-565d22562acc",
        "display": "Mary Grant"
      },
      "onsetDateTime": "2012-09-20T10:00:51+02:00"
    }
  }, {
    "resource": {
      "resourceType": "Location",
      "id": "2ed9bbe3-d1ec-47e8-9f07-189b80dd9b89",
      "name": "Get Well Clinic",
      "telecom": [ {
        "system": "phone",
        "value": "+1-(555)555-1122"
      } ],
      "address": {
        "line": [ "1002 Healthcare Dr." ],
        "city": "Portland",
        "state": "OR",
        "postalCode": "97005",
        "country": "US"
      }
    }
  }, {
    "resource": {
      "resourceType": "DiagnosticReport",
      "id": "60eddb06-88fc-41ea-bcfe-64044048daa7",
      "identifier": [ {
        "use": "official",
        "system": "urn:oid:1.3.6.1.4.1.22812.3.99930.3.4.5",
        "value": "659988700005"
      } ],
      "status": "final",
      "category": [ {
        "coding": [ {
          "system": "http://terminology.hl7.org/CodeSystem/v2-0074",
          "code": "LAB",
          "display": "Laboratory"
        } ]
      } ],
      "code": {
        "coding": [ {
          "system": "http://www.ama-assn.org/go/cpt",
          "code": "85025",
          "display": "CBC"
        } ]
      },
      "subject": {
        "reference": "Patient/54c81340-37ae-436c-bd85-565d22562acc",
        "display": "Mary Grant"
      },
      "effectivePeriod": {
        "start": "2012-09-20"
      },
      "issued": "2012-09-20T00:00:00.000+02:00",
      "performer": [ {
        "reference": "Practitioner/31d6c42d-f87a-4064-a252-19f3933bc339"
      } ],
      "result": [ {
        "reference": "Observation/80bf41ea-14d7-444a-9030-5141af3e2e82",
        "display": "HGB"
      }, {
        "reference": "Observation/6946b3c7-2cbb-43fa-b764-c57370dd24af",
        "display": "WBC"
      }, {
        "reference": "Observation/888c61cb-e273-4605-ac16-6fc5c5cd72c5",
        "display": "PLT"
      } ]
    }
  }, {
    "resource": {
      "resourceType": "Practitioner",
      "id": "31d6c42d-f87a-4064-a252-19f3933bc339"
    }
  }, {
    "resource": {
      "resourceType": "Observation",
      "id": "80bf41ea-14d7-444a-9030-5141af3e2e82",
      "identifier": [ {
        "use": "official",
        "system": "urn:oid:1.3.6.1.4.1.22812.3.99930.3.4.5",
        "value": "659988700003"
      }, {
        "use": "official",
        "system": "urn:oid:1.3.6.1.4.1.22812.3.99930.3.4.5",
        "value": "659988900003"
      } ],
      "status": "final",
      "category": [ {
        "coding": [ {
          "system": "http://terminology.hl7.org/CodeSystem/observation-category",
          "code": "laboratory"
        } ]
      } ],
      "code": {
        "coding": [ {
          "system": "http://loinc.org",
          "code": "30313-1",
          "display": "HGB"
        } ]
      },
      "subject": {
        "reference": "Patient/54c81340-37ae-436c-bd85-565d22562acc",
        "display": "Mary Grant"
      },
      "effectivePeriod": {
        "start": "2012-09-20"
      },
      "valueQuantity": {
        "value": 12.8,
        "unit": "g/dl",
        "system": "http://unitsofmeasure.org",
        "code": "g/dl"
      },
      "interpretation": [ {
        "coding": [ {
          "system": "http://terminology.hl7.org/CodeSystem/v3-ObservationInterpretation"
        } ]
      } ]
    }
  }, {
    "resource": {
      "resourceType": "Observation",
      "id": "6946b3c7-2cbb-43fa-b764-c57370dd24af",
      "identifier": [ {
        "use": "official",
        "system": "urn:oid:1.3.6.1.4.1.22812.3.99930.3.4.5",
        "value": "6599887000032"
      }, {
        "use": "official",
        "system": "urn:oid:1.3.6.1.4.1.22812.3.99930.3.4.5",
        "value": "6599889000032"
      } ],
      "status": "final",
      "category": [ {
        "coding": [ {
          "system": "http://terminology.hl7.org/CodeSystem/observation-category",
          "code": "laboratory"
        } ]
      } ],
      "code": {
        "coding": [ {
          "system": "http://loinc.org",
          "code": "33765-9",
          "display": "WBC"
        } ]
      },
      "subject": {
        "reference": "Patient/54c81340-37ae-436c-bd85-565d22562acc",
        "display": "Mary Grant"
      },
      "effectivePeriod": {
        "start": "2012-09-20"
      },
      "valueQuantity": {
        "value": 17.6,
        "unit": "10^3/ul",
        "system": "http://unitsofmeasure.org",
        "code": "10^3/ul"
      },
      "interpretation": [ {
        "coding": [ {
          "system": "http://terminology.hl7.org/CodeSystem/v3-ObservationInterpretation"
        } ]
      } ]
    }
  }, {
    "resource": {
      "resourceType": "Observation",
      "id": "888c61cb-e273-4605-ac16-6fc5c5cd72c5",
      "identifier": [ {
        "use": "official",
        "system": "urn:oid:1.3.6.1.4.1.22812.3.99930.3.4.5",
        "value": "6599887000033"
      }, {
        "use": "official",
        "system": "urn:oid:1.3.6.1.4.1.22812.3.99930.3.4.5",
        "value": "6599889000033"
      } ],
      "status": "final",
      "category": [ {
        "coding": [ {
          "system": "http://terminology.hl7.org/CodeSystem/observation-category",
          "code": "laboratory"
        } ]
      } ],
      "code": {
        "coding": [ {
          "system": "http://loinc.org",
          "code": "26515-7",
          "display": "PLT"
        } ]
      },
      "subject": {
        "reference": "Patient/54c81340-37ae-436c-bd85-565d22562acc",
        "display": "Mary Grant"
      },
      "effectivePeriod": {
        "start": "2012-09-20"
      },
      "valueQuantity": {
        "value": 247,
        "unit": "10^3/ul",
        "system": "http://unitsofmeasure.org",
        "code": "10^3/ul"
      },
      "interpretation": [ {
        "coding": [ {
          "system": "http://terminology.hl7.org/CodeSystem/v3-ObservationInterpretation"
        } ]
      } ]
    }
  }, {
    "resource": {
      "resourceType": "CarePlan",
      "id": "6b5cb7b1-9db3-4cdd-918e-e62dd30485bc",
      "text": {
        "status": "additional",
        "div": "<div xmlns=\"http://www.w3.org/1999/xhtml\"><ul><caption>Planned Observations</caption><li><table><thead><tr><th>Name</th><th>Dates</th><th>Details</th></tr></thead><tbody><tr><td><span><span><span>Goal: Weight Loss</span></span></span></td><td><span><span>On </span><span>20-Sep-2012</span></span><span><br/></span><span><span/></span></td><td><span><span>Goal</span></span></td></tr></tbody></table></li></ul></div>"
      },
      "status": "active",
      "intent": "plan",
      "category": [ {
        "coding": [ {
          "system": "http://hl7.org/fhir/us/core/CodeSystem/careplan-category",
          "code": "assess-plan"
        } ]
      } ],
      "title": "Plan of Care",
      "description": "<div><ul><caption>Planned Observations</caption><li><table><thead><tr><th>Name</th><th>Dates</th><th>Details</th></tr></thead><tbody><tr><td><span><span><span>Goal: Weight Loss</span></span></span></td><td><span><span>On </span><span>20-Sep-2012</span></span><span><br></br></span><span><span></span></span></td><td><span><span>Goal</span></span></td></tr></tbody></table></li></ul></div>",
      "subject": {
        "reference": "Patient/54c81340-37ae-436c-bd85-565d22562acc",
        "display": "Mary Grant"
      }
    }
  }, {
    "resource": {
      "resourceType": "Observation",
      "id": "7a8aa8d6-95d2-40ef-b8a4-742b1041ecec",
      "status": "final",
      "code": {
        "coding": [ {
          "system": "urn:oid:2.16.840.1.113883.5.4",
          "code": "ASSERTION",
          "display": "Assertion"
        } ]
      },
      "subject": {
        "reference": "Patient/54c81340-37ae-436c-bd85-565d22562acc",
        "display": "Mary Grant"
      },
      "effectivePeriod": {
        "start": "2012"
      },
      "issued": "2012-09-20T10:00:51+02:00",
      "performer": [ {
        "reference": "Practitioner/b64e8576-b08a-487e-8415-3fa76f04c2d5"
      } ],
      "valueCodeableConcept": {
        "coding": [ {
          "system": "http://snomed.info/sct",
          "code": "266919005",
          "display": "Never smoker"
        } ]
      }
    }
  }, {
    "resource": {
      "resourceType": "Practitioner",
      "id": "b64e8576-b08a-487e-8415-3fa76f04c2d5"
    }
  }, {
    "resource": {
      "resourceType": "Observation",
      "id": "5e549ccc-fd0a-47e5-890e-1ab724b4762f",
      "identifier": [ {
        "use": "official",
        "system": "urn:oid:1.3.6.1.4.1.22812.3.99930.3.4.7",
        "value": "11144556"
      } ],
      "status": "preliminary",
      "code": {
        "coding": [ {
          "system": "http://snomed.info/sct",
          "code": "168731009",
          "display": "Chest X-Ray, PA and Lateral Views"
        } ],
        "text": "Chest X-Ray, PA and Lateral Views"
      },
      "subject": {
        "reference": "Patient/54c81340-37ae-436c-bd85-565d22562acc",
        "display": "Mary Grant"
      },
      "effectivePeriod": {
        "start": "2013-02-06"
      },
      "performer": [ {
        "reference": "Practitioner/867750fc-9329-4b84-a064-be05b3f16bc4",
        "display": "Dr Martin Green"
      } ],
      "valueString": "Normal",
      "bodySite": {
        "coding": [ {
          "system": "http://snomed.info/sct",
          "code": "82094008",
          "display": "Lower Respiratory Tract Structure"
        } ]
      }
    }
  }, {
    "resource": {
      "resourceType": "Condition",
      "id": "3a035535-bfd6-4080-8321-f9906d0e8d7c",
      "identifier": [ {
        "use": "official",
        "system": "urn:oid:1.3.6.1.4.1.22812.3.99930.3.4.1.2.1",
        "value": "6368422000070"
      }, {
        "use": "official",
        "system": "urn:oid:1.3.6.1.4.1.22812.3.99930.3.4.1.2.1",
        "value": "6601009000110"
      } ],
      "clinicalStatus": {
        "coding": [ {
          "system": "http://terminology.hl7.org/CodeSystem/condition-clinical",
          "code": "active",
          "display": "Active"
        } ]
      },
      "verificationStatus": {
        "coding": [ {
          "system": "http://terminology.hl7.org/CodeSystem/condition-ver-status",
          "code": "refuted",
          "display": "Refuted"
        } ]
      },
      "category": [ {
        "coding": [ {
          "system": "http://terminology.hl7.org/CodeSystem/condition-category",
          "code": "problem-list-item",
          "display": "Problem List Item"
        } ]
      } ],
      "code": {
        "coding": [ {
          "system": "http://snomed.info/sct",
          "code": "40930008",
          "display": "Hypothroidism"
        } ],
        "text": "Hypothroidism"
      },
      "subject": {
        "reference": "Patient/54c81340-37ae-436c-bd85-565d22562acc",
        "display": "Mary Grant"
      },
      "onsetDateTime": "2010-04-15T01:00:00-04:00",
      "recordedDate": "2010-04-15T01:00:00-04:00",
      "asserter": {
        "reference": "Practitioner/d3ff2fae-b485-4808-a195-90aea8fdc538"
      }
    }
  }, {
    "resource": {
      "resourceType": "Practitioner",
      "id": "d3ff2fae-b485-4808-a195-90aea8fdc538"
    }
  }, {
    "resource": {
      "resourceType": "Condition",
      "id": "83509194-7fe9-4102-aae2-c65aa69a1424",
      "identifier": [ {
        "use": "official",
        "system": "urn:oid:1.3.6.1.4.1.22812.3.99930.3.4.1.2.1",
        "value": "615028800003"
      }, {
        "use": "official",
        "system": "urn:oid:1.3.6.1.4.1.22812.3.99930.3.4.1.2.1",
        "value": "659935200001"
      } ],
      "clinicalStatus": {
        "coding": [ {
          "system": "http://terminology.hl7.org/CodeSystem/condition-clinical",
          "code": "active",
          "display": "Active"
        } ]
      },
      "verificationStatus": {
        "coding": [ {
          "system": "http://terminology.hl7.org/CodeSystem/condition-ver-status",
          "code": "refuted",
          "display": "Refuted"
        } ]
      },
      "category": [ {
        "coding": [ {
          "system": "http://terminology.hl7.org/CodeSystem/condition-category",
          "code": "problem-list-item",
          "display": "Problem List Item"
        } ]
      } ],
      "code": {
        "coding": [ {
          "system": "http://snomed.info/sct",
          "code": "36971009",
          "display": "Sinusitis"
        } ],
        "text": "Sinusitis"
      },
      "subject": {
        "reference": "Patient/54c81340-37ae-436c-bd85-565d22562acc",
        "display": "Mary Grant"
      },
      "onsetDateTime": "2012-09-20",
      "recordedDate": "2012-09-20T01:00:00-04:00",
      "asserter": {
        "reference": "Practitioner/48521374-c477-4d4c-bdc5-0e01fe1950ff"
      }
    }
  }, {
    "resource": {
      "resourceType": "Practitioner",
      "id": "48521374-c477-4d4c-bdc5-0e01fe1950ff"
    }
  }, {
    "resource": {
      "resourceType": "Condition",
      "id": "13cad69c-b597-4e17-a803-381bc41db313",
      "identifier": [ {
        "use": "official",
        "system": "urn:oid:1.3.6.1.4.1.22812.3.99930.3.4.1.2.1",
        "value": "636842200007"
      }, {
        "use": "official",
        "system": "urn:oid:1.3.6.1.4.1.22812.3.99930.3.4.1.2.1",
        "value": "660100900011"
      } ],
      "clinicalStatus": {
        "coding": [ {
          "system": "http://terminology.hl7.org/CodeSystem/condition-clinical",
          "code": "active",
          "display": "Active"
        } ]
      },
      "verificationStatus": {
        "coding": [ {
          "system": "http://terminology.hl7.org/CodeSystem/condition-ver-status",
          "code": "refuted",
          "display": "Refuted"
        } ]
      },
      "category": [ {
        "coding": [ {
          "system": "http://terminology.hl7.org/CodeSystem/condition-category",
          "code": "problem-list-item",
          "display": "Problem List Item"
        } ]
      } ],
      "code": {
        "coding": [ {
          "system": "http://snomed.info/sct",
          "code": "35489007",
          "display": "Depression"
        } ],
        "text": "Depression"
      },
      "subject": {
        "reference": "Patient/54c81340-37ae-436c-bd85-565d22562acc",
        "display": "Mary Grant"
      },
      "onsetDateTime": "2011-11-10T00:00:00-05:00",
      "recordedDate": "2011-11-10T00:00:00-05:00",
      "asserter": {
        "reference": "Practitioner/e0b838e9-68f3-406d-9e20-6040fe4ddd96"
      }
    }
  }, {
    "resource": {
      "resourceType": "Practitioner",
      "id": "e0b838e9-68f3-406d-9e20-6040fe4ddd96"
    }
  }, {
    "resource": {
      "resourceType": "AllergyIntolerance",
      "id": "65070a57-9156-4d99-bd97-ac8135977d0e",
      "identifier": [ {
        "use": "official",
        "system": "urn:oid:1.3.6.1.4.1.22812.3.99930.3.4.10",
        "value": "613618700107"
      }, {
        "use": "official",
        "system": "urn:oid:1.3.6.1.4.1.22812.3.99930.3.4.10",
        "value": "613618700109"
      } ],
      "clinicalStatus": {
        "coding": [ {
          "system": "http://terminology.hl7.org/CodeSystem/allergyintolerance-clinical",
          "code": "active",
          "display": "Active"
        } ]
      },
      "verificationStatus": {
        "coding": [ {
          "system": "http://terminology.hl7.org/CodeSystem/allergyintolerance-verification",
          "code": "confirmed",
          "display": "Confirmed"
        } ]
      },
      "type": "allergy",
      "category": [ "medication" ],
      "code": {
        "coding": [ {
          "system": "http://www.nlm.nih.gov/research/umls/rxnorm",
          "code": "7982",
          "display": "Penicillin G benzathine"
        } ],
        "text": "Penicillin G benzathine"
      },
      "patient": {
        "reference": "Patient/54c81340-37ae-436c-bd85-565d22562acc",
        "display": "Mary Grant"
      },
      "onsetDateTime": "1998-01-10",
      "recordedDate": "1998-01-10",
      "recorder": {
        "reference": "Practitioner/4edf1e64-2c3b-4685-b715-a138d471aa05"
      },
      "reaction": [ {
        "manifestation": [ {
          "coding": [ {
            "system": "http://snomed.info/sct",
            "code": "247472004",
            "display": "Hives"
          } ],
          "text": "Hives"
        } ]
      } ]
    }
  }, {
    "resource": {
      "resourceType": "Practitioner",
      "id": "4edf1e64-2c3b-4685-b715-a138d471aa05"
    }
  }, {
    "resource": {
      "resourceType": "AllergyIntolerance",
      "id": "b28ad620-a067-4c46-9da6-985868ef1d23",
      "identifier": [ {
        "use": "official",
        "system": "urn:oid:1.3.6.1.4.1.22812.3.99930.3.4.10",
        "value": "613618700100"
      }, {
        "use": "official",
        "system": "urn:oid:1.3.6.1.4.1.22812.3.99930.3.4.10",
        "value": "6136187001091"
      } ],
      "clinicalStatus": {
        "coding": [ {
          "system": "http://terminology.hl7.org/CodeSystem/allergyintolerance-clinical",
          "code": "active",
          "display": "Active"
        } ]
      },
      "verificationStatus": {
        "coding": [ {
          "system": "http://terminology.hl7.org/CodeSystem/allergyintolerance-verification",
          "code": "confirmed",
          "display": "Confirmed"
        } ]
      },
      "type": "allergy",
      "category": [ "medication" ],
      "code": {
        "coding": [ {
          "system": "http://www.nlm.nih.gov/research/umls/rxnorm",
          "code": "1191",
          "display": "Aspirin"
        } ],
        "text": "Aspirin"
      },
      "patient": {
        "reference": "Patient/54c81340-37ae-436c-bd85-565d22562acc",
        "display": "Mary Grant"
      },
      "recorder": {
        "reference": "Practitioner/28e41044-336f-43fd-8cc5-cabb415439a9"
      },
      "reaction": [ {
        "manifestation": [ {
          "coding": [ {
            "system": "http://snomed.info/sct",
            "code": "422587007",
            "display": "Nausea"
          } ],
          "text": "Nausea"
        } ]
      } ]
    }
  }, {
    "resource": {
      "resourceType": "Practitioner",
      "id": "28e41044-336f-43fd-8cc5-cabb415439a9"
    }
  } ]
}