{
  "resourceType": "Bundle",
  "entry": [ {
    "resource": {
      "resourceType": "Composition",
      "id": "79e654fe-12fc-4745-9189-580e60ccd938",
      "identifier": {
        "use": "official",
        "system": "urn:oid:1.3.6.1.4.1.22812.3.99930.3.1",
        "value": "66670992"
      },
      "status": "preliminary",
      "type": {
        "coding": [ {
          "system": "http://loinc.org",
          "code": "34133-9",
          "display": "SUMMARIZATION OF EPISODE NOTE"
        } ]
      },
      "category": [ {
        "coding": [ {
          "system": "http://hl7.org/fhir/ValueSet/doc-classcodes",
          "code": "LP173421-7",
          "display": "Note"
        } ]
      } ],
      "subject": {
        "reference": "Patient/c2ae6494-e1c7-4ec8-b83f-bacd7dbc3381",
        "display": "Myra Jones"
      },
      "date": "2013-01-30T08:00:51-05:00",
      "author": [ {
        "reference": "Practitioner/25bfdb78-5e92-4113-988c-1ce8e5e3c2fc",
        "display": "Dr Samir Khan"
      }, {
        "reference": "Device/68bc9b82-be4e-47b5-a73c-dc1373aa414e"
      } ],
      "title": "Summary of Care",
      "confidentiality": "V",
      "attester": [ {
        "mode": "legal",
        "time": "2013-01-30T08:00:51-05:00",
        "party": {
          "reference": "Practitioner/25bfdb78-5e92-4113-988c-1ce8e5e3c2fc",
          "display": "Dr Samir Khan"
        }
      }, {
        "mode": "professional",
        "time": "2013-01-30T08:00:51-05:00",
        "party": {
          "reference": "Practitioner/25bfdb78-5e92-4113-988c-1ce8e5e3c2fc",
          "display": "Dr Samir Khan"
        }
      } ],
      "custodian": {
        "reference": "Organization/c928ede5-489f-433c-a781-704c9bf41597",
        "display": "Get Well Clinic"
      },
      "event": [ {
        "period": {
          "start": "2012-08-15T09:00:51+02:00",
          "end": "2013-01-30T08:00:51-05:00"
        },
        "detail": [ {
          "reference": "Practitioner/25bfdb78-5e92-4113-988c-1ce8e5e3c2fc",
          "display": "Dr Samir Khan"
        }, {
          "reference": "Practitioner/938a07a5-937a-4a36-a162-756e0384a839",
          "display": "Nancy Nightingale RN"
        }, {
          "reference": "Practitioner/3934bac5-8869-453b-b715-5939518452d8",
          "display": "Dr Penny Puffer"
        } ]
      } ],
      "section": [ {
        "title": "Plan of Care",
        "code": {
          "coding": [ {
            "system": "http://loinc.org",
            "code": "18776-5",
            "display": "Plan of Care"
          } ]
        },
        "text": {
          "status": "additional",
          "div": "<div xmlns=\"http://www.w3.org/1999/xhtml\"><ul><caption>Planned Observations</caption><li><table><thead><tr><th>Name</th><th>Dates</th><th>Details</th></tr></thead><tbody><tr><td><span><span><span>Goal: Weight Loss</span></span></span></td><td><span><span>On </span><span>15-Aug-2012</span></span><span><br/></span><span><span/></span></td><td><span><span>Goal</span></span></td></tr><tr><td><span><span><span>Goal: Asthma Management</span></span></span></td><td><span><span>On </span><span>15-Aug-2012</span></span><span><br/></span><span><span/></span></td><td><span><span>Goal</span></span></td></tr></tbody></table></li></ul><ul><caption>Planned Encounters</caption><li><table><tbody><tr><td><span><span>Pulmonary function Tests</span></span><span><br/></span><span><span>Encounter Reason: </span><span>Pulmonary function Tests (reason)</span></span><span><span>Dr. Penny Puffer Office - need office address</span></span><span><br/></span><span><br/></span><span><span> Puffer</span>, Penny Dr </span></td><td><span><span>On </span><span>1-Feb-2013</span></span><span><br/></span><span><span>00:00</span></span></td></tr></tbody></table></li></ul></div>"
        },
        "mode": "snapshot",
        "entry": [ {
          "reference": "CarePlan/d1c017e3-6f85-47b5-b74e-93febbf3a635"
        } ]
      }, {
        "title": "Functional Status",
        "code": {
          "coding": [ {
            "system": "http://loinc.org",
            "code": "47420-5",
            "display": "Functional Status"
          } ]
        },
        "text": {
          "status": "additional",
          "div": "<div xmlns=\"http://www.w3.org/1999/xhtml\"><ul><caption>Functional Status Health Issues</caption><li><table><thead><tr><th>Name</th><th>Dates</th><th>Details</th></tr></thead><tbody><tr><td><span><span>No Functional Impairment</span></span><span><span/></span><span><br/></span></td><td><span><span>Onset<span>:</span></span><span>15-Aug-2012</span></span></td><td><span><span><span>Status: </span><span/></span></span></td></tr></tbody></table></li></ul><ul><caption>Cognitive Status Health Issues</caption><li><table><thead><tr><th>Name</th><th>Dates</th><th>Details</th></tr></thead><tbody><tr><td><span><span>No Cognitive Impairment</span></span><span><span/></span><span><br/></span></td><td><span><span>Onset<span>:</span></span><span>15-Aug-2012</span></span></td><td><span><span><span>Status: </span><span/></span></span></td></tr></tbody></table></li></ul></div>"
        },
        "mode": "snapshot"
      }, {
        "title": "Social History",
        "code": {
          "coding": [ {
            "system": "http://loinc.org",
            "code": "29762-2",
            "display": "Social History"
          } ]
        },
        "text": {
          "status": "additional",
          "div": "<div xmlns=\"http://www.w3.org/1999/xhtml\"><ul><caption>Smoking Status</caption><li><span>Never smoker</span><span> Started 2012</span></li><li><span>Current some day smoker</span><span> Started 2012</span></li></ul></div>"
        },
        "mode": "snapshot",
        "entry": [ {
          "reference": "Observation/822a501a-1e21-4482-a7e5-4f428eb9b597",
          "display": "Assertion"
        }, {
          "reference": "Observation/00bf5950-b935-4aa5-be10-2e564dc40add",
          "display": "Assertion"
        } ]
      }, {
        "title": "Medications",
        "code": {
          "coding": [ {
            "system": "http://loinc.org",
            "code": "10160-0",
            "display": "History of medication use"
          } ]
        },
        "text": {
          "status": "additional",
          "div": "<div xmlns=\"http://www.w3.org/1999/xhtml\"><table><thead><tr><th>Name</th><th>Dates</th><th>Details</th></tr></thead><tbody><tr><td><span><span>fluticasone inhaled</span></span><span><br/></span><span><span><span>88 mcg twice daily AS DIRECTED.</span></span></span><span><br/></span><span><span/></span></td><td/><td><ul><li><table><tbody><tr><td><span> Started </span>1-Oct-2007</td></tr></tbody></table></li></ul><span><span/><span>Active</span></span><span><span>Generic substitution allowed</span></span><span><br/></span></td></tr><tr><td><span><span>metoprolol tartrate 50 MG Oral Tablet</span></span><span><br/></span><span><span><span>TAKE 1 TABLET twice daily As Directed</span></span></span><span><br/></span><span><span/></span></td><td/><td><ul><li><table><tbody><tr><td><span> Started </span>1-May-2009</td></tr></tbody></table></li></ul><span><span/><span>Active</span></span><span><span>Generic substitution allowed</span></span><span><br/></span></td></tr></tbody></table></div>"
        },
        "mode": "snapshot"
      }, {
        "title": "Problems",
        "code": {
          "coding": [ {
            "system": "http://loinc.org",
            "code": "11450-4",
            "display": "Problem List"
          } ]
        },
        "text": {
          "status": "additional",
          "div": "<div xmlns=\"http://www.w3.org/1999/xhtml\"><table><thead><tr><th>Name</th><th>Dates</th><th>Details</th></tr></thead><tbody><tr><td><span><span>Hypertension</span></span><span><span/></span><span><br/></span></td><td><span><span>Onset<span>:</span></span><span>1-May-2009</span></span></td><td><span><span><span>Status: </span><span>Active</span></span></span></td></tr><tr><td><span><span>Asthma</span></span><span><span/></span><span><br/></span></td><td><span><span>Onset<span>:</span></span><span>3-Jan-2007</span></span></td><td><span><span><span>Status: </span><span>Active</span></span></span></td></tr></tbody></table></div>"
        },
        "mode": "snapshot",
        "entry": [ {
          "reference": "Condition/67b275f9-f8a8-4812-aa54-e20f38c759ca",
          "display": "Hypertension"
        }, {
          "reference": "Condition/12532bf2-7a02-47ee-a6a0-8c6631571861",
          "display": "Asthma"
        } ]
      }, {
        "title": "Procedures",
        "code": {
          "coding": [ {
            "system": "http://loinc.org",
            "code": "47519-4",
            "display": "History of Procedures"
          } ]
        },
        "text": {
          "status": "additional",
          "div": "<div xmlns=\"http://www.w3.org/1999/xhtml\"><table><thead><tr><th>Procedure</th><th>Dates</th><th>Details</th></tr></thead><tbody><tr><td><span>No Known Procedures</span></td><td/><td/></tr></tbody></table></div>"
        },
        "mode": "snapshot",
        "entry": [ {
          "reference": "Procedure/08974304-2791-4894-80cc-08a72a2fec8b"
        } ]
      }, {
        "title": "Results",
        "code": {
          "coding": [ {
            "system": "http://loinc.org",
            "code": "30954-2",
            "display": "Relevant diagnostic tests and/or laboratory data"
          } ]
        },
        "text": {
          "status": "additional",
          "div": "<div xmlns=\"http://www.w3.org/1999/xhtml\"><table><thead><tr><th>Date</th><th>Description</th><th>Value</th><th>Details</th></tr></thead><tbody><tr><td><span><span>Resulted on:</span></span><span><br/></span><span>15-Aug-2012 10:33</span></td><td><span>CO2</span></td><td><span>25  mmol/L</span></td><td/></tr><tr><td/><td/><td/><td/></tr></tbody></table></div>"
        },
        "mode": "snapshot",
        "entry": [ {
          "reference": "DiagnosticReport/2f93c922-0235-418d-b9c2-35a6273b37a5",
          "display": "CO2"
        } ]
      }, {
        "title": "Encounters",
        "code": {
          "coding": [ {
            "system": "http://loinc.org",
            "code": "46240-8",
            "display": "Encounters"
          } ]
        },
        "text": {
          "status": "additional",
          "div": "<div xmlns=\"http://www.w3.org/1999/xhtml\"><table><tbody><tr><td><span><span>Offie Visit</span></span><span><br/></span><span><span>Encounter Diagnosis: </span><span>Costochondritis</span></span><span><span><span>Active</span></span></span><span><span>Get Well Clinic</span></span><span><br/></span><span><br/></span><span><span> Khan</span>, Samir Dr </span></td><td><span><span>On </span><span>15-Aug-2012</span></span><span><br/></span><span><span>09:00</span></span></td></tr></tbody></table></div>"
        },
        "mode": "snapshot",
        "entry": [ {
          "reference": "Encounter/5e0ad072-4435-4612-86b0-87bd51c60893",
          "display": "Offie Visit"
        } ]
      }, {
        "title": "Allergies and Adverse Reactions",
        "code": {
          "coding": [ {
            "system": "http://loinc.org",
            "code": "48765-2",
            "display": "Allergies, adverse reactions, alerts"
          } ]
        },
        "text": {
          "status": "additional",
          "div": "<div xmlns=\"http://www.w3.org/1999/xhtml\"><table><thead><tr><th>Name</th><th>Dates</th><th>Details</th></tr></thead><tbody><tr><td><span><span>Aspirin</span></span><span><span>Severity: </span><span><span>Mild to moderate</span></span></span><span><br/></span></td><td><span/></td><td><span><span><span>Reaction: </span><span>Hives</span></span></span><span><br/></span><span><span>Status: </span><span>Active</span></span></td></tr><tr><td><span><span>Bactrim</span></span><span><span>Severity: </span><span><span>Moderate to severe</span></span></span><span><br/></span></td><td><span/></td><td><span><span><span>Reaction: </span><span>Rash</span></span></span><span><br/></span><span><span>Status: </span><span>Active</span></span></td></tr></tbody></table></div>"
        },
        "mode": "snapshot",
        "entry": [ {
          "reference": "AllergyIntolerance/a0b84d97-4ab4-45de-b42e-ad361f2eac88",
          "display": "Aspirin"
        }, {
          "reference": "AllergyIntolerance/7a5fdf6f-0b32-46a0-bfb8-d83b41bf10a5",
          "display": "Bactrim"
        } ]
      }, {
        "title": "Immunization",
        "code": {
          "coding": [ {
            "system": "http://loinc.org",
            "code": "11369-6",
            "display": "Immunizations"
          } ]
        },
        "text": {
          "status": "additional",
          "div": "<div xmlns=\"http://www.w3.org/1999/xhtml\"><table><thead><tr><th>Name</th><th>Dates</th><th>Details</th></tr></thead><tbody><tr><td><span><span>Influenza virus vaccine</span></span><span><br/></span></td><td><span><span>Administered on<span>:</span></span><span>15-Aug-2012</span></span></td><td><span><span> Site: </span><span><span>Left Arm</span></span></span><span><br/></span></td></tr></tbody></table></div>"
        },
        "mode": "snapshot",
        "entry": [ {
          "reference": "Immunization/a101e79a-5f9b-4208-8bec-e55694f073ad",
          "display": "Influenza virus vaccine"
        } ]
      } ]
    }
  }, {
    "resource": {
      "resourceType": "Patient",
      "id": "c2ae6494-e1c7-4ec8-b83f-bacd7dbc3381",
      "extension": [ {
        "url": "http://hl7.org/fhir/us/core/StructureDefinition/us-core-race",
        "extension": [ {
          "url": "text",
          "valueString": "White"
        }, {
          "url": "ombCategory",
          "valueCoding": {
            "system": "urn:oid:2.16.840.1.113883.6.238",
            "code": "2106-3",
            "display": "White"
          }
        } ]
      }, {
        "url": "http://hl7.org/fhir/us/core/StructureDefinition/us-core-ethnicity",
        "extension": [ {
          "url": "text",
          "valueString": "Not Hispanic or Latino"
        }, {
          "url": "ombCategory",
          "valueCoding": {
            "system": "urn:oid:2.16.840.1.113883.6.238",
            "code": "2186-5",
            "display": "Not Hispanic or Latino"
          }
        } ]
      } ],
      "identifier": [ {
        "use": "official",
        "system": "urn:oid:1.3.6.1.4.1.22812.3.99930.3",
        "value": "110107073916280"
      } ],
      "name": [ {
        "family": "Jones",
        "given": [ "Myra" ]
      } ],
      "telecom": [ {
        "system": "phone",
        "value": "+1-(555)555-3333",
        "use": "home"
      } ],
      "gender": "female",
      "birthDate": "1947-05-01",
      "address": [ {
        "use": "home",
        "line": [ "1234 Six Forks" ],
        "city": "Portland",
        "state": "OR",
        "postalCode": "97005",
        "country": "US"
      } ],
      "communication": [ {
        "language": {
          "coding": [ {
            "system": "urn:ietf:bcp:47",
            "code": "eng"
          } ]
        },
        "preferred": true
      } ],
      "managingOrganization": {
        "reference": "Organization/c928ede5-489f-433c-a781-704c9bf41597",
        "display": "Get Well Clinic"
      }
    }
  }, {
    "resource": {
      "resourceType": "Organization",
      "id": "c928ede5-489f-433c-a781-704c9bf41597",
      "identifier": [ {
        "use": "official",
        "system": "urn:oid:1.3.6.1.4.1.22812.3.99930.3",
        "value": "3"
      } ],
      "name": "Get Well Clinic",
      "telecom": [ {
        "system": "phone",
        "value": "+1-(555)555-1004"
      } ],
      "address": [ {
        "line": [ "Get Well Clinic", "1004 Healthcare Dr." ],
        "city": "Portland",
        "state": "OR",
        "postalCode": "97005",
        "country": "US"
      } ]
    }
  }, {
    "resource": {
      "resourceType": "Practitioner",
      "id": "25bfdb78-5e92-4113-988c-1ce8e5e3c2fc",
      "identifier": [ {
        "use": "official",
        "system": "urn:oid:2.16.840.1.113883.4.6",
        "value": "1111111111"
      }, {
        "use": "official",
        "system": "urn:oid:1.3.6.1.4.1.22812.3.99930.3",
        "value": "91138"
      } ],
      "name": [ {
        "family": "Khan",
        "given": [ "Samir" ],
        "prefix": [ "Dr" ]
      } ],
      "telecom": [ {
        "system": "phone",
        "value": "+1-(555)555-1004"
      } ],
      "address": [ {
        "line": [ "Get Well Clinic", "1004 Healthcare Dr." ],
        "city": "Portland",
        "state": "OR",
        "postalCode": "97005",
        "country": "US"
      } ]
    }
  }, {
    "resource": {
      "resourceType": "Device",
      "id": "68bc9b82-be4e-47b5-a73c-dc1373aa414e",
      "identifier": [ {
        "use": "official",
        "system": "urn:oid:1.3.6.1.4.1.22812.3.99930.3.3.3",
        "value": "3"
      } ],
      "manufacturer": "Enterprise EHR Clinical System 11.200.4210.17305",
      "type": {
        "coding": [ {
          "display": "Enterprise EHR Clinical System 11.200.4210.17305"
        } ]
      },
      "version": [ {
        "value": "Enterprise EHR Clinical System 11.200.4210.17305; Transform 4.1.1.18"
      } ],
      "owner": {
        "reference": "Organization/c928ede5-489f-433c-a781-704c9bf41597"
      }
    }
  }, {
    "resource": {
      "resourceType": "Practitioner",
      "id": "938a07a5-937a-4a36-a162-756e0384a839",
      "identifier": [ {
        "use": "official",
        "system": "urn:oid:1.3.6.1.4.1.22812.3.99930.3",
        "value": "3333"
      } ],
      "name": [ {
        "family": "Nightingale",
        "given": [ "Nancy" ],
        "suffix": [ "RN" ]
      } ],
      "telecom": [ {
        "system": "phone",
        "value": "+1-(555)555-1014"
      } ],
      "address": [ {
        "line": [ "Get Well Clinic", "1004 Healthcare Dr." ],
        "city": "Portland",
        "state": "OR",
        "postalCode": "97005",
        "country": "US"
      } ]
    }
  }, {
    "resource": {
      "resourceType": "Practitioner",
      "id": "3934bac5-8869-453b-b715-5939518452d8",
      "identifier": [ {
        "use": "official",
        "system": "http://hl7.org/fhir/sid/us-npi",
        "value": "2222222222"
      } ],
      "name": [ {
        "family": "Puffer",
        "given": [ "Penny" ],
        "prefix": [ "Dr" ]
      } ],
      "telecom": [ {
        "system": "phone",
        "value": "+1-(555)555-1049"
      } ],
      "address": [ {
        "line": [ "1047 Healthcare Drive" ],
        "city": "Portland",
        "state": "OR",
        "postalCode": "97005",
        "country": "US"
      } ]
    }
  }, {
    "resource": {
      "resourceType": "CarePlan",
      "id": "d1c017e3-6f85-47b5-b74e-93febbf3a635",
      "text": {
        "status": "additional",
        "div": "<div xmlns=\"http://www.w3.org/1999/xhtml\"><ul><caption>Planned Observations</caption><li><table><thead><tr><th>Name</th><th>Dates</th><th>Details</th></tr></thead><tbody><tr><td><span><span><span>Goal: Weight Loss</span></span></span></td><td><span><span>On </span><span>15-Aug-2012</span></span><span><br/></span><span><span/></span></td><td><span><span>Goal</span></span></td></tr><tr><td><span><span><span>Goal: Asthma Management</span></span></span></td><td><span><span>On </span><span>15-Aug-2012</span></span><span><br/></span><span><span/></span></td><td><span><span>Goal</span></span></td></tr></tbody></table></li></ul><ul><caption>Planned Encounters</caption><li><table><tbody><tr><td><span><span>Pulmonary function Tests</span></span><span><br/></span><span><span>Encounter Reason: </span><span>Pulmonary function Tests (reason)</span></span><span><span>Dr. Penny Puffer Office - need office address</span></span><span><br/></span><span><br/></span><span><span> Puffer</span>, Penny Dr </span></td><td><span><span>On </span><span>1-Feb-2013</span></span><span><br/></span><span><span>00:00</span></span></td></tr></tbody></table></li></ul></div>"
      },
      "status": "active",
      "intent": "plan",
      "category": [ {
        "coding": [ {
          "system": "http://hl7.org/fhir/us/core/CodeSystem/careplan-category",
          "code": "assess-plan"
        } ]
      } ],
      "title": "Plan of Care",
      "description": "<div><ul><caption>Planned Observations</caption><li><table><thead><tr><th>Name</th><th>Dates</th><th>Details</th></tr></thead><tbody><tr><td><span><span><span>Goal: Weight Loss</span></span></span></td><td><span><span>On </span><span>15-Aug-2012</span></span><span><br></br></span><span><span></span></span></td><td><span><span>Goal</span></span></td></tr><tr><td><span><span><span>Goal: Asthma Management</span></span></span></td><td><span><span>On </span><span>15-Aug-2012</span></span><span><br></br></span><span><span></span></span></td><td><span><span>Goal</span></span></td></tr></tbody></table></li></ul><ul><caption>Planned Encounters</caption><li><table><tbody><tr><td><span><span>Pulmonary function Tests</span></span><span><br></br></span><span><span>Encounter Reason: </span><span>Pulmonary function Tests (reason)</span></span><span><span>Dr. Penny Puffer Office - need office address</span></span><span><br></br></span><span><br></br></span><span><span> Puffer</span>, Penny Dr </span></td><td><span><span>On </span><span>1-Feb-2013</span></span><span><br></br></span><span><span>00:00</span></span></td></tr></tbody></table></li></ul></div>",
      "subject": {
        "reference": "Patient/c2ae6494-e1c7-4ec8-b83f-bacd7dbc3381",
        "display": "Myra Jones"
      }
    }
  }, {
    "resource": {
      "resourceType": "Observation",
      "id": "822a501a-1e21-4482-a7e5-4f428eb9b597",
      "status": "final",
      "code": {
        "coding": [ {
          "system": "urn:oid:2.16.840.1.113883.5.4",
          "code": "ASSERTION",
          "display": "Assertion"
        } ]
      },
      "subject": {
        "reference": "Patient/c2ae6494-e1c7-4ec8-b83f-bacd7dbc3381",
        "display": "Myra Jones"
      },
      "effectivePeriod": {
        "start": "2012"
      },
      "issued": "2011-10-28T10:00:51+02:00",
      "performer": [ {
        "reference": "Practitioner/73f50aa4-e875-43fa-81a0-d53b17405515"
      } ],
      "valueCodeableConcept": {
        "coding": [ {
          "system": "http://snomed.info/sct",
          "code": "266919005",
          "display": "Never smoker"
        } ]
      }
    }
  }, {
    "resource": {
      "resourceType": "Practitioner",
      "id": "73f50aa4-e875-43fa-81a0-d53b17405515"
    }
  }, {
    "resource": {
      "resourceType": "Observation",
      "id": "00bf5950-b935-4aa5-be10-2e564dc40add",
      "status": "final",
      "code": {
        "coding": [ {
          "system": "urn:oid:2.16.840.1.113883.5.4",
          "code": "ASSERTION",
          "display": "Assertion"
        } ]
      },
      "subject": {
        "reference": "Patient/c2ae6494-e1c7-4ec8-b83f-bacd7dbc3381",
        "display": "Myra Jones"
      },
      "effectivePeriod": {
        "start": "2012"
      },
      "issued": "2012-09-25T10:00:51+02:00",
      "performer": [ {
        "reference": "Practitioner/c2a93860-f738-4aa0-a717-eb674fda5fec"
      } ],
      "valueCodeableConcept": {
        "coding": [ {
          "system": "http://snomed.info/sct",
          "code": "428041000124106",
          "display": "Current some day smoker"
        } ]
      }
    }
  }, {
    "resource": {
      "resourceType": "Practitioner",
      "id": "c2a93860-f738-4aa0-a717-eb674fda5fec"
    }
  }, {
    "resource": {
      "resourceType": "Condition",
      "id": "67b275f9-f8a8-4812-aa54-e20f38c759ca",
      "identifier": [ {
        "use": "official",
        "system": "urn:oid:1.3.6.1.4.1.22812.3.99930.3.4.1.2.1",
        "value": "615028800003"
      }, {
        "use": "official",
        "system": "urn:oid:1.3.6.1.4.1.22812.3.99930.3.4.1.2.1",
        "value": "659935200001"
      } ],
      "clinicalStatus": {
        "coding": [ {
          "system": "http://terminology.hl7.org/CodeSystem/condition-clinical",
          "code": "active",
          "display": "Active"
        } ]
      },
      "verificationStatus": {
        "coding": [ {
          "system": "http://terminology.hl7.org/CodeSystem/condition-ver-status",
          "code": "refuted",
          "display": "Refuted"
        } ]
      },
      "category": [ {
        "coding": [ {
          "system": "http://terminology.hl7.org/CodeSystem/condition-category",
          "code": "problem-list-item",
          "display": "Problem List Item"
        } ]
      } ],
      "code": {
        "coding": [ {
          "system": "http://snomed.info/sct",
          "code": "38341003",
          "display": "Hypertension"
        } ],
        "text": "Hypertension"
      },
      "subject": {
        "reference": "Patient/c2ae6494-e1c7-4ec8-b83f-bacd7dbc3381",
        "display": "Myra Jones"
      },
      "onsetDateTime": "2009-05-01",
      "recordedDate": "2009-05-01T01:00:00-04:00",
      "asserter": {
        "reference": "Practitioner/b0e2fb09-5189-4d81-9323-fa246bb01913"
      }
    }
  }, {
    "resource": {
      "resourceType": "Practitioner",
      "id": "b0e2fb09-5189-4d81-9323-fa246bb01913"
    }
  }, {
    "resource": {
      "resourceType": "Condition",
      "id": "12532bf2-7a02-47ee-a6a0-8c6631571861",
      "identifier": [ {
        "use": "official",
        "system": "urn:oid:1.3.6.1.4.1.22812.3.99930.3.4.1.2.1",
        "value": "636842200007"
      }, {
        "use": "official",
        "system": "urn:oid:1.3.6.1.4.1.22812.3.99930.3.4.1.2.1",
        "value": "660100900011"
      } ],
      "clinicalStatus": {
        "coding": [ {
          "system": "http://terminology.hl7.org/CodeSystem/condition-clinical",
          "code": "active",
          "display": "Active"
        } ]
      },
      "verificationStatus": {
        "coding": [ {
          "system": "http://terminology.hl7.org/CodeSystem/condition-ver-status",
          "code": "refuted",
          "display": "Refuted"
        } ]
      },
      "category": [ {
        "coding": [ {
          "system": "http://terminology.hl7.org/CodeSystem/condition-category",
          "code": "problem-list-item",
          "display": "Problem List Item"
        } ]
      } ],
      "code": {
        "coding": [ {
          "system": "http://snomed.info/sct",
          "code": "195967001",
          "display": "Asthma"
        } ],
        "text": "Asthma"
      },
      "subject": {
        "reference": "Patient/c2ae6494-e1c7-4ec8-b83f-bacd7dbc3381",
        "display": "Myra Jones"
      },
      "onsetDateTime": "2007-01-03T00:00:00-05:00",
      "recordedDate": "2007-01-03T00:00:00-05:00",
      "asserter": {
        "reference": "Practitioner/d80b60b6-f66b-4016-8d05-cab18b42cb82"
      }
    }
  }, {
    "resource": {
      "resourceType": "Practitioner",
      "id": "d80b60b6-f66b-4016-8d05-cab18b42cb82"
    }
  }, {
    "resource": {
      "resourceType": "Procedure",
      "id": "08974304-2791-4894-80cc-08a72a2fec8b",
      "identifier": [ {
        "use": "official",
        "system": "urn:oid:1.3.6.1.4.1.22812.3.99930.3.4.7",
        "value": "1898101"
      } ],
      "status": "in-progress",
      "subject": {
        "reference": "Patient/c2ae6494-e1c7-4ec8-b83f-bacd7dbc3381",
        "display": "Myra Jones"
      }
    }
  }, {
    "resource": {
      "resourceType": "DiagnosticReport",
      "id": "2f93c922-0235-418d-b9c2-35a6273b37a5",
      "identifier": [ {
        "use": "official",
        "system": "urn:oid:1.3.6.1.4.1.22812.3.99930.3.4.5",
        "value": "659988700005"
      } ],
      "status": "final",
      "category": [ {
        "coding": [ {
          "system": "http://terminology.hl7.org/CodeSystem/v2-0074",
          "code": "LAB",
          "display": "Laboratory"
        } ]
      } ],
      "code": {
        "coding": [ {
          "system": "http://www.ama-assn.org/go/cpt",
          "code": "82374",
          "display": "CO2"
        } ]
      },
      "subject": {
        "reference": "Patient/c2ae6494-e1c7-4ec8-b83f-bacd7dbc3381",
        "display": "Myra Jones"
      },
      "effectivePeriod": {
        "start": "2012-08-15"
      },
      "issued": "2012-08-15T00:00:00.000+02:00",
      "performer": [ {
        "reference": "Practitioner/328141ef-9675-47a1-8696-967644440e74"
      } ],
      "result": [ {
        "reference": "Observation/90ae27a8-0bc6-461b-95cc-70a57ed3d32c",
        "display": "CO2"
      } ]
    }
  }, {
    "resource": {
      "resourceType": "Practitioner",
      "id": "328141ef-9675-47a1-8696-967644440e74"
    }
  }, {
    "resource": {
      "resourceType": "Observation",
      "id": "90ae27a8-0bc6-461b-95cc-70a57ed3d32c",
      "identifier": [ {
        "use": "official",
        "system": "urn:oid:1.3.6.1.4.1.22812.3.99930.3.4.5",
        "value": "6599887000031"
      }, {
        "use": "official",
        "system": "urn:oid:1.3.6.1.4.1.22812.3.99930.3.4.5",
        "value": "6599889000031"
      } ],
      "status": "final",
      "category": [ {
        "coding": [ {
          "system": "http://terminology.hl7.org/CodeSystem/observation-category",
          "code": "laboratory"
        } ]
      } ],
      "code": {
        "coding": [ {
          "system": "http://loinc.org",
          "code": "2028-9",
          "display": "CO2"
        } ]
      },
      "subject": {
        "reference": "Patient/c2ae6494-e1c7-4ec8-b83f-bacd7dbc3381",
        "display": "Myra Jones"
      },
      "effectivePeriod": {
        "start": "2012-08-15"
      },
      "valueQuantity": {
        "value": 25,
        "unit": "mmol/L",
        "system": "http://unitsofmeasure.org",
        "code": "mmol/L"
      },
      "interpretation": [ {
        "coding": [ {
          "system": "http://terminology.hl7.org/CodeSystem/v3-ObservationInterpretation"
        } ]
      } ]
    }
  }, {
    "resource": {
      "resourceType": "Encounter",
      "id": "5e0ad072-4435-4612-86b0-87bd51c60893",
      "identifier": [ {
        "use": "official",
        "system": "urn:oid:1.3.6.1.4.1.22812.3.99930.3.3.4",
        "value": "5283815"
      } ],
      "status": "finished",
      "type": [ {
        "coding": [ {
          "system": "http://www.ama-assn.org/go/cpt",
          "code": "99231",
          "display": "UNK"
        } ],
        "text": "Offie Visit"
      } ],
      "subject": {
        "reference": "Patient/c2ae6494-e1c7-4ec8-b83f-bacd7dbc3381",
        "display": "Myra Jones"
      },
      "participant": [ {
        "type": [ {
          "coding": [ {
            "system": "http://terminology.hl7.org/CodeSystem/v3-ParticipationType",
            "code": "PART",
            "display": "Participation"
          } ]
        } ],
        "period": {
          "start": "2012-08-15T09:00:51+02:00"
        },
        "individual": {
          "reference": "Practitioner/25bfdb78-5e92-4113-988c-1ce8e5e3c2fc",
          "display": "Dr Samir Khan"
        }
      } ],
      "period": {
        "start": "2012-08-15T09:00:51+02:00"
      },
      "diagnosis": [ {
        "condition": {
          "reference": "Condition/ebd0b9c8-a2b2-4a92-9c2c-2feae4512dc7",
          "display": "Costochondritis"
        }
      } ],
      "location": [ {
        "location": {
          "reference": "Location/775da3cd-b7c8-4791-be1f-8a336a08603f",
          "display": "Get Well Clinic"
        }
      } ]
    }
  }, {
    "resource": {
      "resourceType": "Condition",
      "id": "ebd0b9c8-a2b2-4a92-9c2c-2feae4512dc7",
      "identifier": [ {
        "use": "official",
        "system": "urn:oid:1.3.6.1.4.1.22812.3.99930.3.4.1.2.1",
        "value": "55412"
      } ],
      "clinicalStatus": {
        "coding": [ {
          "system": "http://terminology.hl7.org/CodeSystem/condition-clinical",
          "code": "active",
          "display": "Active"
        } ]
      },
      "verificationStatus": {
        "coding": [ {
          "system": "http://terminology.hl7.org/CodeSystem/condition-ver-status",
          "code": "confirmed",
          "display": "Confirmed"
        } ]
      },
      "category": [ {
        "coding": [ {
          "system": "http://terminology.hl7.org/CodeSystem/condition-category",
          "code": "problem-list-item",
          "display": "Problem List Item"
        } ]
      } ],
      "code": {
        "coding": [ {
          "system": "http://snomed.info/sct",
          "code": "203523006",
          "display": "Costochondritis"
        } ],
        "text": "Costochondritis"
      },
      "subject": {
        "reference": "Patient/c2ae6494-e1c7-4ec8-b83f-bacd7dbc3381",
        "display": "Myra Jones"
      },
      "onsetDateTime": "2012-08-15T10:00:51+02:00"
    }
  }, {
    "resource": {
      "resourceType": "Location",
      "id": "775da3cd-b7c8-4791-be1f-8a336a08603f",
      "name": "Get Well Clinic"
    }
  }, {
    "resource": {
      "resourceType": "AllergyIntolerance",
      "id": "a0b84d97-4ab4-45de-b42e-ad361f2eac88",
      "identifier": [ {
        "use": "official",
        "system": "urn:oid:1.3.6.1.4.1.22812.3.99930.3.4.10",
        "value": "613618700107"
      }, {
        "use": "official",
        "system": "urn:oid:1.3.6.1.4.1.22812.3.99930.3.4.10",
        "value": "613618700109"
      } ],
      "clinicalStatus": {
        "coding": [ {
          "system": "http://terminology.hl7.org/CodeSystem/allergyintolerance-clinical",
          "code": "active",
          "display": "Active"
        } ]
      },
      "verificationStatus": {
        "coding": [ {
          "system": "http://terminology.hl7.org/CodeSystem/allergyintolerance-verification",
          "code": "confirmed",
          "display": "Confirmed"
        } ]
      },
      "type": "allergy",
      "category": [ "medication" ],
      "code": {
        "coding": [ {
          "system": "http://www.nlm.nih.gov/research/umls/rxnorm",
          "code": "1191",
          "display": "Aspirin"
        } ],
        "text": "Aspirin"
      },
      "patient": {
        "reference": "Patient/c2ae6494-e1c7-4ec8-b83f-bacd7dbc3381",
        "display": "Myra Jones"
      },
      "recorder": {
        "reference": "Practitioner/dc0c892f-fb4c-4ccd-a0dd-6a724f644cc5"
      },
      "reaction": [ {
        "manifestation": [ {
          "coding": [ {
            "system": "http://snomed.info/sct",
            "code": "247472004",
            "display": "Hives"
          } ],
          "text": "Hives"
        } ]
      } ]
    }
  }, {
    "resource": {
      "resourceType": "Practitioner",
      "id": "dc0c892f-fb4c-4ccd-a0dd-6a724f644cc5"
    }
  }, {
    "resource": {
      "resourceType": "AllergyIntolerance",
      "id": "7a5fdf6f-0b32-46a0-bfb8-d83b41bf10a5",
      "identifier": [ {
        "use": "official",
        "system": "urn:oid:1.3.6.1.4.1.22812.3.99930.3.4.10",
        "value": "624373800001"
      }, {
        "use": "official",
        "system": "urn:oid:1.3.6.1.4.1.22812.3.99930.3.4.10",
        "value": "637073500005"
      } ],
      "clinicalStatus": {
        "coding": [ {
          "system": "http://terminology.hl7.org/CodeSystem/allergyintolerance-clinical",
          "code": "active",
          "display": "Active"
        } ]
      },
      "verificationStatus": {
        "coding": [ {
          "system": "http://terminology.hl7.org/CodeSystem/allergyintolerance-verification",
          "code": "confirmed",
          "display": "Confirmed"
        } ]
      },
      "type": "allergy",
      "category": [ "medication" ],
      "code": {
        "text": "Bactrim"
      },
      "patient": {
        "reference": "Patient/c2ae6494-e1c7-4ec8-b83f-bacd7dbc3381",
        "display": "Myra Jones"
      },
      "recorder": {
        "reference": "Practitioner/7259336f-1d5f-4e17-bbe0-bfe52c0c38ed"
      },
      "reaction": [ {
        "manifestation": [ {
          "coding": [ {
            "system": "http://snomed.info/sct",
            "code": "112625008",
            "display": "Rash"
          } ],
          "text": "Rash"
        } ]
      } ]
    }
  }, {
    "resource": {
      "resourceType": "Practitioner",
      "id": "7259336f-1d5f-4e17-bbe0-bfe52c0c38ed"
    }
  }, {
    "resource": {
      "resourceType": "Immunization",
      "id": "a101e79a-5f9b-4208-8bec-e55694f073ad",
      "identifier": [ {
        "use": "official",
        "system": "urn:oid:1.3.6.1.4.1.22812.3.99930.3.4.4",
        "value": "637382500009"
      }, {
        "use": "official",
        "system": "urn:oid:1.3.6.1.4.1.22812.3.99930.3.4.4",
        "value": "637382500011"
      } ],
      "status": "completed",
      "vaccineCode": {
        "coding": [ {
          "system": "http://www2a.cdc.gov/vaccines/iis/iisstandards/vaccines.asp?rpt=cvx",
          "code": "88",
          "display": "Influenza virus vaccine"
        } ],
        "text": "Influenza virus vaccine"
      },
      "patient": {
        "reference": "Patient/c2ae6494-e1c7-4ec8-b83f-bacd7dbc3381",
        "display": "Myra Jones"
      },
      "occurrenceDateTime": "2012-08-15",
      "primarySource": true,
      "site": {
        "coding": [ {
          "system": "http://snomed.info/sct",
          "code": "368208006",
          "display": "Left Arm"
        } ]
      },
      "route": {
        "coding": [ {
          "system": "http://www.nlm.nih.gov/research/umls/nci",
          "code": "C28161",
          "display": "INTRAMUSCULAR"
        } ]
      },
      "performer": [ {
        "function": {
          "coding": [ {
            "system": "http://hl7.org/fhir/v2/0443",
            "code": "AP",
            "display": "Administering Provider"
          } ]
        },
        "actor": {
          "reference": "Practitioner/938a07a5-937a-4a36-a162-756e0384a839",
          "display": "Nancy Nightingale RN"
        }
      } ]
    }
  } ]
}