{
  "resourceType": "Bundle",
  "entry": [ {
    "resource": {
      "resourceType": "Composition",
      "id": "b8845572-5c2a-4fa6-a543-7873a145af41",
      "identifier": {
        "use": "official",
        "system": "urn:oid:1.3.6.1.4.1.22812.3.99930.3.1",
        "value": "66670992"
      },
      "status": "preliminary",
      "type": {
        "coding": [ {
          "system": "http://loinc.org",
          "code": "34133-9",
          "display": "SUMMARIZATION OF EPISODE NOTE"
        } ]
      },
      "category": [ {
        "coding": [ {
          "system": "http://hl7.org/fhir/ValueSet/doc-classcodes",
          "code": "LP173421-7",
          "display": "Note"
        } ]
      } ],
      "subject": {
        "reference": "Patient/be67f068-481f-40a8-a3dc-20f52e7233e9",
        "display": "Eve Everywoman"
      },
      "date": "2011-07-14T09:00:51-04:00",
      "author": [ {
        "reference": "Practitioner/b601651a-561d-400e-a108-694038d561e9",
        "display": "Dr Stanley Stage"
      }, {
        "reference": "Device/1dbb5322-abd7-4742-b654-3175752c85c2"
      } ],
      "title": "Continuity of Care Document",
      "confidentiality": "V",
      "attester": [ {
        "mode": "legal",
        "time": "2011-07-14T09:00:51-04:00",
        "party": {
          "reference": "Practitioner/b601651a-561d-400e-a108-694038d561e9",
          "display": "Dr Stanley Stage"
        }
      }, {
        "mode": "professional",
        "time": "2011-07-14T09:00:51-04:00",
        "party": {
          "reference": "Practitioner/b601651a-561d-400e-a108-694038d561e9",
          "display": "Dr Stanley Stage"
        }
      } ],
      "custodian": {
        "reference": "Organization/00e9ddef-7537-4962-9f93-5fb5ada567a1",
        "display": "Community General Hospital"
      },
      "event": [ {
        "period": {
          "start": "2013-01-30T09:00:51+01:00",
          "end": "2011-07-14T09:00:51-04:00"
        },
        "detail": [ {
          "reference": "Practitioner/b601651a-561d-400e-a108-694038d561e9",
          "display": "Dr Stanley Stage"
        } ]
      } ],
      "section": [ {
        "title": "Functional Status",
        "code": {
          "coding": [ {
            "system": "http://loinc.org",
            "code": "47420-5",
            "display": "Functional Status"
          } ]
        },
        "text": {
          "status": "additional",
          "div": "<div xmlns=\"http://www.w3.org/1999/xhtml\"><ul><caption>Functional Status Health Issues</caption><li><table><thead><tr><th>Name</th><th>Dates</th><th>Details</th></tr></thead><tbody><tr><td><span><span>Dependence on Walking Stick</span></span><span><span/></span><span><br/></span></td><td><span><span>Onset<span>:</span></span><span>30-Jan-2013</span></span></td><td><span><span><span>Status: </span><span>Active</span></span></span></td></tr></tbody></table></li></ul><ul><caption>Cognitive Status Health Issues</caption><li><table><thead><tr><th>Name</th><th>Dates</th><th>Details</th></tr></thead><tbody><tr><td><span><span>Memory Impairment</span></span><span><span/></span><span><br/></span></td><td><span><span>Onset<span>:</span></span><span>30-Jan-2013</span></span></td><td><span><span><span>Status: </span><span>Active</span></span></span></td></tr></tbody></table></li></ul></div>"
        },
        "mode": "snapshot"
      }, {
        "title": "Encounters",
        "code": {
          "coding": [ {
            "system": "http://loinc.org",
            "code": "46240-8",
            "display": "Encounters"
          } ]
        },
        "text": {
          "status": "additional",
          "div": "<div xmlns=\"http://www.w3.org/1999/xhtml\"><table><tbody><tr><td><span><span>Admission</span></span><span><br/></span><span><span>Encounter Diagnosis: </span><span>Asthma</span></span><span><span><span>Active</span></span></span><span><span>Local Community Hospital</span></span><span><br/></span><span><br/></span><span><span> Stage</span>, Stanley Dr </span></td><td><span><span>On </span><span>30-Jan-2013</span></span><span><br/></span><span><span>09:00</span></span></td></tr><tr><td><span><span>Admission</span></span><span><br/></span><span><span>Encounter Diagnosis: </span><span>Pneumonia</span></span><span><span><span>Active</span></span></span><span><span>Community General Hospital</span></span><span><br/></span><span><br/></span><span><span> Stage</span>, Stanley Dr </span></td><td><span><span>1-Nov-2011</span><span> to </span><span>14-Nov-2011</span></span></td></tr><tr><td><span><span>Admission</span></span><span><br/></span><span><span>Encounter Diagnosis: </span><span>Alzheimer disease</span></span><span><span><span>Active</span></span></span><span><span>Local Community Hospital</span></span><span><br/></span><span><br/></span><span><span> Stage</span>, Stanley Dr </span></td><td><span><span>On </span><span>12-Mar-2011</span></span><span><br/></span><span><span>09:00</span></span></td></tr></tbody></table></div>"
        },
        "mode": "snapshot",
        "entry": [ {
          "reference": "Encounter/2c63d187-0e80-4ce6-9e10-c3e904ba2547",
          "display": "Admission"
        }, {
          "reference": "Encounter/04c59154-9683-4127-a81e-0366ce9e35f3",
          "display": "Admission"
        }, {
          "reference": "Encounter/aeb92ae1-7f36-43fe-84da-6227ef26b20f",
          "display": "Admission"
        } ]
      }, {
        "title": "Plan of Care",
        "code": {
          "coding": [ {
            "system": "http://loinc.org",
            "code": "18776-5",
            "display": "Plan of Care"
          } ]
        },
        "text": {
          "status": "additional",
          "div": "<div xmlns=\"http://www.w3.org/1999/xhtml\"><ul><caption>Planned Observations</caption><li><table><thead><tr><th>Name</th><th>Dates</th><th>Details</th></tr></thead><tbody><tr><td><span><span><span>Goal: Increase caloric intake</span></span></span></td><td><span><span>On </span><span>1-Nov-2011</span></span><span><br/></span><span><span/></span></td><td><span><span>Goal</span></span></td></tr></tbody></table></li></ul><ul><caption>Planned Encounters</caption><li><table><tbody><tr><td><span><span>Clinical Follow Up</span></span><span><br/></span></td><td><span><span>On </span><span>5-May-2013</span></span><span><br/></span><span><span>00:00</span></span></td></tr></tbody></table></li></ul><ul><caption>Planned Procedures</caption><li><table><thead><tr><th>Name</th><th>Dates</th><th>Details</th></tr></thead><tbody><tr><td><span><span><span>Chest X-Ray, PA and Lateral Views</span></span></span><span><span>By: </span><span><span> Stage</span>, Stanley Dr </span></span></td><td><span>On </span><span>30-Jan-2013</span></td><td><span><span>Request</span></span><span>Site: </span><span>Lower Respiratory Tract Structure</span></td></tr></tbody></table></li></ul></div>"
        },
        "mode": "snapshot",
        "entry": [ {
          "reference": "CarePlan/bffb9b6e-0e3f-4ab5-9bab-b5e442cd8dd7"
        } ]
      }, {
        "title": "Allergies and Adverse Reactions",
        "code": {
          "coding": [ {
            "system": "http://loinc.org",
            "code": "48765-2",
            "display": "Allergies, adverse reactions, alerts"
          } ]
        },
        "text": {
          "status": "additional",
          "div": "<div xmlns=\"http://www.w3.org/1999/xhtml\"><table><thead><tr><th>Name</th><th>Dates</th><th>Details</th></tr></thead><tbody><tr><td><span><span>Penicillin G benzathine</span></span></td><td><span><span><span>Onset<span>:</span></span><span>10-Jan-1998</span></span></span></td><td><span><span><span>Reaction: </span><span>Hives</span></span></span><span><br/></span><span><span>Status: </span><span>Active</span></span></td></tr><tr><td><span><span>Codeine</span></span></td><td><span><span><span>Onset<span>:</span></span><span>10-Jan-2001</span></span></span></td><td><span><span><span>Reaction: </span><span>Anaphylaxis</span></span></span><span><br/></span><span><span>Status: </span><span>Active</span></span></td></tr><tr><td><span><span>Aspirin</span></span></td><td><span><span><span>Onset<span>:</span></span><span>10-Jan-2011</span></span></span></td><td><span><span><span>Reaction: </span><span>Swelling</span></span></span><span><br/></span><span><span>Status: </span><span>Active</span></span></td></tr></tbody></table></div>"
        },
        "mode": "snapshot",
        "entry": [ {
          "reference": "AllergyIntolerance/584ff108-e859-41cc-b443-2f5746bef2af",
          "display": "Penicillin G benzathine"
        }, {
          "reference": "AllergyIntolerance/7c488520-9e87-4613-8eb6-1569f46c633d",
          "display": "Aspirin"
        }, {
          "reference": "AllergyIntolerance/1a556db3-73ae-4cf3-bf73-83017dc14fdb",
          "display": "Codeine"
        } ]
      }, {
        "title": "Medications",
        "code": {
          "coding": [ {
            "system": "http://loinc.org",
            "code": "10160-0",
            "display": "History of medication use"
          } ]
        },
        "text": {
          "status": "additional",
          "div": "<div xmlns=\"http://www.w3.org/1999/xhtml\"><table><thead><tr><th>Name</th><th>Dates</th><th>Details</th></tr></thead><tbody><tr><td><span><span>Clarithromycin 250 MG Oral Tablet</span></span><span><br/></span><span><span><span>TAKE 1 TABLET TWICE DAILY AS DIRECTED.</span></span></span><span><br/></span><span><span><span>Take twice daily for 7 days</span></span></span></td><td/><td><ul><li><table><tbody><tr><td><span> Started </span>2-Oct-2011</td><td><span> Ended </span>9-Oct-2011</td></tr></tbody></table></li></ul><span><span/><span>Inactive</span></span><span><span>Generic substitution allowed</span></span><span><br/></span></td></tr><tr><td><span><span>Albuterol 0.09 MG/ ACTUAT metered dose</span></span><span><br/></span><span><span><span>Take 2 puffs once</span></span></span><span><br/></span><span><span><span>2 puffs once</span></span></span></td><td><span><br/></span><span><span> Stage</span>, Stanley Dr </span></td><td><ul><li><table><tbody><tr><td><span> Started </span>30-Jan-2013</td></tr></tbody></table></li></ul><span><span/><span>Active</span></span><span><span> Indication : </span><span>Hypertension</span></span><span><br/></span></td></tr><tr><td><span><span>Metformin 850 MG Oral Tablet</span></span><span><br/></span><span><span><span>TAKE 1 TABLET 2 times daily As Directed</span></span></span><span><br/></span><span><span/></span></td><td/><td><ul><li><table><tbody><tr><td><span> Started </span>10-Mar-2011</td></tr></tbody></table></li></ul><span><span/><span>Active</span></span><span><span>Generic substitution allowed</span></span><span><br/></span></td></tr></tbody></table></div>"
        },
        "mode": "snapshot"
      }, {
        "title": "Results",
        "code": {
          "coding": [ {
            "system": "http://loinc.org",
            "code": "30954-2",
            "display": "Relevant diagnostic tests and/or laboratory data"
          } ]
        },
        "text": {
          "status": "additional",
          "div": "<div xmlns=\"http://www.w3.org/1999/xhtml\"><table><thead><tr><th>Date</th><th>Description</th><th>Value</th><th>Details</th></tr></thead><tbody><tr><td><span>Resulted on:</span><span><br/></span><span>30-Jan-2013 09:33</span></td><td colspan=\"2\"><span>CBC</span></td><td/><td/></tr><tr><td/><td><span>HGB</span></td><td><span>14.5  g/dl</span></td><td/></tr><tr><td/><td><span>HCT</span></td><td><span>50  %</span></td><td/></tr><tr><td/><td><span>WBC</span></td><td><span>5.2  10^3/ul</span></td><td/></tr><tr><td/><td><span>PLT</span></td><td><span>388  10^3/ul</span></td><td/></tr></tbody></table></div>"
        },
        "mode": "snapshot",
        "entry": [ {
          "reference": "DiagnosticReport/2e40db41-0cc9-4921-b736-fb2cdac35bbf",
          "display": "CBC"
        } ]
      }, {
        "title": "Immunization",
        "code": {
          "coding": [ {
            "system": "http://loinc.org",
            "code": "11369-6",
            "display": "Immunizations"
          } ]
        },
        "text": {
          "status": "additional",
          "div": "<div xmlns=\"http://www.w3.org/1999/xhtml\"><table><thead><tr><th>Name</th><th>Dates</th><th>Details</th></tr></thead><tbody><tr><td><span><span>Influenza virus vaccine</span></span><span><br/></span></td><td><span><span>Administered on<span>:</span></span><span>1-Nov-2005</span></span></td><td><span><span> Site: </span><span><span>Left Arm</span></span></span><span><br/></span></td></tr></tbody></table></div>"
        },
        "mode": "snapshot",
        "entry": [ {
          "reference": "Immunization/b0793ba4-ae63-4dd6-98cd-72773db7b27e",
          "display": "Influenza virus vaccine"
        } ]
      }, {
        "title": "Procedures",
        "code": {
          "coding": [ {
            "system": "http://loinc.org",
            "code": "47519-4",
            "display": "History of Procedures"
          } ]
        },
        "text": {
          "status": "additional",
          "div": "<div xmlns=\"http://www.w3.org/1999/xhtml\"><table><thead><tr><th>Date</th><th>Description</th><th>Value</th><th>Details</th></tr></thead><tbody><tr><td><span><span>Resulted on:</span></span><span><br/></span><span>2-Oct-2012</span></td><td><span>Abdominal ultrasound</span></td><td><span>Organs examined appear normal. No abscess noted.</span></td><td><span><span>Completed</span></span><span><br/></span><span>Site: </span><span><span>113345001</span></span></td></tr></tbody></table></div>"
        },
        "mode": "snapshot",
        "entry": [ {
          "reference": "Observation/1dc8ca49-af11-481f-8293-4b3e0d8b2809",
          "display": "Abdominal ultrasound"
        } ]
      }, {
        "title": "Problems",
        "code": {
          "coding": [ {
            "system": "http://loinc.org",
            "code": "11450-4",
            "display": "Problem List"
          } ]
        },
        "text": {
          "status": "additional",
          "div": "<div xmlns=\"http://www.w3.org/1999/xhtml\"><table><thead><tr><th>Name</th><th>Dates</th><th>Details</th></tr></thead><tbody><tr><td><span><span>Asthma</span></span><span><span/></span><span><br/></span></td><td><span><span>Onset<span>:</span></span><span>30-Jan-2013</span></span></td><td><span><span><span>Status: </span><span>Active</span></span></span></td></tr><tr><td><span><span>Alzheimer disease</span></span><span><span/></span><span><br/></span></td><td><span><span>Onset<span>:</span></span><span>12-Mar-2012</span></span></td><td><span><span><span>Status: </span><span>Active</span></span></span></td></tr><tr><td><span><span>Type II Diabetes</span></span><span><span/></span><span><br/></span></td><td><span><span>Onset<span>:</span></span><span>10-Mar-2011</span></span></td><td><span><span><span>Status: </span><span>Active</span></span></span></td></tr></tbody></table></div>"
        },
        "mode": "snapshot",
        "entry": [ {
          "reference": "Condition/de751edd-eaa8-4c4a-8140-4cca5ebd470f",
          "display": "Type II Diabetes"
        }, {
          "reference": "Condition/8a3d255a-4d59-41ac-9c53-7624ac88554b",
          "display": "Alzheimer disease"
        }, {
          "reference": "Condition/783b0e3c-f9a8-4e49-a6bc-426163bd9d23",
          "display": "Asthma"
        } ]
      }, {
        "title": "Social History",
        "code": {
          "coding": [ {
            "system": "http://loinc.org",
            "code": "29762-2",
            "display": "Social History"
          } ]
        },
        "text": {
          "status": "additional",
          "div": "<div xmlns=\"http://www.w3.org/1999/xhtml\"><ul><caption>Smoking Status</caption><li><span>Unknown if ever smoked</span></li></ul></div>"
        },
        "mode": "snapshot",
        "entry": [ {
          "reference": "Observation/1daf822c-8318-4146-86b4-3f64cd4b8e0b",
          "display": "Assertion"
        } ]
      } ]
    }
  }, {
    "resource": {
      "resourceType": "Patient",
      "id": "be67f068-481f-40a8-a3dc-20f52e7233e9",
      "extension": [ {
        "url": "http://hl7.org/fhir/us/core/StructureDefinition/us-core-race",
        "extension": [ {
          "url": "text",
          "valueString": "Black or African American"
        }, {
          "url": "ombCategory",
          "valueCoding": {
            "system": "urn:oid:2.16.840.1.113883.6.238",
            "code": "2054-5",
            "display": "Black or African American"
          }
        } ]
      }, {
        "url": "http://hl7.org/fhir/us/core/StructureDefinition/us-core-ethnicity",
        "extension": [ {
          "url": "text",
          "valueString": "Not Hispanic or Latino"
        }, {
          "url": "ombCategory",
          "valueCoding": {
            "system": "urn:oid:2.16.840.1.113883.6.238",
            "code": "2186-5",
            "display": "Not Hispanic or Latino"
          }
        } ]
      } ],
      "identifier": [ {
        "use": "official",
        "system": "urn:oid:1.3.6.1.4.1.22812.3.99930.3",
        "value": "110107073916282"
      } ],
      "name": [ {
        "family": "Everywoman",
        "given": [ "Eve" ]
      } ],
      "telecom": [ {
        "system": "phone",
        "value": "+1-(555)555-3333",
        "use": "home"
      } ],
      "gender": "female",
      "birthDate": "1942-06-21",
      "address": [ {
        "use": "home",
        "line": [ "1234 Six Forks" ],
        "city": "Portland",
        "state": "OR",
        "postalCode": "97005",
        "country": "US"
      } ],
      "communication": [ {
        "language": {
          "coding": [ {
            "system": "urn:ietf:bcp:47",
            "code": "eng"
          } ]
        },
        "preferred": true
      } ],
      "managingOrganization": {
        "reference": "Organization/00e9ddef-7537-4962-9f93-5fb5ada567a1",
        "display": "Community General Hospital"
      }
    }
  }, {
    "resource": {
      "resourceType": "Organization",
      "id": "00e9ddef-7537-4962-9f93-5fb5ada567a1",
      "identifier": [ {
        "use": "official",
        "system": "urn:oid:1.3.6.1.4.1.22812.3.99930.3",
        "value": "3"
      } ],
      "name": "Community General Hospital",
      "telecom": [ {
        "system": "phone",
        "value": "+1-(555)555-1034"
      } ],
      "address": [ {
        "line": [ "Local Community Hospital", "1034 Healthcare Dr." ],
        "city": "Portland",
        "state": "OR",
        "postalCode": "97005",
        "country": "US"
      } ]
    }
  }, {
    "resource": {
      "resourceType": "Practitioner",
      "id": "b601651a-561d-400e-a108-694038d561e9",
      "identifier": [ {
        "use": "official",
        "system": "urn:oid:2.16.840.1.113883.4.6",
        "value": "1111111111"
      }, {
        "use": "official",
        "system": "urn:oid:1.3.6.1.4.1.22812.3.99930.3",
        "value": "91138"
      } ],
      "name": [ {
        "family": "Stage",
        "given": [ "Stanley" ],
        "prefix": [ "Dr" ]
      } ],
      "telecom": [ {
        "system": "phone",
        "value": "+1-(555)555-1034"
      } ],
      "address": [ {
        "line": [ "Local Community Hospital", "1034 Healthcare Dr." ],
        "city": "Portland",
        "state": "OR",
        "postalCode": "97005",
        "country": "US"
      } ]
    }
  }, {
    "resource": {
      "resourceType": "Device",
      "id": "1dbb5322-abd7-4742-b654-3175752c85c2",
      "identifier": [ {
        "use": "official",
        "system": "urn:oid:1.3.6.1.4.1.22812.3.99930.3.3.3",
        "value": "3"
      } ],
      "manufacturer": "Sunrise Clinical Systems 11.200.4210.17305",
      "type": {
        "coding": [ {
          "display": "Sunrise Clinical Systems 11.200.4210.17305"
        } ]
      },
      "version": [ {
        "value": "Sunrise Clinical Systems 11.200.4210.17305; Transform 4.1.1.18"
      } ],
      "owner": {
        "reference": "Organization/00e9ddef-7537-4962-9f93-5fb5ada567a1"
      }
    }
  }, {
    "resource": {
      "resourceType": "Encounter",
      "id": "2c63d187-0e80-4ce6-9e10-c3e904ba2547",
      "identifier": [ {
        "use": "official",
        "system": "urn:oid:1.3.6.1.4.1.22812.3.99930.3.3.4",
        "value": "5283815"
      } ],
      "status": "finished",
      "type": [ {
        "coding": [ {
          "system": "http://www.ama-assn.org/go/cpt",
          "code": "99231",
          "display": "UNK"
        } ],
        "text": "Admission"
      } ],
      "subject": {
        "reference": "Patient/be67f068-481f-40a8-a3dc-20f52e7233e9",
        "display": "Eve Everywoman"
      },
      "participant": [ {
        "type": [ {
          "coding": [ {
            "system": "http://terminology.hl7.org/CodeSystem/v3-ParticipationType",
            "code": "PART",
            "display": "Participation"
          } ]
        } ],
        "period": {
          "start": "2013-01-30T09:00:51+01:00"
        },
        "individual": {
          "reference": "Practitioner/b601651a-561d-400e-a108-694038d561e9",
          "display": "Dr Stanley Stage"
        }
      } ],
      "period": {
        "start": "2013-01-30T09:00:51+01:00"
      },
      "diagnosis": [ {
        "condition": {
          "reference": "Condition/318cd918-6244-4dff-8748-6dbb6ca2c3af",
          "display": "Asthma"
        }
      } ],
      "location": [ {
        "location": {
          "reference": "Location/caec8f10-a128-404f-a63a-909e13c1675c",
          "display": "Local Community Hospital"
        }
      } ]
    }
  }, {
    "resource": {
      "resourceType": "Condition",
      "id": "318cd918-6244-4dff-8748-6dbb6ca2c3af",
      "identifier": [ {
        "use": "official",
        "system": "urn:oid:1.3.6.1.4.1.22812.3.99930.3.4.1.2.1",
        "value": "55412"
      } ],
      "clinicalStatus": {
        "coding": [ {
          "system": "http://terminology.hl7.org/CodeSystem/condition-clinical",
          "code": "active",
          "display": "Active"
        } ]
      },
      "verificationStatus": {
        "coding": [ {
          "system": "http://terminology.hl7.org/CodeSystem/condition-ver-status",
          "code": "confirmed",
          "display": "Confirmed"
        } ]
      },
      "category": [ {
        "coding": [ {
          "system": "http://terminology.hl7.org/CodeSystem/condition-category",
          "code": "problem-list-item",
          "display": "Problem List Item"
        } ]
      } ],
      "code": {
        "coding": [ {
          "system": "http://snomed.info/sct",
          "code": "195967001",
          "display": "Asthma"
        } ],
        "text": "Asthma"
      },
      "subject": {
        "reference": "Patient/be67f068-481f-40a8-a3dc-20f52e7233e9",
        "display": "Eve Everywoman"
      },
      "onsetDateTime": "2013-01-30T10:00:51+01:00"
    }
  }, {
    "resource": {
      "resourceType": "Location",
      "id": "caec8f10-a128-404f-a63a-909e13c1675c",
      "name": "Local Community Hospital"
    }
  }, {
    "resource": {
      "resourceType": "Encounter",
      "id": "04c59154-9683-4127-a81e-0366ce9e35f3",
      "identifier": [ {
        "use": "official",
        "system": "urn:oid:1.3.6.1.4.1.22812.3.99930.3.3.4",
        "value": "52838152"
      } ],
      "status": "finished",
      "type": [ {
        "coding": [ {
          "system": "http://www.ama-assn.org/go/cpt",
          "code": "99231",
          "display": "UNK"
        } ],
        "text": "Admission"
      } ],
      "subject": {
        "reference": "Patient/be67f068-481f-40a8-a3dc-20f52e7233e9",
        "display": "Eve Everywoman"
      },
      "participant": [ {
        "type": [ {
          "coding": [ {
            "system": "http://terminology.hl7.org/CodeSystem/v3-ParticipationType",
            "code": "PART",
            "display": "Participation"
          } ]
        } ],
        "period": {
          "start": "2011-03-12T09:00:51+01:00"
        },
        "individual": {
          "reference": "Practitioner/b601651a-561d-400e-a108-694038d561e9",
          "display": "Dr Stanley Stage"
        }
      } ],
      "period": {
        "start": "2011-03-12T09:00:51+01:00"
      },
      "diagnosis": [ {
        "condition": {
          "reference": "Condition/43f19827-b246-437a-9ba3-bbff61edff8c",
          "display": "Alzheimer disease"
        }
      } ],
      "location": [ {
        "location": {
          "reference": "Location/b145ea6f-3348-4e56-8eea-a023bf3d654d",
          "display": "Local Community Hospital"
        }
      } ]
    }
  }, {
    "resource": {
      "resourceType": "Condition",
      "id": "43f19827-b246-437a-9ba3-bbff61edff8c",
      "identifier": [ {
        "use": "official",
        "system": "urn:oid:1.3.6.1.4.1.22812.3.99930.3.4.1.2.1",
        "value": "554122"
      } ],
      "clinicalStatus": {
        "coding": [ {
          "system": "http://terminology.hl7.org/CodeSystem/condition-clinical",
          "code": "active",
          "display": "Active"
        } ]
      },
      "verificationStatus": {
        "coding": [ {
          "system": "http://terminology.hl7.org/CodeSystem/condition-ver-status",
          "code": "confirmed",
          "display": "Confirmed"
        } ]
      },
      "category": [ {
        "coding": [ {
          "system": "http://terminology.hl7.org/CodeSystem/condition-category",
          "code": "problem-list-item",
          "display": "Problem List Item"
        } ]
      } ],
      "code": {
        "coding": [ {
          "system": "http://snomed.info/sct",
          "code": "26929004",
          "display": "Alzheimer disease"
        } ],
        "text": "Alzheimer disease"
      },
      "subject": {
        "reference": "Patient/be67f068-481f-40a8-a3dc-20f52e7233e9",
        "display": "Eve Everywoman"
      },
      "onsetDateTime": "2011-03-12T09:00:51+01:00"
    }
  }, {
    "resource": {
      "resourceType": "Location",
      "id": "b145ea6f-3348-4e56-8eea-a023bf3d654d",
      "name": "Local Community Hospital"
    }
  }, {
    "resource": {
      "resourceType": "Encounter",
      "id": "aeb92ae1-7f36-43fe-84da-6227ef26b20f",
      "identifier": [ {
        "use": "official",
        "system": "urn:oid:1.3.6.1.4.1.22812.3.99930.3.3.4",
        "value": "52838151"
      } ],
      "status": "finished",
      "type": [ {
        "coding": [ {
          "system": "http://www.ama-assn.org/go/cpt",
          "code": "99231",
          "display": "UNK"
        } ],
        "text": "Admission"
      } ],
      "subject": {
        "reference": "Patient/be67f068-481f-40a8-a3dc-20f52e7233e9",
        "display": "Eve Everywoman"
      },
      "participant": [ {
        "type": [ {
          "coding": [ {
            "system": "http://terminology.hl7.org/CodeSystem/v3-ParticipationType",
            "code": "PART",
            "display": "Participation"
          } ]
        } ],
        "period": {
          "start": "2011-11-01T09:00:51+01:00",
          "end": "2011-11-14T10:00:51+01:00"
        },
        "individual": {
          "reference": "Practitioner/b601651a-561d-400e-a108-694038d561e9",
          "display": "Dr Stanley Stage"
        }
      } ],
      "period": {
        "start": "2011-11-01T09:00:51+01:00",
        "end": "2011-11-14T10:00:51+01:00"
      },
      "diagnosis": [ {
        "condition": {
          "reference": "Condition/3c3cc768-1946-48d9-9c45-ff00eeff3d28",
          "display": "Pneumonia"
        }
      } ],
      "location": [ {
        "location": {
          "reference": "Location/0e8dfae9-a94d-42a3-8009-23cf3e8edb4b",
          "display": "Community General Hospital"
        }
      } ]
    }
  }, {
    "resource": {
      "resourceType": "Condition",
      "id": "3c3cc768-1946-48d9-9c45-ff00eeff3d28",
      "identifier": [ {
        "use": "official",
        "system": "urn:oid:1.3.6.1.4.1.22812.3.99930.3.4.1.2.1",
        "value": "5541"
      } ],
      "clinicalStatus": {
        "coding": [ {
          "system": "http://terminology.hl7.org/CodeSystem/condition-clinical",
          "code": "active",
          "display": "Active"
        } ]
      },
      "verificationStatus": {
        "coding": [ {
          "system": "http://terminology.hl7.org/CodeSystem/condition-ver-status",
          "code": "confirmed",
          "display": "Confirmed"
        } ]
      },
      "category": [ {
        "coding": [ {
          "system": "http://terminology.hl7.org/CodeSystem/condition-category",
          "code": "problem-list-item",
          "display": "Problem List Item"
        } ]
      } ],
      "code": {
        "coding": [ {
          "system": "http://snomed.info/sct",
          "code": "233604007",
          "display": "Pneumonia"
        } ],
        "text": "Pneumonia"
      },
      "subject": {
        "reference": "Patient/be67f068-481f-40a8-a3dc-20f52e7233e9",
        "display": "Eve Everywoman"
      },
      "onsetDateTime": "2011-10-02T10:00:51+02:00"
    }
  }, {
    "resource": {
      "resourceType": "Location",
      "id": "0e8dfae9-a94d-42a3-8009-23cf3e8edb4b",
      "name": "Community General Hospital"
    }
  }, {
    "resource": {
      "resourceType": "CarePlan",
      "id": "bffb9b6e-0e3f-4ab5-9bab-b5e442cd8dd7",
      "text": {
        "status": "additional",
        "div": "<div xmlns=\"http://www.w3.org/1999/xhtml\"><ul><caption>Planned Observations</caption><li><table><thead><tr><th>Name</th><th>Dates</th><th>Details</th></tr></thead><tbody><tr><td><span><span><span>Goal: Increase caloric intake</span></span></span></td><td><span><span>On </span><span>1-Nov-2011</span></span><span><br/></span><span><span/></span></td><td><span><span>Goal</span></span></td></tr></tbody></table></li></ul><ul><caption>Planned Encounters</caption><li><table><tbody><tr><td><span><span>Clinical Follow Up</span></span><span><br/></span></td><td><span><span>On </span><span>5-May-2013</span></span><span><br/></span><span><span>00:00</span></span></td></tr></tbody></table></li></ul><ul><caption>Planned Procedures</caption><li><table><thead><tr><th>Name</th><th>Dates</th><th>Details</th></tr></thead><tbody><tr><td><span><span><span>Chest X-Ray, PA and Lateral Views</span></span></span><span><span>By: </span><span><span> Stage</span>, Stanley Dr </span></span></td><td><span>On </span><span>30-Jan-2013</span></td><td><span><span>Request</span></span><span>Site: </span><span>Lower Respiratory Tract Structure</span></td></tr></tbody></table></li></ul></div>"
      },
      "status": "active",
      "intent": "plan",
      "category": [ {
        "coding": [ {
          "system": "http://hl7.org/fhir/us/core/CodeSystem/careplan-category",
          "code": "assess-plan"
        } ]
      } ],
      "title": "Plan of Care",
      "description": "<div><ul><caption>Planned Observations</caption><li><table><thead><tr><th>Name</th><th>Dates</th><th>Details</th></tr></thead><tbody><tr><td><span><span><span>Goal: Increase caloric intake</span></span></span></td><td><span><span>On </span><span>1-Nov-2011</span></span><span><br></br></span><span><span></span></span></td><td><span><span>Goal</span></span></td></tr></tbody></table></li></ul><ul><caption>Planned Encounters</caption><li><table><tbody><tr><td><span><span>Clinical Follow Up</span></span><span><br></br></span></td><td><span><span>On </span><span>5-May-2013</span></span><span><br></br></span><span><span>00:00</span></span></td></tr></tbody></table></li></ul><ul><caption>Planned Procedures</caption><li><table><thead><tr><th>Name</th><th>Dates</th><th>Details</th></tr></thead><tbody><tr><td><span><span><span>Chest X-Ray, PA and Lateral Views</span></span></span><span><span>By: </span><span><span> Stage</span>, Stanley Dr </span></span></td><td><span>On </span><span>30-Jan-2013</span></td><td><span><span>Request</span></span><span>Site: </span><span>Lower Respiratory Tract Structure</span></td></tr></tbody></table></li></ul></div>",
      "subject": {
        "reference": "Patient/be67f068-481f-40a8-a3dc-20f52e7233e9",
        "display": "Eve Everywoman"
      }
    }
  }, {
    "resource": {
      "resourceType": "AllergyIntolerance",
      "id": "584ff108-e859-41cc-b443-2f5746bef2af",
      "identifier": [ {
        "use": "official",
        "system": "urn:oid:1.3.6.1.4.1.22812.3.99930.3.4.10",
        "value": "613618700107"
      }, {
        "use": "official",
        "system": "urn:oid:1.3.6.1.4.1.22812.3.99930.3.4.10",
        "value": "613618700109"
      } ],
      "clinicalStatus": {
        "coding": [ {
          "system": "http://terminology.hl7.org/CodeSystem/allergyintolerance-clinical",
          "code": "active",
          "display": "Active"
        } ]
      },
      "verificationStatus": {
        "coding": [ {
          "system": "http://terminology.hl7.org/CodeSystem/allergyintolerance-verification",
          "code": "confirmed",
          "display": "Confirmed"
        } ]
      },
      "type": "allergy",
      "category": [ "medication" ],
      "code": {
        "coding": [ {
          "system": "http://www.nlm.nih.gov/research/umls/rxnorm",
          "code": "7982",
          "display": "Penicillin G benzathine"
        } ],
        "text": "Penicillin G benzathine"
      },
      "patient": {
        "reference": "Patient/be67f068-481f-40a8-a3dc-20f52e7233e9",
        "display": "Eve Everywoman"
      },
      "onsetDateTime": "1998-01-10",
      "recordedDate": "1998-01-10",
      "recorder": {
        "reference": "Practitioner/8dad9a3c-2237-4fda-88aa-a9d1bf472653"
      },
      "reaction": [ {
        "manifestation": [ {
          "coding": [ {
            "system": "http://snomed.info/sct",
            "code": "247472004",
            "display": "Hives"
          } ],
          "text": "Hives"
        } ]
      } ]
    }
  }, {
    "resource": {
      "resourceType": "Practitioner",
      "id": "8dad9a3c-2237-4fda-88aa-a9d1bf472653"
    }
  }, {
    "resource": {
      "resourceType": "AllergyIntolerance",
      "id": "7c488520-9e87-4613-8eb6-1569f46c633d",
      "identifier": [ {
        "use": "official",
        "system": "urn:oid:1.3.6.1.4.1.22812.3.99930.3.4.10",
        "value": "6136187001071"
      }, {
        "use": "official",
        "system": "urn:oid:1.3.6.1.4.1.22812.3.99930.3.4.10",
        "value": "6136187001091"
      } ],
      "clinicalStatus": {
        "coding": [ {
          "system": "http://terminology.hl7.org/CodeSystem/allergyintolerance-clinical",
          "code": "active",
          "display": "Active"
        } ]
      },
      "verificationStatus": {
        "coding": [ {
          "system": "http://terminology.hl7.org/CodeSystem/allergyintolerance-verification",
          "code": "confirmed",
          "display": "Confirmed"
        } ]
      },
      "type": "allergy",
      "category": [ "medication" ],
      "code": {
        "coding": [ {
          "system": "http://www.nlm.nih.gov/research/umls/rxnorm",
          "code": "1191",
          "display": "Aspirin"
        } ],
        "text": "Aspirin"
      },
      "patient": {
        "reference": "Patient/be67f068-481f-40a8-a3dc-20f52e7233e9",
        "display": "Eve Everywoman"
      },
      "onsetDateTime": "2011-01-10",
      "recordedDate": "2011-01-10",
      "recorder": {
        "reference": "Practitioner/fe9edb27-dcfd-4dc6-9100-acb24fde80d9"
      },
      "reaction": [ {
        "manifestation": [ {
          "coding": [ {
            "system": "http://snomed.info/sct",
            "code": "65124004",
            "display": "Swelling"
          } ],
          "text": "Swelling"
        } ]
      } ]
    }
  }, {
    "resource": {
      "resourceType": "Practitioner",
      "id": "fe9edb27-dcfd-4dc6-9100-acb24fde80d9"
    }
  }, {
    "resource": {
      "resourceType": "AllergyIntolerance",
      "id": "1a556db3-73ae-4cf3-bf73-83017dc14fdb",
      "identifier": [ {
        "use": "official",
        "system": "urn:oid:1.3.6.1.4.1.22812.3.99930.3.4.10",
        "value": "624373800001"
      }, {
        "use": "official",
        "system": "urn:oid:1.3.6.1.4.1.22812.3.99930.3.4.10",
        "value": "637073500005"
      } ],
      "clinicalStatus": {
        "coding": [ {
          "system": "http://terminology.hl7.org/CodeSystem/allergyintolerance-clinical",
          "code": "active",
          "display": "Active"
        } ]
      },
      "verificationStatus": {
        "coding": [ {
          "system": "http://terminology.hl7.org/CodeSystem/allergyintolerance-verification",
          "code": "confirmed",
          "display": "Confirmed"
        } ]
      },
      "type": "allergy",
      "category": [ "medication" ],
      "code": {
        "text": "Codeine"
      },
      "patient": {
        "reference": "Patient/be67f068-481f-40a8-a3dc-20f52e7233e9",
        "display": "Eve Everywoman"
      },
      "onsetDateTime": "2001-01-10T00:00:00+01:00",
      "recordedDate": "2001-01-10T00:00:00+01:00",
      "recorder": {
        "reference": "Practitioner/77810be1-2cf7-4c22-a063-8a420e9b5b1c"
      },
      "reaction": [ {
        "manifestation": [ {
          "coding": [ {
            "system": "http://snomed.info/sct",
            "code": "241937000",
            "display": "Drug Induced Anaphylaxis"
          } ],
          "text": "Anaphylaxis"
        } ]
      } ]
    }
  }, {
    "resource": {
      "resourceType": "Practitioner",
      "id": "77810be1-2cf7-4c22-a063-8a420e9b5b1c"
    }
  }, {
    "resource": {
      "resourceType": "DiagnosticReport",
      "id": "2e40db41-0cc9-4921-b736-fb2cdac35bbf",
      "identifier": [ {
        "use": "official",
        "system": "urn:oid:1.3.6.1.4.1.22812.3.99930.3.4.5",
        "value": "659988700005"
      } ],
      "status": "final",
      "category": [ {
        "coding": [ {
          "system": "http://terminology.hl7.org/CodeSystem/v2-0074",
          "code": "LAB",
          "display": "Laboratory"
        } ]
      } ],
      "code": {
        "coding": [ {
          "system": "http://www.ama-assn.org/go/cpt",
          "code": "85025",
          "display": "CBC"
        } ]
      },
      "subject": {
        "reference": "Patient/be67f068-481f-40a8-a3dc-20f52e7233e9",
        "display": "Eve Everywoman"
      },
      "effectivePeriod": {
        "start": "2013-01-30"
      },
      "issued": "2013-01-30T00:00:00.000+01:00",
      "performer": [ {
        "reference": "Practitioner/8e5ae786-b54f-4b77-b5cd-d9ca2fd7fcc8"
      } ],
      "result": [ {
        "reference": "Observation/1d8fd435-d342-43fd-bc76-11347cb17867",
        "display": "PLT"
      }, {
        "reference": "Observation/5d6ed6cd-39e8-45a2-8826-1bbf03c81ed3",
        "display": "WBC"
      }, {
        "reference": "Observation/ff69e42f-0c67-49bb-b1a2-d407da03ee5c",
        "display": "HCT"
      }, {
        "reference": "Observation/98ed2b2b-e18c-429e-90bc-92183a0b0e87",
        "display": "HGB"
      } ]
    }
  }, {
    "resource": {
      "resourceType": "Practitioner",
      "id": "8e5ae786-b54f-4b77-b5cd-d9ca2fd7fcc8"
    }
  }, {
    "resource": {
      "resourceType": "Observation",
      "id": "1d8fd435-d342-43fd-bc76-11347cb17867",
      "identifier": [ {
        "use": "official",
        "system": "urn:oid:1.3.6.1.4.1.22812.3.99930.3.4.5",
        "value": "6599887000033"
      }, {
        "use": "official",
        "system": "urn:oid:1.3.6.1.4.1.22812.3.99930.3.4.5",
        "value": "6599889000033"
      } ],
      "status": "final",
      "category": [ {
        "coding": [ {
          "system": "http://terminology.hl7.org/CodeSystem/observation-category",
          "code": "laboratory"
        } ]
      } ],
      "code": {
        "coding": [ {
          "system": "http://loinc.org",
          "code": "26515-7",
          "display": "PLT"
        } ]
      },
      "subject": {
        "reference": "Patient/be67f068-481f-40a8-a3dc-20f52e7233e9",
        "display": "Eve Everywoman"
      },
      "effectivePeriod": {
        "start": "2013-01-30"
      },
      "valueQuantity": {
        "value": 388,
        "unit": "10^3/ul",
        "system": "http://unitsofmeasure.org",
        "code": "10^3/ul"
      },
      "interpretation": [ {
        "coding": [ {
          "system": "http://terminology.hl7.org/CodeSystem/v3-ObservationInterpretation"
        } ]
      } ]
    }
  }, {
    "resource": {
      "resourceType": "Observation",
      "id": "5d6ed6cd-39e8-45a2-8826-1bbf03c81ed3",
      "identifier": [ {
        "use": "official",
        "system": "urn:oid:1.3.6.1.4.1.22812.3.99930.3.4.5",
        "value": "6599887000032"
      }, {
        "use": "official",
        "system": "urn:oid:1.3.6.1.4.1.22812.3.99930.3.4.5",
        "value": "6599889000032"
      } ],
      "status": "final",
      "category": [ {
        "coding": [ {
          "system": "http://terminology.hl7.org/CodeSystem/observation-category",
          "code": "laboratory"
        } ]
      } ],
      "code": {
        "coding": [ {
          "system": "http://loinc.org",
          "code": "33765-9",
          "display": "WBC"
        } ]
      },
      "subject": {
        "reference": "Patient/be67f068-481f-40a8-a3dc-20f52e7233e9",
        "display": "Eve Everywoman"
      },
      "effectivePeriod": {
        "start": "2013-01-30"
      },
      "valueQuantity": {
        "value": 5.2,
        "unit": "10^3/ul",
        "system": "http://unitsofmeasure.org",
        "code": "10^3/ul"
      },
      "interpretation": [ {
        "coding": [ {
          "system": "http://terminology.hl7.org/CodeSystem/v3-ObservationInterpretation"
        } ]
      } ]
    }
  }, {
    "resource": {
      "resourceType": "Observation",
      "id": "ff69e42f-0c67-49bb-b1a2-d407da03ee5c",
      "identifier": [ {
        "use": "official",
        "system": "urn:oid:1.3.6.1.4.1.22812.3.99930.3.4.5",
        "value": "6599887000031"
      }, {
        "use": "official",
        "system": "urn:oid:1.3.6.1.4.1.22812.3.99930.3.4.5",
        "value": "6599889000031"
      } ],
      "status": "final",
      "category": [ {
        "coding": [ {
          "system": "http://terminology.hl7.org/CodeSystem/observation-category",
          "code": "laboratory"
        } ]
      } ],
      "code": {
        "coding": [ {
          "system": "http://loinc.org",
          "code": "20570-8",
          "display": "HCT"
        } ]
      },
      "subject": {
        "reference": "Patient/be67f068-481f-40a8-a3dc-20f52e7233e9",
        "display": "Eve Everywoman"
      },
      "effectivePeriod": {
        "start": "2013-01-30"
      },
      "valueQuantity": {
        "value": 50,
        "unit": "%",
        "system": "http://unitsofmeasure.org",
        "code": "%"
      },
      "interpretation": [ {
        "coding": [ {
          "system": "http://terminology.hl7.org/CodeSystem/v3-ObservationInterpretation"
        } ]
      } ]
    }
  }, {
    "resource": {
      "resourceType": "Observation",
      "id": "98ed2b2b-e18c-429e-90bc-92183a0b0e87",
      "identifier": [ {
        "use": "official",
        "system": "urn:oid:1.3.6.1.4.1.22812.3.99930.3.4.5",
        "value": "659988700003"
      }, {
        "use": "official",
        "system": "urn:oid:1.3.6.1.4.1.22812.3.99930.3.4.5",
        "value": "659988900003"
      } ],
      "status": "final",
      "category": [ {
        "coding": [ {
          "system": "http://terminology.hl7.org/CodeSystem/observation-category",
          "code": "laboratory"
        } ]
      } ],
      "code": {
        "coding": [ {
          "system": "http://loinc.org",
          "code": "30313-1",
          "display": "HGB"
        } ]
      },
      "subject": {
        "reference": "Patient/be67f068-481f-40a8-a3dc-20f52e7233e9",
        "display": "Eve Everywoman"
      },
      "effectivePeriod": {
        "start": "2013-01-30"
      },
      "valueQuantity": {
        "value": 14.5,
        "unit": "g/dl",
        "system": "http://unitsofmeasure.org",
        "code": "g/dl"
      },
      "interpretation": [ {
        "coding": [ {
          "system": "http://terminology.hl7.org/CodeSystem/v3-ObservationInterpretation"
        } ]
      } ]
    }
  }, {
    "resource": {
      "resourceType": "Immunization",
      "id": "b0793ba4-ae63-4dd6-98cd-72773db7b27e",
      "identifier": [ {
        "use": "official",
        "system": "urn:oid:1.3.6.1.4.1.22812.3.99930.3.4.4",
        "value": "637382500009"
      }, {
        "use": "official",
        "system": "urn:oid:1.3.6.1.4.1.22812.3.99930.3.4.4",
        "value": "637382500011"
      } ],
      "status": "completed",
      "vaccineCode": {
        "coding": [ {
          "system": "http://www2a.cdc.gov/vaccines/iis/iisstandards/vaccines.asp?rpt=cvx",
          "code": "88",
          "display": "Influenza virus vaccine"
        } ],
        "text": "Influenza virus vaccine"
      },
      "patient": {
        "reference": "Patient/be67f068-481f-40a8-a3dc-20f52e7233e9",
        "display": "Eve Everywoman"
      },
      "occurrenceDateTime": "2005-11-01",
      "primarySource": true,
      "site": {
        "coding": [ {
          "system": "http://snomed.info/sct",
          "code": "368208006",
          "display": "Left Arm"
        } ]
      },
      "route": {
        "coding": [ {
          "system": "http://www.nlm.nih.gov/research/umls/nci",
          "code": "C28161",
          "display": "INTRAMUSCULAR"
        } ]
      },
      "performer": [ {
        "function": {
          "coding": [ {
            "system": "http://hl7.org/fhir/v2/0443",
            "code": "AP",
            "display": "Administering Provider"
          } ]
        },
        "actor": {
          "reference": "Practitioner/2e82ced4-aa7b-4a62-a222-a93335175535",
          "display": "Nancy Nurse RN"
        }
      } ]
    }
  }, {
    "resource": {
      "resourceType": "Practitioner",
      "id": "2e82ced4-aa7b-4a62-a222-a93335175535",
      "identifier": [ {
        "use": "official",
        "system": "urn:oid:1.3.6.1.4.1.22812.3.99930.3",
        "value": "3333"
      } ],
      "name": [ {
        "family": "Nurse",
        "given": [ "Nancy" ],
        "suffix": [ "RN" ]
      } ],
      "telecom": [ {
        "system": "phone",
        "value": "+1-(555)555-4220"
      } ]
    }
  }, {
    "resource": {
      "resourceType": "Observation",
      "id": "1dc8ca49-af11-481f-8293-4b3e0d8b2809",
      "identifier": [ {
        "use": "official",
        "system": "urn:oid:1.3.6.1.4.1.22812.3.99930.3.4.7",
        "value": "6239942000191"
      }, {
        "use": "official",
        "system": "urn:oid:1.3.6.1.4.1.22812.3.99930.3.4.7",
        "value": "6600086000011"
      } ],
      "status": "final",
      "code": {
        "coding": [ {
          "system": "http://snomed.info/sct",
          "code": "441987005",
          "display": "Abdominal ultrasound"
        } ],
        "text": "Abdominal ultrasound"
      },
      "subject": {
        "reference": "Patient/be67f068-481f-40a8-a3dc-20f52e7233e9",
        "display": "Eve Everywoman"
      },
      "effectivePeriod": {
        "start": "2012-10-02"
      },
      "performer": [ {
        "reference": "Practitioner/b601651a-561d-400e-a108-694038d561e9",
        "display": "Dr Stanley Stage"
      } ],
      "valueString": "Organs examined appear normal. No abscess noted.",
      "bodySite": {
        "coding": [ {
          "system": "http://snomed.info/sct",
          "code": "82094008",
          "display": "113345001"
        } ]
      }
    }
  }, {
    "resource": {
      "resourceType": "Condition",
      "id": "de751edd-eaa8-4c4a-8140-4cca5ebd470f",
      "identifier": [ {
        "use": "official",
        "system": "urn:oid:1.3.6.1.4.1.22812.3.99930.3.4.1.2.1",
        "value": "636842200007"
      }, {
        "use": "official",
        "system": "urn:oid:1.3.6.1.4.1.22812.3.99930.3.4.1.2.1",
        "value": "660100900011"
      } ],
      "clinicalStatus": {
        "coding": [ {
          "system": "http://terminology.hl7.org/CodeSystem/condition-clinical",
          "code": "active",
          "display": "Active"
        } ]
      },
      "verificationStatus": {
        "coding": [ {
          "system": "http://terminology.hl7.org/CodeSystem/condition-ver-status",
          "code": "refuted",
          "display": "Refuted"
        } ]
      },
      "category": [ {
        "coding": [ {
          "system": "http://terminology.hl7.org/CodeSystem/condition-category",
          "code": "problem-list-item",
          "display": "Problem List Item"
        } ]
      } ],
      "code": {
        "coding": [ {
          "system": "http://snomed.info/sct",
          "code": "195967001",
          "display": "Type II DIabetes"
        } ],
        "text": "Type II Diabetes"
      },
      "subject": {
        "reference": "Patient/be67f068-481f-40a8-a3dc-20f52e7233e9",
        "display": "Eve Everywoman"
      },
      "onsetDateTime": "2011-03-10T00:00:00-05:00",
      "recordedDate": "2011-03-10T00:00:00-05:00",
      "asserter": {
        "reference": "Practitioner/1011a71e-318d-4d39-8c91-348c554734b9"
      }
    }
  }, {
    "resource": {
      "resourceType": "Practitioner",
      "id": "1011a71e-318d-4d39-8c91-348c554734b9"
    }
  }, {
    "resource": {
      "resourceType": "Condition",
      "id": "8a3d255a-4d59-41ac-9c53-7624ac88554b",
      "identifier": [ {
        "use": "official",
        "system": "urn:oid:1.3.6.1.4.1.22812.3.99930.3.4.1.2.1",
        "value": "636842200009"
      }, {
        "use": "official",
        "system": "urn:oid:1.3.6.1.4.1.22812.3.99930.3.4.1.2.1",
        "value": "659935200025"
      } ],
      "clinicalStatus": {
        "coding": [ {
          "system": "http://terminology.hl7.org/CodeSystem/condition-clinical",
          "code": "active",
          "display": "Active"
        } ]
      },
      "verificationStatus": {
        "coding": [ {
          "system": "http://terminology.hl7.org/CodeSystem/condition-ver-status",
          "code": "refuted",
          "display": "Refuted"
        } ]
      },
      "category": [ {
        "coding": [ {
          "system": "http://terminology.hl7.org/CodeSystem/condition-category",
          "code": "problem-list-item",
          "display": "Problem List Item"
        } ]
      } ],
      "code": {
        "coding": [ {
          "system": "http://snomed.info/sct",
          "code": "26929004",
          "display": "Alzheimer disease"
        } ],
        "text": "Alzheimer disease"
      },
      "subject": {
        "reference": "Patient/be67f068-481f-40a8-a3dc-20f52e7233e9",
        "display": "Eve Everywoman"
      },
      "onsetDateTime": "2012-03-12",
      "recordedDate": "2012-03-12T01:00:00-04:00",
      "asserter": {
        "reference": "Practitioner/72a8b70e-4cfe-45a8-81a0-e5f2c21fc8bf"
      }
    }
  }, {
    "resource": {
      "resourceType": "Practitioner",
      "id": "72a8b70e-4cfe-45a8-81a0-e5f2c21fc8bf"
    }
  }, {
    "resource": {
      "resourceType": "Condition",
      "id": "783b0e3c-f9a8-4e49-a6bc-426163bd9d23",
      "identifier": [ {
        "use": "official",
        "system": "urn:oid:1.3.6.1.4.1.22812.3.99930.3.4.1.2.1",
        "value": "615028800003"
      }, {
        "use": "official",
        "system": "urn:oid:1.3.6.1.4.1.22812.3.99930.3.4.1.2.1",
        "value": "659935200001"
      } ],
      "clinicalStatus": {
        "coding": [ {
          "system": "http://terminology.hl7.org/CodeSystem/condition-clinical",
          "code": "active",
          "display": "Active"
        } ]
      },
      "verificationStatus": {
        "coding": [ {
          "system": "http://terminology.hl7.org/CodeSystem/condition-ver-status",
          "code": "refuted",
          "display": "Refuted"
        } ]
      },
      "category": [ {
        "coding": [ {
          "system": "http://terminology.hl7.org/CodeSystem/condition-category",
          "code": "problem-list-item",
          "display": "Problem List Item"
        } ]
      } ],
      "code": {
        "coding": [ {
          "system": "http://snomed.info/sct",
          "code": "195967001",
          "display": "Asthma"
        } ],
        "text": "Asthma"
      },
      "subject": {
        "reference": "Patient/be67f068-481f-40a8-a3dc-20f52e7233e9",
        "display": "Eve Everywoman"
      },
      "onsetDateTime": "2013-01-30",
      "recordedDate": "2013-01-30T00:00:00-05:00",
      "asserter": {
        "reference": "Practitioner/040ddd83-f88b-4e9b-a2f9-8f84105d60bc"
      }
    }
  }, {
    "resource": {
      "resourceType": "Practitioner",
      "id": "040ddd83-f88b-4e9b-a2f9-8f84105d60bc"
    }
  }, {
    "resource": {
      "resourceType": "Observation",
      "id": "1daf822c-8318-4146-86b4-3f64cd4b8e0b",
      "status": "final",
      "code": {
        "coding": [ {
          "system": "urn:oid:2.16.840.1.113883.5.4",
          "code": "ASSERTION",
          "display": "Assertion"
        } ]
      },
      "subject": {
        "reference": "Patient/be67f068-481f-40a8-a3dc-20f52e7233e9",
        "display": "Eve Everywoman"
      },
      "issued": "2012-10-02T10:30:00-04:00",
      "performer": [ {
        "reference": "Practitioner/2fde65b9-38db-4c50-a896-0f60252d9052"
      } ],
      "valueCodeableConcept": {
        "coding": [ {
          "system": "http://snomed.info/sct",
          "code": "266927001",
          "display": "Unknown if ever smoked"
        } ]
      }
    }
  }, {
    "resource": {
      "resourceType": "Practitioner",
      "id": "2fde65b9-38db-4c50-a896-0f60252d9052"
    }
  } ]
}