{
  "resourceType": "Bundle",
  "entry": [ {
    "resource": {
      "resourceType": "Composition",
      "id": "bc7b739e-f7c6-4a89-b331-be521953bb0c",
      "identifier": {
        "use": "official",
        "system": "urn:oid:1.3.6.1.4.1.22812.3.99930.3.1",
        "value": "66670992"
      },
      "status": "preliminary",
      "type": {
        "coding": [ {
          "system": "http://loinc.org",
          "code": "34133-9",
          "display": "SUMMARIZATION OF EPISODE NOTE"
        } ]
      },
      "category": [ {
        "coding": [ {
          "system": "http://hl7.org/fhir/ValueSet/doc-classcodes",
          "code": "LP173421-7",
          "display": "Note"
        } ]
      } ],
      "subject": {
        "reference": "Patient/339c2272-5ad0-4ca7-8d44-ae6f3fe3059d",
        "display": "Adam Everyman"
      },
      "date": "2013-01-30T08:00:51-05:00",
      "author": [ {
        "reference": "Practitioner/2b7f7fe3-8c1c-4cb9-86ea-34fd070ec4a8",
        "display": "Dr Samir Khan"
      }, {
        "reference": "Device/cb7ef4ed-77b4-47f1-be70-f31d980d6d07"
      } ],
      "title": "Summary of Care",
      "confidentiality": "V",
      "attester": [ {
        "mode": "legal",
        "time": "2013-01-30T08:00:51-05:00",
        "party": {
          "reference": "Practitioner/2b7f7fe3-8c1c-4cb9-86ea-34fd070ec4a8",
          "display": "Dr Samir Khan"
        }
      }, {
        "mode": "professional",
        "time": "2013-01-30T08:00:51-05:00",
        "party": {
          "reference": "Practitioner/2b7f7fe3-8c1c-4cb9-86ea-34fd070ec4a8",
          "display": "Dr Samir Khan"
        }
      } ],
      "custodian": {
        "reference": "Organization/d1af05ab-9f7e-4a30-9ba1-e43a63db0b6a",
        "display": "Get Well Clinic"
      },
      "event": [ {
        "period": {
          "start": "2012-08-15T09:00:51+02:00",
          "end": "2013-01-30T08:00:51-05:00"
        },
        "detail": [ {
          "reference": "Practitioner/2b7f7fe3-8c1c-4cb9-86ea-34fd070ec4a8",
          "display": "Dr Samir Khan"
        }, {
          "reference": "Practitioner/43fed8fb-9cd3-499d-8a71-314848daa2d2",
          "display": "Nancy Nightingale RN"
        }, {
          "reference": "Practitioner/50e30b8f-e9b1-4651-b501-19f2f22294a4",
          "display": "Dr Penny Puffer"
        } ]
      } ],
      "section": [ {
        "title": "Plan of Care",
        "code": {
          "coding": [ {
            "system": "http://loinc.org",
            "code": "18776-5",
            "display": "Plan of Care"
          } ]
        },
        "text": {
          "status": "additional",
          "div": "<div xmlns=\"http://www.w3.org/1999/xhtml\"><ul><caption>Planned Observations</caption><li><table><thead><tr><th>Name</th><th>Dates</th><th>Details</th></tr></thead><tbody><tr><td><span><span><span>Goal: Weight Loss</span></span></span></td><td><span><span>On </span><span>15-Aug-2012</span></span><span><br/></span><span><span/></span></td><td><span><span>Goal</span></span></td></tr><tr><td><span><span><span>Goal: Asthma Management</span></span></span></td><td><span><span>On </span><span>15-Aug-2012</span></span><span><br/></span><span><span/></span></td><td><span><span>Goal</span></span></td></tr></tbody></table></li></ul><ul><caption>Planned Encounters</caption><li><table><tbody><tr><td><span><span>Pulmonary function Tests</span></span><span><br/></span><span><span>Encounter Reason: </span><span>Pulmonary function Tests (reason)</span></span><span><span>Dr. Penny Puffer Office - need office address</span></span><span><br/></span><span><br/></span><span><span> Puffer</span>, Penny Dr </span></td><td><span><span>On </span><span>1-Feb-2013</span></span><span><br/></span><span><span>00:00</span></span></td></tr></tbody></table></li></ul></div>"
        },
        "mode": "snapshot",
        "entry": [ {
          "reference": "CarePlan/ba3cbbe5-6a9a-4323-a140-383fdf1c75df"
        } ]
      }, {
        "title": "Social History",
        "code": {
          "coding": [ {
            "system": "http://loinc.org",
            "code": "29762-2",
            "display": "Social History"
          } ]
        },
        "text": {
          "status": "additional",
          "div": "<div xmlns=\"http://www.w3.org/1999/xhtml\"><ul><caption>Smoking Status</caption><li><span>Never smoker</span><span> Started 2012</span></li><li><span>Current some day smoker</span><span> Started 2012</span></li></ul></div>"
        },
        "mode": "snapshot",
        "entry": [ {
          "reference": "Observation/d1f71ee3-f284-4932-acc5-dbcf64f5fb63",
          "display": "Assertion"
        }, {
          "reference": "Observation/50eed842-0a0d-4f58-9d66-a6379080c1ad",
          "display": "Assertion"
        } ]
      }, {
        "title": "Functional Status",
        "code": {
          "coding": [ {
            "system": "http://loinc.org",
            "code": "47420-5",
            "display": "Functional Status"
          } ]
        },
        "text": {
          "status": "additional",
          "div": "<div xmlns=\"http://www.w3.org/1999/xhtml\"><ul><caption>Functional Status Health Issues</caption><li><table><thead><tr><th>Name</th><th>Dates</th><th>Details</th></tr></thead><tbody><tr><td><span><span>No Functional Impairment</span></span><span><span/></span><span><br/></span></td><td><span><span>Onset<span>:</span></span><span>15-Aug-2012</span></span></td><td><span><span><span>Status: </span><span/></span></span></td></tr></tbody></table></li></ul><ul><caption>Cognitive Status Health Issues</caption><li><table><thead><tr><th>Name</th><th>Dates</th><th>Details</th></tr></thead><tbody><tr><td><span><span>No Cognitive Impairment</span></span><span><span/></span><span><br/></span></td><td><span><span>Onset<span>:</span></span><span>15-Aug-2012</span></span></td><td><span><span><span>Status: </span><span/></span></span></td></tr></tbody></table></li></ul></div>"
        },
        "mode": "snapshot"
      }, {
        "title": "Immunization",
        "code": {
          "coding": [ {
            "system": "http://loinc.org",
            "code": "11369-6",
            "display": "Immunizations"
          } ]
        },
        "text": {
          "status": "additional",
          "div": "<div xmlns=\"http://www.w3.org/1999/xhtml\"><table><thead><tr><th>Name</th><th>Dates</th><th>Details</th></tr></thead><tbody><tr><td><span><span>Influenza virus vaccine</span></span><span><br/></span></td><td><span><span>Administered on<span>:</span></span><span>15-Aug-2012</span></span></td><td><span><span> Site: </span><span><span>Left Arm</span></span></span><span><br/></span></td></tr></tbody></table></div>"
        },
        "mode": "snapshot",
        "entry": [ {
          "reference": "Immunization/a50bbeb3-6a65-4793-bc3c-84a17d750bc5",
          "display": "Influenza virus vaccine"
        } ]
      }, {
        "title": "Problems",
        "code": {
          "coding": [ {
            "system": "http://loinc.org",
            "code": "11450-4",
            "display": "Problem List"
          } ]
        },
        "text": {
          "status": "additional",
          "div": "<div xmlns=\"http://www.w3.org/1999/xhtml\"><table><thead><tr><th>Name</th><th>Dates</th><th>Details</th></tr></thead><tbody><tr><td><span><span>Costochondritis</span></span><span><span/></span><span><br/></span></td><td><span><span>Onset<span>:</span></span><span>15-Aug-2012</span></span></td><td><span><span><span>Status: </span><span>Active</span></span></span></td></tr><tr><td><span><span>Asthma</span></span><span><span/></span><span><br/></span></td><td><span><span>Onset<span>:</span></span><span>25-Sep-2011</span></span></td><td><span><span><span>Status: </span><span>Active</span></span></span></td></tr></tbody></table></div>"
        },
        "mode": "snapshot",
        "entry": [ {
          "reference": "Condition/a6298e80-2074-4642-9e1b-49d0858d90ff",
          "display": "Costochondritis"
        }, {
          "reference": "Condition/bc490be8-1f41-43b9-868d-9999f48745f7",
          "display": "Asthma"
        } ]
      }, {
        "title": "Allergies and Adverse Reactions",
        "code": {
          "coding": [ {
            "system": "http://loinc.org",
            "code": "48765-2",
            "display": "Allergies, adverse reactions, alerts"
          } ]
        },
        "text": {
          "status": "additional",
          "div": "<div xmlns=\"http://www.w3.org/1999/xhtml\"><table><thead><tr><th>Name</th><th>Dates</th><th>Details</th></tr></thead><tbody><tr><td><span><span>Penicillin G benzathine</span></span></td><td><span><span><span>Onset<span>:</span></span><span>10-Jan-1998</span></span></span></td><td><span><span><span>Reaction: </span><span>Hives</span></span></span><span><br/></span><span><span>Status: </span><span>Active</span></span></td></tr><tr><td><span><span>Codeine</span></span></td><td><span><span><span>Onset<span>:</span></span><span>10-Jan-2001</span></span></span></td><td><span><span><span>Reaction: </span><span>Nausea</span></span></span><span><br/></span><span><span>Status: </span><span>Active</span></span></td></tr></tbody></table></div>"
        },
        "mode": "snapshot",
        "entry": [ {
          "reference": "AllergyIntolerance/fc8d167c-4236-43e4-ae80-18d28ee8f4e0",
          "display": "Penicillin G benzathine"
        }, {
          "reference": "AllergyIntolerance/e6de2a16-e7d6-40c8-8f6c-b5e5fada49a0",
          "display": "Codeine"
        } ]
      }, {
        "title": "Medications",
        "code": {
          "coding": [ {
            "system": "http://loinc.org",
            "code": "10160-0",
            "display": "History of medication use"
          } ]
        },
        "text": {
          "status": "additional",
          "div": "<div xmlns=\"http://www.w3.org/1999/xhtml\"><table><thead><tr><th>Name</th><th>Dates</th><th>Details</th></tr></thead><tbody><tr><td><span><span>Albuterol 0.09 MG/ACTUAT metered dose</span></span><span><br/></span><span><span><span>TWO PUFFS Q6H PRN AS DIRECTED.</span></span></span><span><br/></span><span><span><span>Two puffs every six hours as needed for wheezing</span></span></span></td><td/><td><ul><li><table><tbody><tr><td><span> Started </span>20-Feb-2012</td></tr></tbody></table></li></ul><span><span/><span>Active</span></span></td></tr></tbody></table></div>"
        },
        "mode": "snapshot"
      }, {
        "title": "Results",
        "code": {
          "coding": [ {
            "system": "http://loinc.org",
            "code": "30954-2",
            "display": "Relevant diagnostic tests and/or laboratory data"
          } ]
        },
        "text": {
          "status": "additional",
          "div": "<div xmlns=\"http://www.w3.org/1999/xhtml\"><table><thead><tr><th>Date</th><th>Description</th><th>Value</th><th>Details</th></tr></thead><tbody><tr><td><span><span>Resulted on:</span></span><span><br/></span><span>15-Aug-2012 10:33</span></td><td><span>CO2</span></td><td><span>25  mmol/L</span></td><td/></tr><tr><td/><td/><td/><td/></tr></tbody></table></div>"
        },
        "mode": "snapshot",
        "entry": [ {
          "reference": "DiagnosticReport/a847a219-3752-48cc-8022-60d0d00eee3b",
          "display": "CO2"
        } ]
      }, {
        "title": "Procedures",
        "code": {
          "coding": [ {
            "system": "http://loinc.org",
            "code": "47519-4",
            "display": "History of Procedures"
          } ]
        },
        "text": {
          "status": "additional",
          "div": "<div xmlns=\"http://www.w3.org/1999/xhtml\"><table><thead><tr><th>Procedure</th><th>Dates</th><th>Details</th></tr></thead><tbody><tr><td><span>No Known Procedures</span></td><td/><td/></tr></tbody></table></div>"
        },
        "mode": "snapshot",
        "entry": [ {
          "reference": "Procedure/227e2bda-0a3b-4c89-9a08-5f5e35bb0262"
        } ]
      }, {
        "title": "Encounters",
        "code": {
          "coding": [ {
            "system": "http://loinc.org",
            "code": "46240-8",
            "display": "Encounters"
          } ]
        },
        "text": {
          "status": "additional",
          "div": "<div xmlns=\"http://www.w3.org/1999/xhtml\"><table><tbody><tr><td><span><span>Offie Visit</span></span><span><br/></span><span><span>Encounter Diagnosis: </span><span>Costochondritis</span></span><span><span><span>Active</span></span></span><span><span>Get Well Clinic</span></span><span><br/></span><span><br/></span><span><span> Khan</span>, Samir Dr </span></td><td><span><span>On </span><span>15-Aug-2012</span></span><span><br/></span><span><span>09:00</span></span></td></tr></tbody></table></div>"
        },
        "mode": "snapshot",
        "entry": [ {
          "reference": "Encounter/f010f81a-d46c-4b1a-9906-906822905b60",
          "display": "Offie Visit"
        } ]
      } ]
    }
  }, {
    "resource": {
      "resourceType": "Patient",
      "id": "339c2272-5ad0-4ca7-8d44-ae6f3fe3059d",
      "extension": [ {
        "url": "http://hl7.org/fhir/us/core/StructureDefinition/us-core-race",
        "extension": [ {
          "url": "text",
          "valueString": "White"
        }, {
          "url": "ombCategory",
          "valueCoding": {
            "system": "urn:oid:2.16.840.1.113883.6.238",
            "code": "2106-3",
            "display": "White"
          }
        } ]
      }, {
        "url": "http://hl7.org/fhir/us/core/StructureDefinition/us-core-ethnicity",
        "extension": [ {
          "url": "text",
          "valueString": "Not Hispanic or Latino"
        }, {
          "url": "ombCategory",
          "valueCoding": {
            "system": "urn:oid:2.16.840.1.113883.6.238",
            "code": "2186-5",
            "display": "Not Hispanic or Latino"
          }
        } ]
      } ],
      "identifier": [ {
        "use": "official",
        "system": "urn:oid:1.3.6.1.4.1.22812.3.99930.3",
        "value": "110107073916280"
      } ],
      "name": [ {
        "family": "Everyman",
        "given": [ "Adam" ]
      } ],
      "telecom": [ {
        "system": "phone",
        "value": "+1-(555)555-3333",
        "use": "home"
      } ],
      "gender": "male",
      "birthDate": "1962-10-22",
      "address": [ {
        "use": "home",
        "line": [ "1234 Six Forks" ],
        "city": "Portland",
        "state": "OR",
        "postalCode": "97005",
        "country": "US"
      } ],
      "communication": [ {
        "language": {
          "coding": [ {
            "system": "urn:ietf:bcp:47",
            "code": "eng"
          } ]
        },
        "preferred": true
      } ],
      "managingOrganization": {
        "reference": "Organization/d1af05ab-9f7e-4a30-9ba1-e43a63db0b6a",
        "display": "Get Well Clinic"
      }
    }
  }, {
    "resource": {
      "resourceType": "Organization",
      "id": "d1af05ab-9f7e-4a30-9ba1-e43a63db0b6a",
      "identifier": [ {
        "use": "official",
        "system": "urn:oid:1.3.6.1.4.1.22812.3.99930.3",
        "value": "3"
      } ],
      "name": "Get Well Clinic",
      "telecom": [ {
        "system": "phone",
        "value": "+1-(555)555-1004"
      } ],
      "address": [ {
        "line": [ "Get Well Clinic", "1004 Healthcare Dr." ],
        "city": "Portland",
        "state": "OR",
        "postalCode": "97005",
        "country": "US"
      } ]
    }
  }, {
    "resource": {
      "resourceType": "Practitioner",
      "id": "2b7f7fe3-8c1c-4cb9-86ea-34fd070ec4a8",
      "identifier": [ {
        "use": "official",
        "system": "urn:oid:2.16.840.1.113883.4.6",
        "value": "1111111111"
      }, {
        "use": "official",
        "system": "urn:oid:1.3.6.1.4.1.22812.3.99930.3",
        "value": "91138"
      } ],
      "name": [ {
        "family": "Khan",
        "given": [ "Samir" ],
        "prefix": [ "Dr" ]
      } ],
      "telecom": [ {
        "system": "phone",
        "value": "+1-(555)555-1004"
      } ],
      "address": [ {
        "line": [ "Get Well Clinic", "1004 Healthcare Dr." ],
        "city": "Portland",
        "state": "OR",
        "postalCode": "97005",
        "country": "US"
      } ]
    }
  }, {
    "resource": {
      "resourceType": "Device",
      "id": "cb7ef4ed-77b4-47f1-be70-f31d980d6d07",
      "identifier": [ {
        "use": "official",
        "system": "urn:oid:1.3.6.1.4.1.22812.3.99930.3.3.3",
        "value": "3"
      } ],
      "manufacturer": "Enterprise EHR Clinical System 11.200.4210.17305",
      "type": {
        "coding": [ {
          "display": "Enterprise EHR Clinical System 11.200.4210.17305"
        } ]
      },
      "version": [ {
        "value": "Enterprise EHR Clinical System 11.200.4210.17305; Transform 4.1.1.18"
      } ],
      "owner": {
        "reference": "Organization/d1af05ab-9f7e-4a30-9ba1-e43a63db0b6a"
      }
    }
  }, {
    "resource": {
      "resourceType": "Practitioner",
      "id": "43fed8fb-9cd3-499d-8a71-314848daa2d2",
      "identifier": [ {
        "use": "official",
        "system": "urn:oid:1.3.6.1.4.1.22812.3.99930.3",
        "value": "3333"
      } ],
      "name": [ {
        "family": "Nightingale",
        "given": [ "Nancy" ],
        "suffix": [ "RN" ]
      } ],
      "telecom": [ {
        "system": "phone",
        "value": "+1-(555)555-1014"
      } ],
      "address": [ {
        "line": [ "Get Well Clinic", "1004 Healthcare Dr." ],
        "city": "Portland",
        "state": "OR",
        "postalCode": "97005",
        "country": "US"
      } ]
    }
  }, {
    "resource": {
      "resourceType": "Practitioner",
      "id": "50e30b8f-e9b1-4651-b501-19f2f22294a4",
      "identifier": [ {
        "use": "official",
        "system": "http://hl7.org/fhir/sid/us-npi",
        "value": "2222222222"
      } ],
      "name": [ {
        "family": "Puffer",
        "given": [ "Penny" ],
        "prefix": [ "Dr" ]
      } ],
      "telecom": [ {
        "system": "phone",
        "value": "+1-(555)555-1049"
      } ],
      "address": [ {
        "line": [ "1047 Healthcare Drive" ],
        "city": "Portland",
        "state": "OR",
        "postalCode": "97005",
        "country": "US"
      } ]
    }
  }, {
    "resource": {
      "resourceType": "CarePlan",
      "id": "ba3cbbe5-6a9a-4323-a140-383fdf1c75df",
      "text": {
        "status": "additional",
        "div": "<div xmlns=\"http://www.w3.org/1999/xhtml\"><ul><caption>Planned Observations</caption><li><table><thead><tr><th>Name</th><th>Dates</th><th>Details</th></tr></thead><tbody><tr><td><span><span><span>Goal: Weight Loss</span></span></span></td><td><span><span>On </span><span>15-Aug-2012</span></span><span><br/></span><span><span/></span></td><td><span><span>Goal</span></span></td></tr><tr><td><span><span><span>Goal: Asthma Management</span></span></span></td><td><span><span>On </span><span>15-Aug-2012</span></span><span><br/></span><span><span/></span></td><td><span><span>Goal</span></span></td></tr></tbody></table></li></ul><ul><caption>Planned Encounters</caption><li><table><tbody><tr><td><span><span>Pulmonary function Tests</span></span><span><br/></span><span><span>Encounter Reason: </span><span>Pulmonary function Tests (reason)</span></span><span><span>Dr. Penny Puffer Office - need office address</span></span><span><br/></span><span><br/></span><span><span> Puffer</span>, Penny Dr </span></td><td><span><span>On </span><span>1-Feb-2013</span></span><span><br/></span><span><span>00:00</span></span></td></tr></tbody></table></li></ul></div>"
      },
      "status": "active",
      "intent": "plan",
      "category": [ {
        "coding": [ {
          "system": "http://hl7.org/fhir/us/core/CodeSystem/careplan-category",
          "code": "assess-plan"
        } ]
      } ],
      "title": "Plan of Care",
      "description": "<div><ul><caption>Planned Observations</caption><li><table><thead><tr><th>Name</th><th>Dates</th><th>Details</th></tr></thead><tbody><tr><td><span><span><span>Goal: Weight Loss</span></span></span></td><td><span><span>On </span><span>15-Aug-2012</span></span><span><br></br></span><span><span></span></span></td><td><span><span>Goal</span></span></td></tr><tr><td><span><span><span>Goal: Asthma Management</span></span></span></td><td><span><span>On </span><span>15-Aug-2012</span></span><span><br></br></span><span><span></span></span></td><td><span><span>Goal</span></span></td></tr></tbody></table></li></ul><ul><caption>Planned Encounters</caption><li><table><tbody><tr><td><span><span>Pulmonary function Tests</span></span><span><br></br></span><span><span>Encounter Reason: </span><span>Pulmonary function Tests (reason)</span></span><span><span>Dr. Penny Puffer Office - need office address</span></span><span><br></br></span><span><br></br></span><span><span> Puffer</span>, Penny Dr </span></td><td><span><span>On </span><span>1-Feb-2013</span></span><span><br></br></span><span><span>00:00</span></span></td></tr></tbody></table></li></ul></div>",
      "subject": {
        "reference": "Patient/339c2272-5ad0-4ca7-8d44-ae6f3fe3059d",
        "display": "Adam Everyman"
      }
    }
  }, {
    "resource": {
      "resourceType": "Observation",
      "id": "d1f71ee3-f284-4932-acc5-dbcf64f5fb63",
      "status": "final",
      "code": {
        "coding": [ {
          "system": "urn:oid:2.16.840.1.113883.5.4",
          "code": "ASSERTION",
          "display": "Assertion"
        } ]
      },
      "subject": {
        "reference": "Patient/339c2272-5ad0-4ca7-8d44-ae6f3fe3059d",
        "display": "Adam Everyman"
      },
      "effectivePeriod": {
        "start": "2012"
      },
      "issued": "2011-10-28T10:00:51+02:00",
      "performer": [ {
        "reference": "Practitioner/281afa71-0267-4d19-8dcd-d3f0b629f1c7"
      } ],
      "valueCodeableConcept": {
        "coding": [ {
          "system": "http://snomed.info/sct",
          "code": "266919005",
          "display": "Never smoker"
        } ]
      }
    }
  }, {
    "resource": {
      "resourceType": "Practitioner",
      "id": "281afa71-0267-4d19-8dcd-d3f0b629f1c7"
    }
  }, {
    "resource": {
      "resourceType": "Observation",
      "id": "50eed842-0a0d-4f58-9d66-a6379080c1ad",
      "status": "final",
      "code": {
        "coding": [ {
          "system": "urn:oid:2.16.840.1.113883.5.4",
          "code": "ASSERTION",
          "display": "Assertion"
        } ]
      },
      "subject": {
        "reference": "Patient/339c2272-5ad0-4ca7-8d44-ae6f3fe3059d",
        "display": "Adam Everyman"
      },
      "effectivePeriod": {
        "start": "2012"
      },
      "issued": "2012-09-25T10:00:51+02:00",
      "performer": [ {
        "reference": "Practitioner/945b17c0-b50a-4dfa-b954-d0552e846259"
      } ],
      "valueCodeableConcept": {
        "coding": [ {
          "system": "http://snomed.info/sct",
          "code": "428041000124106",
          "display": "Current some day smoker"
        } ]
      }
    }
  }, {
    "resource": {
      "resourceType": "Practitioner",
      "id": "945b17c0-b50a-4dfa-b954-d0552e846259"
    }
  }, {
    "resource": {
      "resourceType": "Immunization",
      "id": "a50bbeb3-6a65-4793-bc3c-84a17d750bc5",
      "identifier": [ {
        "use": "official",
        "system": "urn:oid:1.3.6.1.4.1.22812.3.99930.3.4.4",
        "value": "637382500009"
      }, {
        "use": "official",
        "system": "urn:oid:1.3.6.1.4.1.22812.3.99930.3.4.4",
        "value": "637382500011"
      } ],
      "status": "completed",
      "vaccineCode": {
        "coding": [ {
          "system": "http://www2a.cdc.gov/vaccines/iis/iisstandards/vaccines.asp?rpt=cvx",
          "code": "88",
          "display": "Influenza virus vaccine"
        } ],
        "text": "Influenza virus vaccine"
      },
      "patient": {
        "reference": "Patient/339c2272-5ad0-4ca7-8d44-ae6f3fe3059d",
        "display": "Adam Everyman"
      },
      "occurrenceDateTime": "2012-08-15",
      "primarySource": true,
      "site": {
        "coding": [ {
          "system": "http://snomed.info/sct",
          "code": "368208006",
          "display": "Left Arm"
        } ]
      },
      "route": {
        "coding": [ {
          "system": "http://www.nlm.nih.gov/research/umls/nci",
          "code": "C28161",
          "display": "INTRAMUSCULAR"
        } ]
      },
      "performer": [ {
        "function": {
          "coding": [ {
            "system": "http://hl7.org/fhir/v2/0443",
            "code": "AP",
            "display": "Administering Provider"
          } ]
        },
        "actor": {
          "reference": "Practitioner/43fed8fb-9cd3-499d-8a71-314848daa2d2",
          "display": "Nancy Nightingale RN"
        }
      } ]
    }
  }, {
    "resource": {
      "resourceType": "Condition",
      "id": "a6298e80-2074-4642-9e1b-49d0858d90ff",
      "identifier": [ {
        "use": "official",
        "system": "urn:oid:1.3.6.1.4.1.22812.3.99930.3.4.1.2.1",
        "value": "615028800003"
      }, {
        "use": "official",
        "system": "urn:oid:1.3.6.1.4.1.22812.3.99930.3.4.1.2.1",
        "value": "659935200001"
      } ],
      "clinicalStatus": {
        "coding": [ {
          "system": "http://terminology.hl7.org/CodeSystem/condition-clinical",
          "code": "active",
          "display": "Active"
        } ]
      },
      "verificationStatus": {
        "coding": [ {
          "system": "http://terminology.hl7.org/CodeSystem/condition-ver-status",
          "code": "refuted",
          "display": "Refuted"
        } ]
      },
      "category": [ {
        "coding": [ {
          "system": "http://terminology.hl7.org/CodeSystem/condition-category",
          "code": "problem-list-item",
          "display": "Problem List Item"
        } ]
      } ],
      "code": {
        "coding": [ {
          "system": "http://snomed.info/sct",
          "code": "64109004",
          "display": "Costochondritis"
        } ],
        "text": "Costochondritis"
      },
      "subject": {
        "reference": "Patient/339c2272-5ad0-4ca7-8d44-ae6f3fe3059d",
        "display": "Adam Everyman"
      },
      "onsetDateTime": "2012-08-15",
      "recordedDate": "2012-08-15T01:00:00-04:00",
      "asserter": {
        "reference": "Practitioner/8885c0b1-8828-4b26-93c6-5c81538ccc79"
      }
    }
  }, {
    "resource": {
      "resourceType": "Practitioner",
      "id": "8885c0b1-8828-4b26-93c6-5c81538ccc79"
    }
  }, {
    "resource": {
      "resourceType": "Condition",
      "id": "bc490be8-1f41-43b9-868d-9999f48745f7",
      "identifier": [ {
        "use": "official",
        "system": "urn:oid:1.3.6.1.4.1.22812.3.99930.3.4.1.2.1",
        "value": "636842200007"
      }, {
        "use": "official",
        "system": "urn:oid:1.3.6.1.4.1.22812.3.99930.3.4.1.2.1",
        "value": "660100900011"
      } ],
      "clinicalStatus": {
        "coding": [ {
          "system": "http://terminology.hl7.org/CodeSystem/condition-clinical",
          "code": "active",
          "display": "Active"
        } ]
      },
      "verificationStatus": {
        "coding": [ {
          "system": "http://terminology.hl7.org/CodeSystem/condition-ver-status",
          "code": "refuted",
          "display": "Refuted"
        } ]
      },
      "category": [ {
        "coding": [ {
          "system": "http://terminology.hl7.org/CodeSystem/condition-category",
          "code": "problem-list-item",
          "display": "Problem List Item"
        } ]
      } ],
      "code": {
        "coding": [ {
          "system": "http://snomed.info/sct",
          "code": "195967001",
          "display": "Asthma"
        } ],
        "text": "Asthma"
      },
      "subject": {
        "reference": "Patient/339c2272-5ad0-4ca7-8d44-ae6f3fe3059d",
        "display": "Adam Everyman"
      },
      "onsetDateTime": "2011-09-25T01:00:00-04:00",
      "recordedDate": "2011-09-25T01:00:00-04:00",
      "asserter": {
        "reference": "Practitioner/cb8bc0bd-6d05-44d0-a3c5-3c0dc1026a59"
      }
    }
  }, {
    "resource": {
      "resourceType": "Practitioner",
      "id": "cb8bc0bd-6d05-44d0-a3c5-3c0dc1026a59"
    }
  }, {
    "resource": {
      "resourceType": "AllergyIntolerance",
      "id": "fc8d167c-4236-43e4-ae80-18d28ee8f4e0",
      "identifier": [ {
        "use": "official",
        "system": "urn:oid:1.3.6.1.4.1.22812.3.99930.3.4.10",
        "value": "613618700107"
      }, {
        "use": "official",
        "system": "urn:oid:1.3.6.1.4.1.22812.3.99930.3.4.10",
        "value": "613618700109"
      } ],
      "clinicalStatus": {
        "coding": [ {
          "system": "http://terminology.hl7.org/CodeSystem/allergyintolerance-clinical",
          "code": "active",
          "display": "Active"
        } ]
      },
      "verificationStatus": {
        "coding": [ {
          "system": "http://terminology.hl7.org/CodeSystem/allergyintolerance-verification",
          "code": "confirmed",
          "display": "Confirmed"
        } ]
      },
      "type": "allergy",
      "category": [ "medication" ],
      "code": {
        "coding": [ {
          "system": "http://www.nlm.nih.gov/research/umls/rxnorm",
          "code": "7982",
          "display": "Penicillin G benzathine"
        } ],
        "text": "Penicillin G benzathine"
      },
      "patient": {
        "reference": "Patient/339c2272-5ad0-4ca7-8d44-ae6f3fe3059d",
        "display": "Adam Everyman"
      },
      "onsetDateTime": "1998-01-10",
      "recordedDate": "1998-01-10",
      "recorder": {
        "reference": "Practitioner/c7886f46-2b06-4827-9f7c-45013447a2bf"
      },
      "reaction": [ {
        "manifestation": [ {
          "coding": [ {
            "system": "http://snomed.info/sct",
            "code": "247472004",
            "display": "Hives"
          } ],
          "text": "Hives"
        } ]
      } ]
    }
  }, {
    "resource": {
      "resourceType": "Practitioner",
      "id": "c7886f46-2b06-4827-9f7c-45013447a2bf"
    }
  }, {
    "resource": {
      "resourceType": "AllergyIntolerance",
      "id": "e6de2a16-e7d6-40c8-8f6c-b5e5fada49a0",
      "identifier": [ {
        "use": "official",
        "system": "urn:oid:1.3.6.1.4.1.22812.3.99930.3.4.10",
        "value": "624373800001"
      }, {
        "use": "official",
        "system": "urn:oid:1.3.6.1.4.1.22812.3.99930.3.4.10",
        "value": "637073500005"
      } ],
      "clinicalStatus": {
        "coding": [ {
          "system": "http://terminology.hl7.org/CodeSystem/allergyintolerance-clinical",
          "code": "active",
          "display": "Active"
        } ]
      },
      "verificationStatus": {
        "coding": [ {
          "system": "http://terminology.hl7.org/CodeSystem/allergyintolerance-verification",
          "code": "confirmed",
          "display": "Confirmed"
        } ]
      },
      "type": "allergy",
      "category": [ "medication" ],
      "code": {
        "text": "Codeine"
      },
      "patient": {
        "reference": "Patient/339c2272-5ad0-4ca7-8d44-ae6f3fe3059d",
        "display": "Adam Everyman"
      },
      "onsetDateTime": "2001-01-10T00:00:00+01:00",
      "recordedDate": "2001-01-10T00:00:00+01:00",
      "recorder": {
        "reference": "Practitioner/2bc7463f-2773-4a57-88d4-f04d960edf4a"
      },
      "reaction": [ {
        "manifestation": [ {
          "coding": [ {
            "system": "http://snomed.info/sct",
            "code": "422587007",
            "display": "Nausea"
          } ],
          "text": "Nausea"
        } ]
      } ]
    }
  }, {
    "resource": {
      "resourceType": "Practitioner",
      "id": "2bc7463f-2773-4a57-88d4-f04d960edf4a"
    }
  }, {
    "resource": {
      "resourceType": "DiagnosticReport",
      "id": "a847a219-3752-48cc-8022-60d0d00eee3b",
      "identifier": [ {
        "use": "official",
        "system": "urn:oid:1.3.6.1.4.1.22812.3.99930.3.4.5",
        "value": "659988700005"
      } ],
      "status": "final",
      "category": [ {
        "coding": [ {
          "system": "http://terminology.hl7.org/CodeSystem/v2-0074",
          "code": "LAB",
          "display": "Laboratory"
        } ]
      } ],
      "code": {
        "coding": [ {
          "system": "http://www.ama-assn.org/go/cpt",
          "code": "82374",
          "display": "CO2"
        } ]
      },
      "subject": {
        "reference": "Patient/339c2272-5ad0-4ca7-8d44-ae6f3fe3059d",
        "display": "Adam Everyman"
      },
      "effectivePeriod": {
        "start": "2012-08-15"
      },
      "issued": "2012-08-15T00:00:00.000+02:00",
      "performer": [ {
        "reference": "Practitioner/cd9ca05a-b67e-43e6-923d-7753d4755f5e"
      } ],
      "result": [ {
        "reference": "Observation/2b07dd29-9f7e-40d0-9390-aed3e85feaf2",
        "display": "CO2"
      } ]
    }
  }, {
    "resource": {
      "resourceType": "Practitioner",
      "id": "cd9ca05a-b67e-43e6-923d-7753d4755f5e"
    }
  }, {
    "resource": {
      "resourceType": "Observation",
      "id": "2b07dd29-9f7e-40d0-9390-aed3e85feaf2",
      "identifier": [ {
        "use": "official",
        "system": "urn:oid:1.3.6.1.4.1.22812.3.99930.3.4.5",
        "value": "6599887000031"
      }, {
        "use": "official",
        "system": "urn:oid:1.3.6.1.4.1.22812.3.99930.3.4.5",
        "value": "6599889000031"
      } ],
      "status": "final",
      "category": [ {
        "coding": [ {
          "system": "http://terminology.hl7.org/CodeSystem/observation-category",
          "code": "laboratory"
        } ]
      } ],
      "code": {
        "coding": [ {
          "system": "http://loinc.org",
          "code": "2028-9",
          "display": "CO2"
        } ]
      },
      "subject": {
        "reference": "Patient/339c2272-5ad0-4ca7-8d44-ae6f3fe3059d",
        "display": "Adam Everyman"
      },
      "effectivePeriod": {
        "start": "2012-08-15"
      },
      "valueQuantity": {
        "value": 25,
        "unit": "mmol/L",
        "system": "http://unitsofmeasure.org",
        "code": "mmol/L"
      },
      "interpretation": [ {
        "coding": [ {
          "system": "http://terminology.hl7.org/CodeSystem/v3-ObservationInterpretation"
        } ]
      } ]
    }
  }, {
    "resource": {
      "resourceType": "Procedure",
      "id": "227e2bda-0a3b-4c89-9a08-5f5e35bb0262",
      "identifier": [ {
        "use": "official",
        "system": "urn:oid:1.3.6.1.4.1.22812.3.99930.3.4.7",
        "value": "1898101"
      } ],
      "status": "in-progress",
      "subject": {
        "reference": "Patient/339c2272-5ad0-4ca7-8d44-ae6f3fe3059d",
        "display": "Adam Everyman"
      }
    }
  }, {
    "resource": {
      "resourceType": "Encounter",
      "id": "f010f81a-d46c-4b1a-9906-906822905b60",
      "identifier": [ {
        "use": "official",
        "system": "urn:oid:1.3.6.1.4.1.22812.3.99930.3.3.4",
        "value": "5283815"
      } ],
      "status": "finished",
      "type": [ {
        "coding": [ {
          "system": "http://www.ama-assn.org/go/cpt",
          "code": "99231",
          "display": "UNK"
        } ],
        "text": "Offie Visit"
      } ],
      "subject": {
        "reference": "Patient/339c2272-5ad0-4ca7-8d44-ae6f3fe3059d",
        "display": "Adam Everyman"
      },
      "participant": [ {
        "type": [ {
          "coding": [ {
            "system": "http://terminology.hl7.org/CodeSystem/v3-ParticipationType",
            "code": "PART",
            "display": "Participation"
          } ]
        } ],
        "period": {
          "start": "2012-08-15T09:00:51+02:00"
        },
        "individual": {
          "reference": "Practitioner/2b7f7fe3-8c1c-4cb9-86ea-34fd070ec4a8",
          "display": "Dr Samir Khan"
        }
      } ],
      "period": {
        "start": "2012-08-15T09:00:51+02:00"
      },
      "diagnosis": [ {
        "condition": {
          "reference": "Condition/c3138364-a9a7-4ee7-a13a-5f3866a3e1e4",
          "display": "Costochondritis"
        }
      } ],
      "location": [ {
        "location": {
          "reference": "Location/c549150a-5456-49b4-8351-78abc56b3b38",
          "display": "Get Well Clinic"
        }
      } ]
    }
  }, {
    "resource": {
      "resourceType": "Condition",
      "id": "c3138364-a9a7-4ee7-a13a-5f3866a3e1e4",
      "identifier": [ {
        "use": "official",
        "system": "urn:oid:1.3.6.1.4.1.22812.3.99930.3.4.1.2.1",
        "value": "55412"
      } ],
      "clinicalStatus": {
        "coding": [ {
          "system": "http://terminology.hl7.org/CodeSystem/condition-clinical",
          "code": "active",
          "display": "Active"
        } ]
      },
      "verificationStatus": {
        "coding": [ {
          "system": "http://terminology.hl7.org/CodeSystem/condition-ver-status",
          "code": "confirmed",
          "display": "Confirmed"
        } ]
      },
      "category": [ {
        "coding": [ {
          "system": "http://terminology.hl7.org/CodeSystem/condition-category",
          "code": "problem-list-item",
          "display": "Problem List Item"
        } ]
      } ],
      "code": {
        "coding": [ {
          "system": "http://snomed.info/sct",
          "code": "203523006",
          "display": "Costochondritis"
        } ],
        "text": "Costochondritis"
      },
      "subject": {
        "reference": "Patient/339c2272-5ad0-4ca7-8d44-ae6f3fe3059d",
        "display": "Adam Everyman"
      },
      "onsetDateTime": "2012-08-15T10:00:51+02:00"
    }
  }, {
    "resource": {
      "resourceType": "Location",
      "id": "c549150a-5456-49b4-8351-78abc56b3b38",
      "name": "Get Well Clinic"
    }
  } ]
}