{
  "resourceType": "Bundle",
  "entry": [ {
    "resource": {
      "resourceType": "Composition",
      "id": "8ee7beb9-f0cd-43cb-a15c-8c4fba82bc73",
      "identifier": {
        "use": "official",
        "system": "urn:oid:2.16.840.1.113883.3.441",
        "value": "cd3ee8d6b2f54362a7e3751216215e7f"
      },
      "status": "preliminary",
      "type": {
        "coding": [ {
          "system": "http://loinc.org",
          "code": "34133-9",
          "display": "Summarization of episode note"
        } ]
      },
      "category": [ {
        "coding": [ {
          "system": "http://hl7.org/fhir/ValueSet/doc-classcodes",
          "code": "LP173421-7",
          "display": "Note"
        } ]
      } ],
      "subject": {
        "reference": "Patient/78a5fc9a-6316-4aa4-8a15-c6ac010af568",
        "display": "Adam TOC Everyman"
      },
      "date": "2013-03-18T16:00:42-04:00",
      "author": [ {
        "reference": "Practitioner/9b092e1e-ccf4-4f9e-8453-4e75fd7346f2"
      } ],
      "title": "MU2 Export Summary",
      "confidentiality": "N",
      "custodian": {
        "reference": "Organization/0dc57c1a-fe4d-4571-af71-7c89eb445ec2",
        "display": "Get Well Clinic"
      },
      "event": [ {
        "detail": [ {
          "reference": "Practitioner/a83f4cdf-1ab4-4d63-8502-0f6d5c613053"
        }, {
          "reference": "Practitioner/1e2a4343-ccb7-4d49-999e-707b3b5a312b",
          "display": "Nancy Nightingale"
        }, {
          "reference": "Practitioner/fd92b1f6-aec1-44fe-83fa-1475523c8139",
          "display": "Samir Khan"
        } ]
      } ],
      "section": [ {
        "title": "Allergies and Adverse Reactions",
        "code": {
          "coding": [ {
            "system": "http://loinc.org",
            "code": "48765-2",
            "display": "Allergies, adverse reactions, alerts"
          } ]
        },
        "text": {
          "status": "additional",
          "div": "<div xmlns=\"http://www.w3.org/1999/xhtml\">            <table border=\"1\">              <thead>                <tr>                  <th>Name</th>                  <th>Reaction</th>                  <th>Notes</th>                </tr>              </thead>              <tbody>                <tr>                  <td>penicillin G benzathine</td>                  <td/>                  <td/>                </tr>                <tr>                  <td>Codeine Phosphate</td>                  <td/>                  <td/>                </tr>              </tbody>            </table>          </div>"
        },
        "mode": "snapshot",
        "entry": [ {
          "reference": "AllergyIntolerance/af565b6a-6099-4d8a-b7cf-26e033fffbbf",
          "display": "Codeine Phosphate"
        }, {
          "reference": "AllergyIntolerance/591bb60a-e3cd-4320-a39f-a31e97871407",
          "display": "penicillin G benzathine"
        } ]
      }, {
        "title": "Results Summary",
        "code": {
          "coding": [ {
            "system": "http://loinc.org",
            "code": "30954-2",
            "display": "Relevant diagnostic tests and/or laboratory data"
          } ]
        },
        "text": {
          "status": "additional",
          "div": "<div xmlns=\"http://www.w3.org/1999/xhtml\">            <table border=\"1\">              <thead>                <tr>                  <th>Data and Description</th>                  <th>Results</th>                </tr>              </thead>              <tbody>                <tr>                  <td>1/16/2013 3:52 PM</td>                  <td>                    <ul>                      <li>Nurse RN Nightingale, Nancy </li>                      <li>General Practitioner MD Khan, Samir </li>                    </ul>                  </td>                </tr>                <tr>                  <td>1/16/2013 4:28 PM</td>                  <td>                    <ul>                      <li>CO2 SerPl-sCnc 25.0 mmol/L</li>                    </ul>                  </td>                </tr>              </tbody>            </table>          </div>"
        },
        "mode": "snapshot",
        "entry": [ {
          "reference": "DiagnosticReport/b9a373a2-1c0a-4226-a17f-cc3058c5698e"
        }, {
          "reference": "DiagnosticReport/93e8d620-d04f-46a0-9770-f867c5d10246"
        }, {
          "reference": "DiagnosticReport/274a2f9d-09f8-4ff3-b517-9a20415c6400"
        } ]
      }, {
        "title": "Social History",
        "code": {
          "coding": [ {
            "system": "http://loinc.org",
            "code": "29762-2",
            "display": "Social history"
          } ]
        },
        "text": {
          "status": "additional",
          "div": "<div xmlns=\"http://www.w3.org/1999/xhtml\">            <table border=\"1\">              <thead>                <tr>                  <th>Name</th>                  <th>Status</th>                  <th>Comments</th>                </tr>              </thead>              <tbody>                <tr>                  <td>Tobacco</td>                  <td>Never</td>                  <td/>                </tr>              </tbody>            </table>          </div>"
        },
        "mode": "snapshot",
        "entry": [ {
          "reference": "Observation/83104bf5-62c8-4ed5-b640-64b52c67db30"
        } ]
      }, {
        "title": "Problem List",
        "code": {
          "coding": [ {
            "system": "http://loinc.org",
            "code": "11450-4",
            "display": "Problem list"
          } ]
        },
        "text": {
          "status": "additional",
          "div": "<div xmlns=\"http://www.w3.org/1999/xhtml\">            <table border=\"1\">              <thead>                <tr>                  <th>Description</th>                  <th>Status</th>                  <th>Onset</th>                </tr>              </thead>              <tbody>                <tr>                  <td>Costochondritis</td>                  <td>Active</td>                  <td>Encounter </td>                </tr>                <tr>                  <td>Asthma</td>                  <td>Active</td>                  <td>09/25/2011</td>                </tr>              </tbody>            </table>          </div>"
        },
        "mode": "snapshot",
        "entry": [ {
          "reference": "Condition/9b10121c-b1a4-4309-856c-c8ac7eb2eb04"
        }, {
          "reference": "Condition/2ab0edfa-f1be-4e63-97a5-4d689e17c23f"
        } ]
      }, {
        "title": "Functional Status Assessment",
        "code": {
          "coding": [ {
            "system": "http://loinc.org",
            "code": "47420-5",
            "display": "Functional status assessment"
          } ]
        },
        "text": {
          "status": "additional",
          "div": "<div xmlns=\"http://www.w3.org/1999/xhtml\">            <table border=\"1\">              <thead>                <tr>                  <th>Functional Condition</th>                  <th>Type</th>                </tr>              </thead>              <tbody>                <tr>                  <td>No Impairment</td>                  <td>Cognitive</td>                </tr>                <tr>                  <td>Has no phyical impairment</td>                  <td>Functional</td>                </tr>              </tbody>            </table>          </div>"
        },
        "mode": "snapshot"
      }, {
        "title": "Plan of Treatment",
        "code": {
          "coding": [ {
            "system": "http://loinc.org",
            "code": "18776-5",
            "display": "Treatment Plan"
          } ]
        },
        "text": {
          "status": "additional",
          "div": "<div xmlns=\"http://www.w3.org/1999/xhtml\">            <table border=\"1\">              <thead>                <tr>                  <th>Planned Activity</th>                  <th>Comments</th>                  <th>Planned Date</th>                  <th>Planned Time</th>                  <th>Plan/Goal</th>                </tr>              </thead>              <tbody>                <tr>                  <td>Pulmonary function tests</td>                  <td/>                  <td/>                  <td/>                  <td/>                </tr>                <tr>                  <td>Weight Loss Plan</td>                  <td/>                  <td>1/16/2013</td>                  <td>4:24 PM</td>                  <td>diet and exercise counseling provided during visit</td>                </tr>                <tr>                  <td>Weight Loss: Goal</td>                  <td/>                  <td>1/16/2013</td>                  <td>4:24 PM</td>                  <td>Weight Loss</td>                </tr>                <tr>                  <td>Asthma Plan</td>                  <td/>                  <td>1/16/2013</td>                  <td>4:24 PM</td>                  <td>resources/instructions provided during visit</td>                </tr>                <tr>                  <td>Asthma: Goal</td>                  <td/>                  <td>1/16/2013</td>                  <td>4:24 PM</td>                  <td>Asthma management</td>                </tr>              </tbody>            </table>          </div>"
        },
        "mode": "snapshot",
        "entry": [ {
          "reference": "CarePlan/f0be4d84-91dd-4621-a9fc-e6ce93b1da8f"
        } ]
      }, {
        "title": "Vital Signs",
        "code": {
          "coding": [ {
            "system": "http://loinc.org",
            "code": "8716-3",
            "display": "Vital signs"
          } ]
        },
        "text": {
          "status": "additional",
          "div": "<div xmlns=\"http://www.w3.org/1999/xhtml\">            <table border=\"1\">              <thead>                <tr>                  <th>Date</th>                  <th>Time</th>                  <th>BP-Sys(mm[Hg]</th>                  <th>BP-Dia(mm[Hg])</th>                  <th>HR(bpm)</th>                  <th>RR(rpm)</th>                  <th>Temp</th>                  <th>WT</th>                  <th>HT</th>                  <th>BMI</th>                  <th>BSA</th>                  <th>BMI Percentile</th>                  <th>O2 Sat(%)</th>                </tr>              </thead>              <tbody>                <tr>                  <td>1/16/2013</td>                  <td>4:02:00 PM</td>                  <td>150 mmHg</td>                  <td>95 mmHg</td>                  <td/>                  <td/>                  <td/>                  <td>195 lbs</td>                  <td>70 in</td>                  <td>27.9793 kg/m²</td>                  <td>2.0901 m²</td>                  <td/>                  <td/>                </tr>              </tbody>            </table>          </div>"
        },
        "mode": "snapshot",
        "entry": [ {
          "reference": "Observation/79f456e9-e4f3-4db3-8199-4ff662c1a167",
          "display": "BP Diastolic"
        }, {
          "reference": "Observation/45492c57-18ba-4a60-88cb-18d091677c98",
          "display": "Body Mass Index"
        }, {
          "reference": "Observation/b3649b2b-eb55-42e7-8fd9-5bbd2f29fa66",
          "display": "Body Height (Measured)"
        }, {
          "reference": "Observation/ddc32c20-f270-4c0c-b090-4aeb8a81299a",
          "display": "Body Weight (Measured)"
        }, {
          "reference": "Observation/62422483-f779-4954-aaa8-f4e8eb4f0472",
          "display": "BP Systolic"
        } ]
      }, {
        "title": "Medications",
        "code": {
          "coding": [ {
            "system": "http://loinc.org",
            "code": "10160-0",
            "display": "History of medication use"
          } ]
        },
        "text": {
          "status": "additional",
          "div": "<div xmlns=\"http://www.w3.org/1999/xhtml\">            <table border=\"1\">              <thead>                <tr>                  <th colspan=\"5\">Expired</th>                </tr>                <tr>                  <th>Name</th>                  <th>Start Date</th>                  <th>Expiration Date</th>                  <th>SIG</th>                  <th>Comments</th>                </tr>              </thead>              <tbody>                <tr>                  <td>albuterol sulfate Inhalation HFA Aerosol Inhaler 90 mcg/actuation</td>                  <td>7/10/2012</td>                  <td>8/9/2012</td>                  <td>inhale 2 puffs by inhalation route every 6 hours for 30 days prn wheezing</td>                  <td/>                </tr>              </tbody>            </table>          </div>"
        },
        "mode": "snapshot",
        "entry": [ {
          "reference": "MedicationStatement/d4a35e39-d5f0-4f7d-b744-2d261ac5963e",
          "display": "albuterol sulfate Inhalation HFA Aerosol Inhaler 90 mcg/actuation"
        } ]
      }, {
        "title": "History Of Immunizations",
        "code": {
          "coding": [ {
            "system": "http://loinc.org",
            "code": "11369-6",
            "display": "History of immunizations"
          } ]
        },
        "text": {
          "status": "additional",
          "div": "<div xmlns=\"http://www.w3.org/1999/xhtml\">            <table border=\"1\">              <thead>                <tr>                  <th>Name</th>                  <th>Date Admin</th>                  <th>Mfg Name</th>                  <th>Mfg Code</th>                  <th>Trade Name</th>                  <th>Lot#</th>                  <th>Route</th>                  <th>Inj</th>                  <th>Vis Given</th>                  <th>Vis Pub</th>                  <th>CVX</th>                </tr>              </thead>              <tbody>                <tr>                  <td>Influenza</td>                  <td>1/16/2013</td>                  <td>Adams Laboratories</td>                  <td>AD</td>                  <td>Flu-Imune &amp;gt; 12 Years</td>                  <td>6516846541</td>                  <td>Intramuscular</td>                  <td>Left Arm</td>                  <td>8/15/2012</td>                  <td>1/1/2010</td>                  <td>88</td>                </tr>              </tbody>            </table>          </div>"
        },
        "mode": "snapshot",
        "entry": [ {
          "reference": "Immunization/3d80c697-5f72-4727-aefa-ed897945bdc4",
          "display": "Influenza"
        } ]
      }, {
        "title": "History of Procedures",
        "code": {
          "coding": [ {
            "system": "http://loinc.org",
            "code": "47519-4",
            "display": "History of procedures"
          } ]
        },
        "text": {
          "status": "additional",
          "div": "<div xmlns=\"http://www.w3.org/1999/xhtml\">            <table border=\"1\">              <thead>                <tr>                  <th>Date Ordered</th>                  <th>Description</th>                  <th>Order Status</th>                  <th>Result Status</th>                </tr>              </thead>              <tbody>                <tr>                  <td>8/15/2012 12:00 AM</td>                  <td>Influenza virus vaccine, split virus, when administered to individuals 3 years of age and older, for intramuscular use</td>                  <td>Ordered</td>                  <td/>                </tr>              </tbody>            </table>          </div>"
        },
        "mode": "snapshot",
        "entry": [ {
          "reference": "Observation/45af7428-b0d5-4d2a-855e-580197a0f278",
          "display": "Influenza virus vaccine, split virus, when administered to individuals 3 years of age and older, for intramuscular use"
        } ]
      } ]
    }
  }, {
    "resource": {
      "resourceType": "Patient",
      "id": "78a5fc9a-6316-4aa4-8a15-c6ac010af568",
      "extension": [ {
        "url": "http://hl7.org/fhir/us/core/StructureDefinition/us-core-race",
        "extension": [ {
          "url": "text",
          "valueString": "White"
        }, {
          "url": "ombCategory",
          "valueCoding": {
            "system": "urn:oid:2.16.840.1.113883.6.238",
            "code": "2106-3",
            "display": "White"
          }
        } ]
      }, {
        "url": "http://hl7.org/fhir/us/core/StructureDefinition/us-core-ethnicity",
        "extension": [ {
          "url": "text",
          "valueString": "Not Hispanic or Latino"
        }, {
          "url": "ombCategory",
          "valueCoding": {
            "system": "urn:oid:2.16.840.1.113883.6.238",
            "code": "2186-5",
            "display": "Not Hispanic or Latino"
          }
        } ]
      } ],
      "identifier": [ {
        "use": "official",
        "system": "urn:oid:2.16.840.1.113883.3.441.1.50.300011.51",
        "value": "26620"
      } ],
      "name": [ {
        "family": "Everyman",
        "given": [ "Adam", "TOC" ]
      } ],
      "gender": "male",
      "birthDate": "1962-10-22",
      "address": [ {
        "state": "GA",
        "country": "US"
      } ],
      "maritalStatus": {
        "coding": [ {
          "system": "http://terminology.hl7.org/CodeSystem/v3-MaritalStatus",
          "code": "S",
          "display": "Never Married"
        } ]
      },
      "communication": [ {
        "language": {
          "coding": [ {
            "system": "urn:ietf:bcp:47",
            "code": "eng"
          } ]
        }
      } ],
      "managingOrganization": {
        "reference": "Organization/0dc57c1a-fe4d-4571-af71-7c89eb445ec2",
        "display": "Get Well Clinic"
      }
    }
  }, {
    "resource": {
      "resourceType": "Organization",
      "id": "0dc57c1a-fe4d-4571-af71-7c89eb445ec2",
      "identifier": [ {
        "use": "official",
        "system": "urn:oid:2.16.840.1.113883.3.441.1.50",
        "value": "300011"
      } ],
      "name": "Get Well Clinic",
      "telecom": [ {
        "system": "phone",
        "value": "555-555-1004",
        "use": "work"
      } ],
      "address": [ {
        "line": [ "1004 Healthcare Dr. practice" ],
        "city": "Portland",
        "state": "OR",
        "postalCode": "97005",
        "country": "United States"
      } ]
    }
  }, {
    "resource": {
      "resourceType": "Practitioner",
      "id": "9b092e1e-ccf4-4f9e-8453-4e75fd7346f2",
      "identifier": [ {
        "use": "official",
        "system": "urn:oid:2.16.840.1.113883.4.6",
        "value": "9e6b8ba0fb164524972e8f8e9ada786d"
      } ],
      "telecom": [ {
        "system": "phone",
        "value": "555-555-1004",
        "use": "work"
      } ],
      "address": [ {
        "line": [ "1004 Healthcare Dr. practice" ],
        "city": "Portland",
        "state": "OR",
        "postalCode": "97005",
        "country": "United States"
      } ]
    }
  }, {
    "resource": {
      "resourceType": "PractitionerRole",
      "id": "31b527fd-f946-4d8c-987e-6bcd2a648624",
      "practitioner": {
        "reference": "Practitioner/9b092e1e-ccf4-4f9e-8453-4e75fd7346f2"
      },
      "organization": {
        "reference": "Organization/0dc57c1a-fe4d-4571-af71-7c89eb445ec2",
        "display": "Get Well Clinic"
      }
    }
  }, {
    "resource": {
      "resourceType": "Practitioner",
      "id": "a83f4cdf-1ab4-4d63-8502-0f6d5c613053",
      "identifier": [ {
        "use": "official",
        "system": "http://hl7.org/fhir/sid/us-npi",
        "value": "UNK"
      } ]
    }
  }, {
    "resource": {
      "resourceType": "Practitioner",
      "id": "1e2a4343-ccb7-4d49-999e-707b3b5a312b",
      "identifier": [ {
        "use": "official",
        "system": "http://hl7.org/fhir/sid/us-npi",
        "value": "UNK"
      } ],
      "name": [ {
        "family": "Nightingale",
        "given": [ "Nancy" ]
      } ]
    }
  }, {
    "resource": {
      "resourceType": "Practitioner",
      "id": "fd92b1f6-aec1-44fe-83fa-1475523c8139",
      "identifier": [ {
        "use": "official",
        "system": "http://hl7.org/fhir/sid/us-npi",
        "value": "2.16.840.1.113883.4.6"
      } ],
      "name": [ {
        "family": "Khan",
        "given": [ "Samir" ]
      } ]
    }
  }, {
    "resource": {
      "resourceType": "AllergyIntolerance",
      "id": "af565b6a-6099-4d8a-b7cf-26e033fffbbf",
      "identifier": [ {
        "use": "official",
        "system": "urn:oid:2.16.840.1.113883.3.441.1.50.300011.51.26620.57",
        "value": "1253"
      } ],
      "clinicalStatus": {
        "coding": [ {
          "system": "http://terminology.hl7.org/CodeSystem/allergyintolerance-clinical",
          "code": "active",
          "display": "Active"
        } ]
      },
      "verificationStatus": {
        "coding": [ {
          "system": "http://terminology.hl7.org/CodeSystem/allergyintolerance-verification",
          "code": "confirmed",
          "display": "Confirmed"
        } ]
      },
      "type": "allergy",
      "category": [ "environment" ],
      "code": {
        "text": "Codeine Phosphate"
      },
      "patient": {
        "reference": "Patient/78a5fc9a-6316-4aa4-8a15-c6ac010af568",
        "display": "Adam TOC Everyman"
      }
    }
  }, {
    "resource": {
      "resourceType": "AllergyIntolerance",
      "id": "591bb60a-e3cd-4320-a39f-a31e97871407",
      "identifier": [ {
        "use": "official",
        "system": "urn:oid:2.16.840.1.113883.3.441.1.50.300011.51.26620.57",
        "value": "1252"
      } ],
      "clinicalStatus": {
        "coding": [ {
          "system": "http://terminology.hl7.org/CodeSystem/allergyintolerance-clinical",
          "code": "active",
          "display": "Active"
        } ]
      },
      "verificationStatus": {
        "coding": [ {
          "system": "http://terminology.hl7.org/CodeSystem/allergyintolerance-verification",
          "code": "confirmed",
          "display": "Confirmed"
        } ]
      },
      "type": "allergy",
      "category": [ "environment" ],
      "code": {
        "coding": [ {
          "system": "http://www.nlm.nih.gov/research/umls/rxnorm",
          "code": "215674",
          "display": "Bicillin L-A"
        }, {
          "system": "urn:oid:2.16.840.1.113883.6.64",
          "code": "3727",
          "display": "penicillin G benzathine"
        } ],
        "text": "penicillin G benzathine"
      },
      "patient": {
        "reference": "Patient/78a5fc9a-6316-4aa4-8a15-c6ac010af568",
        "display": "Adam TOC Everyman"
      }
    }
  }, {
    "resource": {
      "resourceType": "DiagnosticReport",
      "id": "b9a373a2-1c0a-4226-a17f-cc3058c5698e",
      "identifier": [ {
        "use": "official",
        "system": "urn:oid:2.16.840.1.113883.3.441.1.50.300011.51.26620.54",
        "value": "2323"
      } ],
      "status": "final",
      "category": [ {
        "coding": [ {
          "system": "http://terminology.hl7.org/CodeSystem/v2-0074",
          "code": "LAB",
          "display": "Laboratory"
        } ]
      } ],
      "subject": {
        "reference": "Patient/78a5fc9a-6316-4aa4-8a15-c6ac010af568",
        "display": "Adam TOC Everyman"
      },
      "effectivePeriod": {
        "start": "2013-01-16T15:52:22+01:00"
      },
      "issued": "2013-01-16T15:52:22.000+01:00",
      "result": [ {
        "reference": "Observation/ca622cfd-5c3f-4f10-873e-12f970b54375"
      } ]
    }
  }, {
    "resource": {
      "resourceType": "Observation",
      "id": "ca622cfd-5c3f-4f10-873e-12f970b54375",
      "identifier": [ {
        "use": "official",
        "system": "urn:oid:2.16.840.1.113883.3.441.1.50.300011.51.26620.54",
        "value": "2323"
      } ],
      "status": "final",
      "category": [ {
        "coding": [ {
          "system": "http://terminology.hl7.org/CodeSystem/observation-category",
          "code": "laboratory"
        } ]
      } ],
      "subject": {
        "reference": "Patient/78a5fc9a-6316-4aa4-8a15-c6ac010af568",
        "display": "Adam TOC Everyman"
      },
      "effectivePeriod": {
        "start": "2013-01-16T15:52:22+01:00"
      },
      "valueString": "RN Nightingale, Nancy"
    }
  }, {
    "resource": {
      "resourceType": "DiagnosticReport",
      "id": "93e8d620-d04f-46a0-9770-f867c5d10246",
      "identifier": [ {
        "use": "official",
        "system": "urn:oid:2.16.840.1.113883.3.441.1.50.300011.51.26620.54",
        "value": "2336"
      } ],
      "status": "final",
      "category": [ {
        "coding": [ {
          "system": "http://terminology.hl7.org/CodeSystem/v2-0074",
          "code": "LAB",
          "display": "Laboratory"
        } ]
      } ],
      "subject": {
        "reference": "Patient/78a5fc9a-6316-4aa4-8a15-c6ac010af568",
        "display": "Adam TOC Everyman"
      },
      "effectivePeriod": {
        "start": "2013-01-16T16:28:07+01:00"
      },
      "issued": "2013-01-16T16:28:07.000+01:00",
      "result": [ {
        "reference": "Observation/0c6ba961-a6ce-4deb-8ced-4089a7f309b6",
        "display": "CO2 SerPl-sCnc"
      } ]
    }
  }, {
    "resource": {
      "resourceType": "Observation",
      "id": "0c6ba961-a6ce-4deb-8ced-4089a7f309b6",
      "identifier": [ {
        "use": "official",
        "system": "urn:oid:2.16.840.1.113883.3.441.1.50.300011.51.26620.54",
        "value": "2336"
      } ],
      "status": "final",
      "category": [ {
        "coding": [ {
          "system": "http://terminology.hl7.org/CodeSystem/observation-category",
          "code": "laboratory"
        } ]
      } ],
      "code": {
        "coding": [ {
          "system": "http://loinc.org",
          "code": "2028-9",
          "display": "CO2 SerPl-sCnc"
        } ]
      },
      "subject": {
        "reference": "Patient/78a5fc9a-6316-4aa4-8a15-c6ac010af568",
        "display": "Adam TOC Everyman"
      },
      "effectivePeriod": {
        "start": "2013-01-16T16:28:07+01:00"
      },
      "valueQuantity": {
        "value": 25.0,
        "unit": "mmol/L",
        "system": "http://unitsofmeasure.org",
        "code": "mmol/L"
      }
    }
  }, {
    "resource": {
      "resourceType": "DiagnosticReport",
      "id": "274a2f9d-09f8-4ff3-b517-9a20415c6400",
      "identifier": [ {
        "use": "official",
        "system": "urn:oid:2.16.840.1.113883.3.441.1.50.300011.51.26620.54",
        "value": "2324"
      } ],
      "status": "final",
      "category": [ {
        "coding": [ {
          "system": "http://terminology.hl7.org/CodeSystem/v2-0074",
          "code": "LAB",
          "display": "Laboratory"
        } ]
      } ],
      "subject": {
        "reference": "Patient/78a5fc9a-6316-4aa4-8a15-c6ac010af568",
        "display": "Adam TOC Everyman"
      },
      "effectivePeriod": {
        "start": "2013-01-16T15:52:22+01:00"
      },
      "issued": "2013-01-16T15:52:22.000+01:00",
      "result": [ {
        "reference": "Observation/e9a8fb02-0cb6-41b8-9aee-e8935999bab8"
      } ]
    }
  }, {
    "resource": {
      "resourceType": "Observation",
      "id": "e9a8fb02-0cb6-41b8-9aee-e8935999bab8",
      "identifier": [ {
        "use": "official",
        "system": "urn:oid:2.16.840.1.113883.3.441.1.50.300011.51.26620.54",
        "value": "2324"
      } ],
      "status": "final",
      "category": [ {
        "coding": [ {
          "system": "http://terminology.hl7.org/CodeSystem/observation-category",
          "code": "laboratory"
        } ]
      } ],
      "subject": {
        "reference": "Patient/78a5fc9a-6316-4aa4-8a15-c6ac010af568",
        "display": "Adam TOC Everyman"
      },
      "effectivePeriod": {
        "start": "2013-01-16T15:52:22+01:00"
      },
      "valueString": "MD Khan, Samir"
    }
  }, {
    "resource": {
      "resourceType": "Observation",
      "id": "83104bf5-62c8-4ed5-b640-64b52c67db30",
      "identifier": [ {
        "use": "official",
        "system": "urn:oid:2.16.840.1.113883.3.441.1.50.300011.51.26620.68",
        "value": "1272"
      } ],
      "status": "final",
      "code": {
        "coding": [ {
          "system": "urn:oid:2.16.840.1.113883.5.4",
          "code": "ASSERTION"
        } ]
      },
      "subject": {
        "reference": "Patient/78a5fc9a-6316-4aa4-8a15-c6ac010af568",
        "display": "Adam TOC Everyman"
      },
      "effectivePeriod": {
        "start": "1900-01-01T00:00:00+01:00"
      },
      "valueCodeableConcept": {
        "coding": [ {
          "system": "http://snomed.info/sct",
          "code": "266919005",
          "display": "Never smoker"
        } ]
      }
    }
  }, {
    "resource": {
      "resourceType": "Condition",
      "id": "9b10121c-b1a4-4309-856c-c8ac7eb2eb04",
      "identifier": [ {
        "use": "official",
        "system": "urn:oid:2.16.840.1.113883.3.441.1.50.300011.51.26620.61",
        "value": "1366"
      } ],
      "clinicalStatus": {
        "coding": [ {
          "system": "http://terminology.hl7.org/CodeSystem/condition-clinical",
          "code": "active",
          "display": "Active"
        } ]
      },
      "verificationStatus": {
        "coding": [ {
          "system": "http://terminology.hl7.org/CodeSystem/condition-ver-status",
          "code": "confirmed",
          "display": "Confirmed"
        } ]
      },
      "category": [ {
        "coding": [ {
          "system": "http://terminology.hl7.org/CodeSystem/condition-category",
          "code": "problem-list-item",
          "display": "Problem List Item"
        } ]
      } ],
      "subject": {
        "reference": "Patient/78a5fc9a-6316-4aa4-8a15-c6ac010af568",
        "display": "Adam TOC Everyman"
      }
    }
  }, {
    "resource": {
      "resourceType": "Condition",
      "id": "2ab0edfa-f1be-4e63-97a5-4d689e17c23f",
      "identifier": [ {
        "use": "official",
        "system": "urn:oid:2.16.840.1.113883.3.441.1.50.300011.51.26620.61",
        "value": "1367"
      } ],
      "clinicalStatus": {
        "coding": [ {
          "system": "http://terminology.hl7.org/CodeSystem/condition-clinical",
          "code": "active",
          "display": "Active"
        } ]
      },
      "verificationStatus": {
        "coding": [ {
          "system": "http://terminology.hl7.org/CodeSystem/condition-ver-status",
          "code": "confirmed",
          "display": "Confirmed"
        } ]
      },
      "category": [ {
        "coding": [ {
          "system": "http://terminology.hl7.org/CodeSystem/condition-category",
          "code": "problem-list-item",
          "display": "Problem List Item"
        } ]
      } ],
      "subject": {
        "reference": "Patient/78a5fc9a-6316-4aa4-8a15-c6ac010af568",
        "display": "Adam TOC Everyman"
      }
    }
  }, {
    "resource": {
      "resourceType": "CarePlan",
      "id": "f0be4d84-91dd-4621-a9fc-e6ce93b1da8f",
      "text": {
        "status": "additional",
        "div": "<div xmlns=\"http://www.w3.org/1999/xhtml\">            <table border=\"1\">              <thead>                <tr>                  <th>Planned Activity</th>                  <th>Comments</th>                  <th>Planned Date</th>                  <th>Planned Time</th>                  <th>Plan/Goal</th>                </tr>              </thead>              <tbody>                <tr>                  <td>Pulmonary function tests</td>                  <td/>                  <td/>                  <td/>                  <td/>                </tr>                <tr>                  <td>Weight Loss Plan</td>                  <td/>                  <td>1/16/2013</td>                  <td>4:24 PM</td>                  <td>diet and exercise counseling provided during visit</td>                </tr>                <tr>                  <td>Weight Loss: Goal</td>                  <td/>                  <td>1/16/2013</td>                  <td>4:24 PM</td>                  <td>Weight Loss</td>                </tr>                <tr>                  <td>Asthma Plan</td>                  <td/>                  <td>1/16/2013</td>                  <td>4:24 PM</td>                  <td>resources/instructions provided during visit</td>                </tr>                <tr>                  <td>Asthma: Goal</td>                  <td/>                  <td>1/16/2013</td>                  <td>4:24 PM</td>                  <td>Asthma management</td>                </tr>              </tbody>            </table>          </div>"
      },
      "status": "active",
      "intent": "plan",
      "category": [ {
        "coding": [ {
          "system": "http://hl7.org/fhir/us/core/CodeSystem/careplan-category",
          "code": "assess-plan"
        } ]
      } ],
      "title": "Plan of Treatment",
      "description": "<div>            <table border=\"1\">              <thead>                <tr>                  <th>Planned Activity</th>                  <th>Comments</th>                  <th>Planned Date</th>                  <th>Planned Time</th>                  <th>Plan/Goal</th>                </tr>              </thead>              <tbody>                <tr>                  <td>Pulmonary function tests</td>                  <td></td>                  <td></td>                  <td></td>                  <td></td>                </tr>                <tr>                  <td>Weight Loss Plan</td>                  <td></td>                  <td>1/16/2013</td>                  <td>4:24 PM</td>                  <td>diet and exercise counseling provided during visit</td>                </tr>                <tr>                  <td>Weight Loss: Goal</td>                  <td></td>                  <td>1/16/2013</td>                  <td>4:24 PM</td>                  <td>Weight Loss</td>                </tr>                <tr>                  <td>Asthma Plan</td>                  <td></td>                  <td>1/16/2013</td>                  <td>4:24 PM</td>                  <td>resources/instructions provided during visit</td>                </tr>                <tr>                  <td>Asthma: Goal</td>                  <td></td>                  <td>1/16/2013</td>                  <td>4:24 PM</td>                  <td>Asthma management</td>                </tr>              </tbody>            </table>          </div>",
      "subject": {
        "reference": "Patient/78a5fc9a-6316-4aa4-8a15-c6ac010af568",
        "display": "Adam TOC Everyman"
      }
    }
  }, {
    "resource": {
      "resourceType": "Observation",
      "id": "79f456e9-e4f3-4db3-8199-4ff662c1a167",
      "identifier": [ {
        "use": "official",
        "system": "urn:oid:2.16.840.1.113883.3.441.1.50.300011.51.26620.55",
        "value": "2325"
      } ],
      "status": "final",
      "category": [ {
        "coding": [ {
          "system": "http://terminology.hl7.org/CodeSystem/observation-category",
          "code": "vital-signs",
          "display": "Vital Signs"
        } ]
      } ],
      "code": {
        "coding": [ {
          "system": "http://loinc.org",
          "code": "8462-4",
          "display": "BP Diastolic"
        } ]
      },
      "subject": {
        "reference": "Patient/78a5fc9a-6316-4aa4-8a15-c6ac010af568",
        "display": "Adam TOC Everyman"
      },
      "effectivePeriod": {
        "start": "2013-01-16T16:02:00+01:00"
      },
      "valueQuantity": {
        "value": 95,
        "unit": "mm[Hg]",
        "system": "http://unitsofmeasure.org",
        "code": "mm[Hg]"
      }
    }
  }, {
    "resource": {
      "resourceType": "Observation",
      "id": "45492c57-18ba-4a60-88cb-18d091677c98",
      "identifier": [ {
        "use": "official",
        "system": "urn:oid:2.16.840.1.113883.3.441.1.50.300011.51.26620.55",
        "value": "2327"
      } ],
      "status": "final",
      "category": [ {
        "coding": [ {
          "system": "http://terminology.hl7.org/CodeSystem/observation-category",
          "code": "vital-signs",
          "display": "Vital Signs"
        } ]
      } ],
      "code": {
        "coding": [ {
          "system": "http://loinc.org",
          "code": "39156-5",
          "display": "Body Mass Index"
        } ]
      },
      "subject": {
        "reference": "Patient/78a5fc9a-6316-4aa4-8a15-c6ac010af568",
        "display": "Adam TOC Everyman"
      },
      "effectivePeriod": {
        "start": "2013-01-16T16:02:00+01:00"
      },
      "valueQuantity": {
        "value": 27.9793,
        "unit": "kg/m²",
        "system": "http://unitsofmeasure.org",
        "code": "kg/m²"
      }
    }
  }, {
    "resource": {
      "resourceType": "Observation",
      "id": "b3649b2b-eb55-42e7-8fd9-5bbd2f29fa66",
      "identifier": [ {
        "use": "official",
        "system": "urn:oid:2.16.840.1.113883.3.441.1.50.300011.51.26620.55",
        "value": "2329"
      } ],
      "status": "final",
      "category": [ {
        "coding": [ {
          "system": "http://terminology.hl7.org/CodeSystem/observation-category",
          "code": "vital-signs",
          "display": "Vital Signs"
        } ]
      } ],
      "code": {
        "coding": [ {
          "system": "http://loinc.org",
          "code": "8302-2",
          "display": "Body Height (Measured)"
        } ]
      },
      "subject": {
        "reference": "Patient/78a5fc9a-6316-4aa4-8a15-c6ac010af568",
        "display": "Adam TOC Everyman"
      },
      "effectivePeriod": {
        "start": "2013-01-16T16:02:00+01:00"
      },
      "valueQuantity": {
        "value": 70,
        "unit": "[in_us]",
        "system": "http://unitsofmeasure.org",
        "code": "[in_us]"
      }
    }
  }, {
    "resource": {
      "resourceType": "Observation",
      "id": "ddc32c20-f270-4c0c-b090-4aeb8a81299a",
      "identifier": [ {
        "use": "official",
        "system": "urn:oid:2.16.840.1.113883.3.441.1.50.300011.51.26620.55",
        "value": "2330"
      } ],
      "status": "final",
      "category": [ {
        "coding": [ {
          "system": "http://terminology.hl7.org/CodeSystem/observation-category",
          "code": "vital-signs",
          "display": "Vital Signs"
        } ]
      } ],
      "code": {
        "coding": [ {
          "system": "http://loinc.org",
          "code": "3141-9",
          "display": "Body Weight (Measured)"
        } ]
      },
      "subject": {
        "reference": "Patient/78a5fc9a-6316-4aa4-8a15-c6ac010af568",
        "display": "Adam TOC Everyman"
      },
      "effectivePeriod": {
        "start": "2013-01-16T16:02:00+01:00"
      },
      "valueQuantity": {
        "value": 195,
        "unit": "[lb_av]",
        "system": "http://unitsofmeasure.org",
        "code": "[lb_av]"
      }
    }
  }, {
    "resource": {
      "resourceType": "Observation",
      "id": "62422483-f779-4954-aaa8-f4e8eb4f0472",
      "identifier": [ {
        "use": "official",
        "system": "urn:oid:2.16.840.1.113883.3.441.1.50.300011.51.26620.55",
        "value": "2326"
      } ],
      "status": "final",
      "category": [ {
        "coding": [ {
          "system": "http://terminology.hl7.org/CodeSystem/observation-category",
          "code": "vital-signs",
          "display": "Vital Signs"
        } ]
      } ],
      "code": {
        "coding": [ {
          "system": "http://loinc.org",
          "code": "8480-6",
          "display": "BP Systolic"
        } ]
      },
      "subject": {
        "reference": "Patient/78a5fc9a-6316-4aa4-8a15-c6ac010af568",
        "display": "Adam TOC Everyman"
      },
      "effectivePeriod": {
        "start": "2013-01-16T16:02:00+01:00"
      },
      "valueQuantity": {
        "value": 150,
        "unit": "mm[Hg]",
        "system": "http://unitsofmeasure.org",
        "code": "mm[Hg]"
      }
    }
  }, {
    "resource": {
      "resourceType": "MedicationStatement",
      "id": "d4a35e39-d5f0-4f7d-b744-2d261ac5963e",
      "extension": [ {
        "url": "http://hl7.org/fhir/3.0/StructureDefinition/extension-MedicationStatement.status",
        "valueCode": "UNKNOWN"
      } ],
      "identifier": [ {
        "use": "official",
        "system": "urn:oid:2.16.840.1.113883.3.441.1.50.300011.51.26620.58",
        "value": "1803"
      } ],
      "status": "completed",
      "medicationReference": {
        "reference": "Medication/1886d5e8-8045-4ced-aa3f-2b997f3fcc0c",
        "display": "albuterol sulfate Inhalation HFA Aerosol Inhaler 90 mcg/actuation"
      },
      "subject": {
        "reference": "Patient/78a5fc9a-6316-4aa4-8a15-c6ac010af568",
        "display": "Adam TOC Everyman"
      },
      "effectivePeriod": {
        "start": "2012-07-10T00:00:00+02:00",
        "end": "2012-08-09T00:00:00+02:00"
      },
      "dosage": [ {
        "doseAndRate": [ {
          "doseQuantity": {
            "value": 2,
            "unit": "Inhaler",
            "system": "http://unitsofmeasure.org/ucum.html"
          }
        } ]
      } ]
    }
  }, {
    "resource": {
      "resourceType": "Medication",
      "id": "1886d5e8-8045-4ced-aa3f-2b997f3fcc0c",
      "code": {
        "coding": [ {
          "code": "279394",
          "display": "albuterol sulfate Inhalation HFA Aerosol Inhaler 90 mcg/actuation"
        }, {
          "system": "http://www.nlm.nih.gov/research/umls/rxnorm",
          "code": "745679",
          "display": "200 ACTUAT Albuterol 0.09 MG/ACTUAT Metered Dose Inhaler"
        } ],
        "text": "albuterol sulfate Inhalation HFA Aerosol Inhaler 90 mcg/actuation"
      }
    }
  }, {
    "resource": {
      "resourceType": "Immunization",
      "id": "3d80c697-5f72-4727-aefa-ed897945bdc4",
      "identifier": [ {
        "use": "official",
        "system": "urn:oid:2.16.840.1.113883.3.441.1.50.300011.51.26620.60",
        "value": "1165"
      } ],
      "status": "completed",
      "vaccineCode": {
        "coding": [ {
          "system": "http://www2a.cdc.gov/vaccines/iis/iisstandards/vaccines.asp?rpt=cvx",
          "code": "88",
          "display": "influenza, NOS"
        } ],
        "text": "Influenza"
      },
      "patient": {
        "reference": "Patient/78a5fc9a-6316-4aa4-8a15-c6ac010af568",
        "display": "Adam TOC Everyman"
      },
      "occurrenceDateTime": "2013-01-16T00:00:00+01:00",
      "primarySource": true,
      "lotNumber": "6516846541",
      "doseQuantity": {
        "value": 0.5,
        "unit": "ml",
        "system": "http://unitsofmeasure.org/ucum.html"
      },
      "performer": [ {
        "function": {
          "coding": [ {
            "system": "http://hl7.org/fhir/v2/0443",
            "code": "AP",
            "display": "Administering Provider"
          } ]
        },
        "actor": {
          "reference": "Practitioner/c463ebd7-bd24-4c85-81a8-cf72240e97bc",
          "display": "Kati Odom"
        }
      } ]
    }
  }, {
    "resource": {
      "resourceType": "Practitioner",
      "id": "c463ebd7-bd24-4c85-81a8-cf72240e97bc",
      "identifier": [ {
        "use": "official",
        "system": "urn:oid:2.16.840.1.113883.3.441",
        "value": "44148dc72eaf4c169fa2a757ac9f9289"
      } ],
      "name": [ {
        "family": "Odom",
        "given": [ "Kati" ]
      } ],
      "telecom": [ {
        "system": "phone",
        "value": "777-777-7777"
      } ],
      "address": [ {
        "line": [ "123 Road" ],
        "city": "Carrollton",
        "state": "GA",
        "postalCode": "30117",
        "country": "United States"
      } ]
    }
  }, {
    "resource": {
      "resourceType": "PractitionerRole",
      "id": "2329a272-72cd-4df5-94ab-ff482f7c2256",
      "practitioner": {
        "reference": "Practitioner/c463ebd7-bd24-4c85-81a8-cf72240e97bc",
        "display": "Kati Odom"
      },
      "organization": {
        "reference": "Organization/ae87be0f-18e3-4f8c-83fa-1d83b22617f7"
      }
    }
  }, {
    "resource": {
      "resourceType": "Organization",
      "id": "ae87be0f-18e3-4f8c-83fa-1d83b22617f7",
      "identifier": [ {
        "use": "official",
        "system": "urn:oid:2.16.840.1.113883.3.441",
        "value": "14f5a21712c24d95a66f838c6687c54c"
      } ],
      "telecom": [ {
        "system": "phone",
        "value": "777-777-7777",
        "use": "work"
      } ],
      "address": [ {
        "line": [ "123 Road" ],
        "city": "Carrollton",
        "state": "GA",
        "postalCode": "30117",
        "country": "United States"
      } ]
    }
  }, {
    "resource": {
      "resourceType": "Observation",
      "id": "45af7428-b0d5-4d2a-855e-580197a0f278",
      "identifier": [ {
        "use": "official",
        "system": "urn:oid:2.16.840.1.113883.3.441.1.50.300011.51.26620.53",
        "value": "61273"
      } ],
      "status": "final",
      "code": {
        "coding": [ {
          "system": "http://www.ama-assn.org/go/cpt",
          "code": "90658",
          "display": "INFLUENZA VIRUS VACCINE SPLIT VIRUS 3/> YRS IM"
        } ],
        "text": "Influenza virus vaccine, split virus, when administered to individuals 3 years of age and older, for intramuscular use"
      },
      "subject": {
        "reference": "Patient/78a5fc9a-6316-4aa4-8a15-c6ac010af568",
        "display": "Adam TOC Everyman"
      },
      "effectivePeriod": {
        "start": "2012-08-15T00:00:00+02:00"
      },
      "dataAbsentReason": {
        "coding": [ {
          "system": "http://hl7.org/fhir/data-absent-reason",
          "code": "error",
          "display": "Error"
        } ]
      }
    }
  } ]
}