{
  "resourceType": "Bundle",
  "entry": [ {
    "resource": {
      "resourceType": "Composition",
      "id": "dafa9cdc-7e09-45f5-8a48-a79898a09be2",
      "identifier": {
        "use": "official",
        "system": "urn:oid:2.16.840.1.113883.3.441",
        "value": "c8888da9f87a41a9955609d61e86efcb"
      },
      "status": "preliminary",
      "type": {
        "coding": [ {
          "system": "http://loinc.org",
          "code": "34133-9",
          "display": "Summarization of episode note"
        } ]
      },
      "category": [ {
        "coding": [ {
          "system": "http://hl7.org/fhir/ValueSet/doc-classcodes",
          "code": "LP173421-7",
          "display": "Note"
        } ]
      } ],
      "subject": {
        "reference": "Patient/5557df15-8a46-4ca4-8b85-d7e772a84a02",
        "display": "Three ClinicalSummary"
      },
      "date": "2013-07-01T10:34:48-04:00",
      "author": [ {
        "reference": "Practitioner/25be2eb6-e3ad-47a1-8082-6e0abc0b368a"
      } ],
      "title": "MU2 Export Summary",
      "confidentiality": "N",
      "custodian": {
        "reference": "Organization/c0c57baf-df4c-40d0-b7d3-47e93e9b44a3",
        "display": "Get Well Clinic"
      },
      "event": [ {
        "detail": [ {
          "reference": "Practitioner/53f0aa0e-0a57-4540-a8b2-6cd37e839200"
        }, {
          "reference": "Practitioner/cc01b40e-259c-4a3c-914b-99496497ce2b",
          "display": "James Ingram, M.D."
        }, {
          "reference": "Practitioner/772f91d3-6729-421e-93f6-85a4cb40d237",
          "display": "Henry Seven, M.D."
        }, {
          "reference": "Practitioner/fb0ff315-f1b7-4bc7-b684-93427975b64a",
          "display": "Penny Puffer, M.D."
        } ]
      } ],
      "section": [ {
        "title": "Medications",
        "code": {
          "coding": [ {
            "system": "http://loinc.org",
            "code": "10160-0",
            "display": "History of medication use"
          } ]
        },
        "text": {
          "status": "additional",
          "div": "<div xmlns=\"http://www.w3.org/1999/xhtml\">            <table border=\"1\">              <thead>                <tr>                  <th colspan=\"5\">Active</th>                </tr>                <tr>                  <th>Name</th>                  <th>Start Date</th>                  <th>Estimated Completion Date</th>                  <th>SIG</th>                  <th>Comments</th>                </tr>              </thead>              <tbody>                <tr>                  <td>Dilaudid Oral Tablet 2 mg</td>                  <td>                  </td>                  <td>                  </td>                  <td>take 1 tablet (2 mg) by oral route every 6 hours as needed</td>                  <td>                  </td>                </tr>                <tr>                  <td>Demerol Injection Solution 50 mg/mL</td>                  <td>                  </td>                  <td>                  </td>                  <td>inject 1 milliliter now in offce</td>                  <td>                  </td>                </tr>              </tbody>            </table>            <table border=\"1\">              <thead>                <tr>                  <th colspan=\"5\">Expired</th>                </tr>                <tr>                  <th>Name</th>                  <th>Start Date</th>                  <th>Expiration Date</th>                  <th>SIG</th>                  <th>Comments</th>                </tr>              </thead>              <tbody>                <tr>                  <td>Anusol-HC Rectal Suppository 25 mg</td>                  <td>1/22/2013</td>                  <td>1/29/2013</td>                  <td>insert 1 suppository (25 mg) by rectal route 3 times per day for 7 days</td>                  <td>                  </td>                </tr>                <tr>                  <td>Lortab Oral Tablet 10-500 mg</td>                  <td>1/22/2013</td>                  <td>2/1/2013</td>                  <td>take 1 tablet by oral route every 4-6 hours as needed for pain for 10 days</td>                  <td>                  </td>                </tr>              </tbody>            </table>          </div>"
        },
        "mode": "snapshot",
        "entry": [ {
          "reference": "MedicationStatement/491bae6a-a39e-4bc5-ad0e-cf7f608f6c1f",
          "display": "Demerol Injection Solution 50 mg/mL"
        }, {
          "reference": "MedicationStatement/c3679389-7c10-45c5-9e05-90c9268c31af",
          "display": "Dilaudid Oral Tablet 2 mg"
        } ]
      }, {
        "title": "Social History",
        "code": {
          "coding": [ {
            "system": "http://loinc.org",
            "code": "29762-2",
            "display": "Social history"
          } ]
        },
        "text": {
          "status": "additional",
          "div": "<div xmlns=\"http://www.w3.org/1999/xhtml\">            <table border=\"1\">              <thead>                <tr>                  <th>Name</th>                  <th>Status</th>                  <th>Comments</th>                </tr>              </thead>              <tbody>                <tr>                  <td>Tobacco</td>                  <td>Heavy</td>                  <td>1 ppd for 30 years </td>                </tr>              </tbody>            </table>          </div>"
        },
        "mode": "snapshot",
        "entry": [ {
          "reference": "Observation/ae45ebcf-3f8e-4002-afe8-94dc3ae52462"
        } ]
      }, {
        "title": "Results Summary",
        "code": {
          "coding": [ {
            "system": "http://loinc.org",
            "code": "30954-2",
            "display": "Relevant diagnostic tests and/or laboratory data"
          } ]
        },
        "text": {
          "status": "additional",
          "div": "<div xmlns=\"http://www.w3.org/1999/xhtml\">            <table border=\"1\">              <thead>                <tr>                  <th>Data and Description</th>                  <th>Results</th>                </tr>              </thead>              <tbody>                <tr>                  <td>1/22/2013 8:59 AM</td>                  <td>                    <ul>                      <li>Hgb Bld-mCnc 12.60 g/dL</li>                      <li>Hct Fr Bld Auto 44.50 %</li>                      <li>WBC # Bld Auto 12.80 x10E3/uL</li>                      <li>Platelet # Bld Auto 394.0 x10E3/uL</li>                    </ul>                  </td>                </tr>                <tr>                  <td>1/22/2013 8:59 AM</td>                  <td>                    <ul>                      <li>Cholest SerPl-mCnc 299.0 mg/dL</li>                      <li>HDLc SerPl-mCnc 18.0 mg/dL</li>                      <li>LDLc SerPl-mCnc 189.0 mg/dL</li>                      <li>PreB-LP SerPl-mCnc 35.0 mg/dL</li>                      <li>Trigl SerPl-mCnc 5000.0 mg/dL</li>                      <li>CRP SerPl High Sens-mCnc 1.80 mg/L</li>                    </ul>                  </td>                </tr>              </tbody>            </table>          </div>"
        },
        "mode": "snapshot",
        "entry": [ {
          "reference": "DiagnosticReport/85cfd59c-c1ff-4a1c-9e2e-257af290510d"
        }, {
          "reference": "DiagnosticReport/8b2cdb4b-fcf9-4d77-8b2a-4664a19902ac"
        }, {
          "reference": "DiagnosticReport/1d78518d-ca41-462d-859c-f472a3c4bb9b"
        }, {
          "reference": "DiagnosticReport/0321be42-635c-4839-94a3-41ba9b32efea"
        }, {
          "reference": "DiagnosticReport/bc00fc85-bd0d-4cee-b84e-839cd822593e"
        }, {
          "reference": "DiagnosticReport/0a52f499-3922-4c67-af9e-d272d4250195"
        }, {
          "reference": "DiagnosticReport/71cb7e51-af4b-43e7-8f08-6371a66c5418"
        }, {
          "reference": "DiagnosticReport/0cb3f89d-340c-4321-81fc-0b45cce8b295"
        }, {
          "reference": "DiagnosticReport/7a0caa7e-7a61-4f1d-8eb6-02d2a83fb23a"
        }, {
          "reference": "DiagnosticReport/9688d1dc-e1ae-417e-8bbc-f3b84add0b0b"
        } ]
      }, {
        "title": "Plan of Treatment",
        "code": {
          "coding": [ {
            "system": "http://loinc.org",
            "code": "18776-5",
            "display": "Treatment Plan"
          } ]
        },
        "text": {
          "status": "additional",
          "div": "<div xmlns=\"http://www.w3.org/1999/xhtml\">            <table border=\"1\">              <thead>                <tr>                  <th>Planned Activity</th>                  <th>Comments</th>                  <th>Planned Date</th>                  <th>Planned Time</th>                  <th>Plan/Goal</th>                </tr>              </thead>              <tbody>                <tr>                  <td>For colonscopy and hemorrhoidectomy</td>                  <td>                  </td>                  <td>1/29/2013</td>                  <td>4:00 PM</td>                  <td>                  </td>                </tr>                <tr>                  <td>Smoking Cessation Plan</td>                  <td>                  </td>                  <td>1/22/2013</td>                  <td>8:58 AM</td>                  <td>Resources and instructions provided during visit</td>                </tr>                <tr>                  <td>Smoking Cessation: Goal</td>                  <td>                  </td>                  <td>1/22/2013</td>                  <td>8:58 AM</td>                  <td>Quit smoking</td>                </tr>                <tr>                  <td>Weight Loss Plan</td>                  <td>                  </td>                  <td>1/22/2013</td>                  <td>8:58 AM</td>                  <td>Resources and instructions provided during visit.</td>                </tr>                <tr>                  <td>Weight Loss: Goal</td>                  <td>                  </td>                  <td>1/22/2013</td>                  <td>8:58 AM</td>                  <td>BMI &amp;lt; 25</td>                </tr>                <tr>                  <td>Blood Pressure Management Plan</td>                  <td>                  </td>                  <td>1/22/2013</td>                  <td>8:58 AM</td>                  <td>Advised patient to avoid supplemental salt.</td>                </tr>                <tr>                  <td>Blood Pressure Management: Goal</td>                  <td>                  </td>                  <td>1/22/2013</td>                  <td>8:58 AM</td>                  <td>No longer hypertensive</td>                </tr>                <tr>                  <td>Arthritis panel</td>                  <td>                  </td>                  <td>1/22/2013</td>                  <td>12:00 AM</td>                  <td>                  </td>                </tr>                <tr>                  <td>Urinalysis (Dipstick, with microscopy)</td>                  <td>                  </td>                  <td>1/22/2013</td>                  <td>12:00 AM</td>                  <td>                  </td>                </tr>                <tr>                  <td>Lipid panel</td>                  <td>                  </td>                  <td>3/20/2013</td>                  <td>12:00 AM</td>                  <td>                  </td>                </tr>                <tr>                  <td>Lipid panel</td>                  <td>                  </td>                  <td>3/20/2013</td>                  <td>12:00 AM</td>                  <td>                  </td>                </tr>              </tbody>            </table>          </div>"
        },
        "mode": "snapshot",
        "entry": [ {
          "reference": "CarePlan/045fc1f4-936b-41f7-9e72-108985580071"
        } ]
      }, {
        "title": "History Of Immunizations",
        "code": {
          "coding": [ {
            "system": "http://loinc.org",
            "code": "11369-6",
            "display": "History of immunizations"
          } ]
        },
        "text": {
          "status": "additional",
          "div": "<div xmlns=\"http://www.w3.org/1999/xhtml\">            <table border=\"1\">              <thead>                <tr>                  <th>Name</th>                  <th>Date Admin</th>                  <th>Mfg Name</th>                  <th>Mfg Code</th>                  <th>Trade Name</th>                  <th>Lot#</th>                  <th>Route</th>                  <th>Inj</th>                  <th>Vis Given</th>                  <th>Vis Pub</th>                  <th>CVX</th>                </tr>              </thead>              <tbody>                <tr>                  <td>Influenza Adult</td>                  <td>1/22/2013</td>                  <td>Abbott Laboratories</td>                  <td>AB</td>                  <td>Flulaval</td>                  <td>werwer444</td>                  <td>Intramuscular</td>                  <td>Left Gluteous Medius</td>                  <td>1/22/2013</td>                  <td>1/18/2007</td>                  <td>88</td>                </tr>              </tbody>            </table>          </div>"
        },
        "mode": "snapshot",
        "entry": [ {
          "reference": "Immunization/294ceffa-dbc9-4272-b9ef-83eca633d402",
          "display": "Influenza Adult"
        } ]
      }, {
        "title": "Functional Status Assessment",
        "code": {
          "coding": [ {
            "system": "http://loinc.org",
            "code": "47420-5",
            "display": "Functional status assessment"
          } ]
        },
        "text": {
          "status": "additional",
          "div": "<div xmlns=\"http://www.w3.org/1999/xhtml\">            <table border=\"1\">              <thead>                <tr>                  <th>Functional Condition</th>                  <th>Type</th>                </tr>              </thead>              <tbody>                <tr>                  <td>Memory Impairment</td>                  <td>Cognitive</td>                </tr>                <tr>                  <td>Has significant physical impairment</td>                  <td>Functional</td>                </tr>              </tbody>            </table>          </div>"
        },
        "mode": "snapshot"
      }, {
        "title": "History of Procedures",
        "code": {
          "coding": [ {
            "system": "http://loinc.org",
            "code": "47519-4",
            "display": "History of procedures"
          } ]
        },
        "text": {
          "status": "additional",
          "div": "<div xmlns=\"http://www.w3.org/1999/xhtml\">            <table border=\"1\">              <thead>                <tr>                  <th>Date Ordered</th>                  <th>Description</th>                  <th>Order Status</th>                  <th>Result Status</th>                </tr>              </thead>              <tbody>                <tr>                  <td>1/22/2013 12:00 AM</td>                  <td>Arthritis panel</td>                  <td>Pending</td>                  <td>                  </td>                </tr>                <tr>                  <td>1/22/2013 12:00 AM</td>                  <td>Urinalysis (Dipstick, with microscopy)</td>                  <td>Reviewed</td>                  <td>                  </td>                </tr>                <tr>                  <td>1/22/2013 12:00 AM</td>                  <td>Breast Aspiration</td>                  <td>Reviewed</td>                  <td>                  </td>                </tr>                <tr>                  <td>1/22/2013 12:00 AM</td>                  <td>Incision of thrombosed external hemorrhoid</td>                  <td>Reviewed</td>                  <td>                  </td>                </tr>                <tr>                  <td>2/5/2013 12:00 AM</td>                  <td>Barium enema</td>                  <td>Scheduled</td>                  <td>                  </td>                </tr>                <tr>                  <td>2/5/2013 12:00 AM</td>                  <td>Chest X-Ray, PA and Lateral Views</td>                  <td>Scheduled</td>                  <td>                  </td>                </tr>                <tr>                  <td>2/5/2013 12:00 AM</td>                  <td>MRI of abdomen (with contrast)</td>                  <td>Scheduled</td>                  <td>                  </td>                </tr>                <tr>                  <td>1/22/2013 12:00 AM</td>                  <td>Varicella-zoster immune globulin, human, for intramuscular use</td>                  <td>Ordered</td>                  <td>                  </td>                </tr>                <tr>                  <td>1/22/2013 12:00 AM</td>                  <td>Influenza virus vaccine, split virus, preservative free, for intramuscular use</td>                  <td>Ordered</td>                  <td>                  </td>                </tr>                <tr>                  <td>2/5/2013 12:00 AM</td>                  <td>DNA PROBE: other infectious agent</td>                  <td>Scheduled</td>                  <td>                  </td>                </tr>                <tr>                  <td>2/5/2013 12:00 AM</td>                  <td>Obstetric panel</td>                  <td>Scheduled</td>                  <td>                  </td>                </tr>                <tr>                  <td>2/12/2013 12:00 AM</td>                  <td>Correction of inverted nipples</td>                  <td>Pending</td>                  <td>                  </td>                </tr>                <tr>                  <td>2/12/2013 12:00 AM</td>                  <td>Sigmoidoscopy, flexible; diagnostic</td>                  <td>Pending</td>                  <td>                  </td>                </tr>                <tr>                  <td>3/20/2013 12:00 AM</td>                  <td>Lipid panel</td>                  <td>Ordered</td>                  <td>                  </td>                </tr>                <tr>                  <td>3/20/2013 12:00 AM</td>                  <td>Lipid panel</td>                  <td>Ordered</td>                  <td>                  </td>                </tr>              </tbody>            </table>          </div>"
        },
        "mode": "snapshot",
        "entry": [ {
          "reference": "Observation/790c8b5d-3710-42a1-a1ad-6340f834fbef",
          "display": "Correction of inverted nipples"
        }, {
          "reference": "Observation/063c3c12-853a-4d52-8736-1149e3bd247d",
          "display": "Obstetric panel"
        }, {
          "reference": "Observation/6e4f97dc-f046-44df-8a11-a433d643d725",
          "display": "Influenza virus vaccine, split virus, preservative free, for intramuscular use"
        }, {
          "reference": "Observation/2f149995-4efb-42a0-8579-e0423c6259c2",
          "display": "Barium enema"
        }, {
          "reference": "Observation/04ec3a75-ef77-4f6f-bc4a-e4154ae87c82",
          "display": "Chest X-Ray, PA and Lateral Views"
        }, {
          "reference": "Observation/c52a8321-698b-4ae2-ac54-4861c8378c39",
          "display": "Urinalysis (Dipstick, with microscopy)"
        }, {
          "reference": "Observation/fab8de99-e38d-43a0-9b11-8cbcdcd48e3d",
          "display": "Lipid panel"
        }, {
          "reference": "Observation/a9dadccc-a56f-4003-a201-abdcc5b27fee",
          "display": "Arthritis panel"
        }, {
          "reference": "Observation/7a93a397-ecba-423d-a9fb-505a132c5ebb",
          "display": "Breast Aspiration"
        }, {
          "reference": "Observation/38195b30-fb84-4956-9320-5b6b20a7ddb7",
          "display": "Lipid panel"
        }, {
          "reference": "Observation/2f5e892c-0895-4551-8d34-ae26b401208a",
          "display": "Varicella-zoster immune globulin, human, for intramuscular use"
        }, {
          "reference": "Observation/2b098652-9f2c-44ad-aabe-fd7c6cfa220c",
          "display": "Incision of thrombosed external hemorrhoid"
        }, {
          "reference": "Observation/eb7ff59a-4c8a-4823-8f62-cbe84a9903da",
          "display": "Sigmoidoscopy, flexible; diagnostic"
        }, {
          "reference": "Observation/631807ab-4de3-4c12-8503-c0b53a25a817",
          "display": "MRI of abdomen (with contrast)"
        }, {
          "reference": "Observation/71afc326-e0e3-4afd-9343-f839e8bc510b",
          "display": "DNA PROBE: other infectious agent"
        } ]
      }, {
        "title": "Vital Signs",
        "code": {
          "coding": [ {
            "system": "http://loinc.org",
            "code": "8716-3",
            "display": "Vital signs"
          } ]
        },
        "text": {
          "status": "additional",
          "div": "<div xmlns=\"http://www.w3.org/1999/xhtml\">            <table border=\"1\">              <thead>                <tr>                  <th>Date</th>                  <th>Time</th>                  <th>BP-Sys(mm[Hg]</th>                  <th>BP-Dia(mm[Hg])</th>                  <th>HR(bpm)</th>                  <th>RR(rpm)</th>                  <th>Temp</th>                  <th>WT</th>                  <th>HT</th>                  <th>BMI</th>                  <th>BSA</th>                  <th>BMI Percentile</th>                  <th>O2 Sat(%)</th>                </tr>              </thead>              <tbody>                <tr>                  <td>1/22/2013</td>                  <td>9:00:00 AM</td>                  <td>120 mmHg</td>                  <td>86 mmHg</td>                  <td>88 bpm</td>                  <td>22 rpm</td>                  <td>37 C</td>                  <td>145.505 lbs</td>                  <td>48.032 in</td>                  <td>44.3429 kg/m²</td>                  <td>1.4956 m²</td>                  <td>                  </td>                  <td>                  </td>                </tr>              </tbody>            </table>          </div>"
        },
        "mode": "snapshot",
        "entry": [ {
          "reference": "Observation/07c013f6-e055-4880-8c63-03780d2b19f6",
          "display": "Body Weight (Measured)"
        }, {
          "reference": "Observation/241ddd7d-6cd1-4752-aa1e-afa61e4b83ff",
          "display": "Body Height (Measured)"
        }, {
          "reference": "Observation/8acc2c0a-89a5-4a42-83b5-7e87c1d13cbf",
          "display": "BP Systolic"
        }, {
          "reference": "Observation/89004f28-13e6-42cb-9bb3-471c170c1d98",
          "display": "Heart Rate"
        }, {
          "reference": "Observation/77903d23-ef5f-4aba-8d92-2aa3b81b5e9d",
          "display": "Body Mass Index"
        }, {
          "reference": "Observation/3856bc9b-af65-4244-98c2-1b2fb31da535",
          "display": "Respiratory Rate"
        }, {
          "reference": "Observation/970b0ff7-b635-4faa-808f-fa7252b1470e",
          "display": "Body Temperature"
        }, {
          "reference": "Observation/b9855efb-c9e0-4469-b25e-d834e5bfee61",
          "display": "BP Diastolic"
        } ]
      }, {
        "title": "Allergies and Adverse Reactions",
        "code": {
          "coding": [ {
            "system": "http://loinc.org",
            "code": "48765-2",
            "display": "Allergies, adverse reactions, alerts"
          } ]
        },
        "text": {
          "status": "additional",
          "div": "<div xmlns=\"http://www.w3.org/1999/xhtml\">            <table border=\"1\">              <thead>                <tr>                  <th>Name</th>                  <th>Reaction</th>                  <th>Notes</th>                </tr>              </thead>              <tbody>                <tr>                  <td>penicillin G benzathine</td>                  <td>rash</td>                  <td>severe reation</td>                </tr>              </tbody>            </table>          </div>"
        },
        "mode": "snapshot",
        "entry": [ {
          "reference": "AllergyIntolerance/cdf31355-b610-4d47-8d53-30aac667c721",
          "display": "penicillin G benzathine"
        } ]
      }, {
        "title": "Problem List",
        "code": {
          "coding": [ {
            "system": "http://loinc.org",
            "code": "11450-4",
            "display": "Problem list"
          } ]
        },
        "text": {
          "status": "additional",
          "div": "<div xmlns=\"http://www.w3.org/1999/xhtml\">            <table border=\"1\">              <thead>                <tr>                  <th>Description</th>                  <th>Status</th>                  <th>Onset</th>                </tr>              </thead>              <tbody>                <tr>                  <td>Essential hypertension</td>                  <td>Active</td>                  <td>11/24/1999</td>                </tr>                <tr>                  <td>Coronary arteriosclerosis</td>                  <td>Active</td>                  <td>03/14/2004</td>                </tr>                <tr>                  <td>Cardiovascular Disease</td>                  <td>Active</td>                  <td>01/22/1999</td>                </tr>                <tr>                  <td>Anal Spasm</td>                  <td>Active</td>                  <td>06/21/1964</td>                </tr>              </tbody>            </table>          </div>"
        },
        "mode": "snapshot",
        "entry": [ {
          "reference": "Condition/c7682c3a-ff0b-4614-944b-1ca3d0e94b68"
        }, {
          "reference": "Condition/3e15b1c5-45bc-4aba-8b1a-f27d2d70a2ed"
        }, {
          "reference": "Condition/278935ee-e67c-49e7-9dc1-0223bf30ed5a"
        }, {
          "reference": "Condition/7eedbc37-93c7-4ca9-a765-be4c065204d1"
        } ]
      } ]
    }
  }, {
    "resource": {
      "resourceType": "Patient",
      "id": "5557df15-8a46-4ca4-8b85-d7e772a84a02",
      "extension": [ {
        "url": "http://hl7.org/fhir/us/core/StructureDefinition/us-core-race",
        "extension": [ {
          "url": "text",
          "valueString": "White"
        }, {
          "url": "ombCategory",
          "valueCoding": {
            "system": "urn:oid:2.16.840.1.113883.6.238",
            "code": "2106-3",
            "display": "White"
          }
        } ]
      }, {
        "url": "http://hl7.org/fhir/us/core/StructureDefinition/us-core-ethnicity",
        "extension": [ {
          "url": "text",
          "valueString": "Hispanic or Latino"
        }, {
          "url": "ombCategory",
          "valueCoding": {
            "system": "urn:oid:2.16.840.1.113883.6.238",
            "code": "2135-2",
            "display": "Hispanic or Latino"
          }
        } ]
      } ],
      "identifier": [ {
        "use": "official",
        "system": "urn:oid:2.16.840.1.113883.3.441.1.50.300011.51",
        "value": "26840"
      } ],
      "name": [ {
        "family": "ClinicalSummary",
        "given": [ "Three" ]
      } ],
      "gender": "female",
      "birthDate": "1948-04-09",
      "address": [ {
        "line": [ "123 Test Ave" ],
        "city": "Norcross",
        "state": "GA",
        "postalCode": "30091",
        "country": "US"
      } ],
      "maritalStatus": {
        "coding": [ {
          "system": "http://terminology.hl7.org/CodeSystem/v3-MaritalStatus",
          "code": "D",
          "display": "Divorced"
        } ]
      },
      "communication": [ {
        "language": {
          "coding": [ {
            "system": "urn:ietf:bcp:47",
            "code": "isl"
          } ]
        }
      } ],
      "managingOrganization": {
        "reference": "Organization/c0c57baf-df4c-40d0-b7d3-47e93e9b44a3",
        "display": "Get Well Clinic"
      }
    }
  }, {
    "resource": {
      "resourceType": "Organization",
      "id": "c0c57baf-df4c-40d0-b7d3-47e93e9b44a3",
      "identifier": [ {
        "use": "official",
        "system": "urn:oid:2.16.840.1.113883.3.441.1.50",
        "value": "300011"
      } ],
      "name": "Get Well Clinic",
      "telecom": [ {
        "system": "phone",
        "value": "555-555-1004",
        "use": "work"
      } ],
      "address": [ {
        "line": [ "1004 Healthcare Dr. practice" ],
        "city": "Portland",
        "state": "OR",
        "postalCode": "97005",
        "country": "United States"
      } ]
    }
  }, {
    "resource": {
      "resourceType": "Practitioner",
      "id": "25be2eb6-e3ad-47a1-8082-6e0abc0b368a",
      "identifier": [ {
        "use": "official",
        "system": "urn:oid:2.16.840.1.113883.4.6",
        "value": "3b9dea36a4fd45d1908d1386b22f7ad6"
      } ],
      "telecom": [ {
        "system": "phone",
        "value": "555-555-1004",
        "use": "work"
      } ],
      "address": [ {
        "line": [ "1004 Healthcare Dr. practice" ],
        "city": "Portland",
        "state": "OR",
        "postalCode": "97005",
        "country": "United States"
      } ]
    }
  }, {
    "resource": {
      "resourceType": "PractitionerRole",
      "id": "d8214369-3813-4834-87c1-1d671a197a21",
      "practitioner": {
        "reference": "Practitioner/25be2eb6-e3ad-47a1-8082-6e0abc0b368a"
      },
      "organization": {
        "reference": "Organization/c0c57baf-df4c-40d0-b7d3-47e93e9b44a3",
        "display": "Get Well Clinic"
      }
    }
  }, {
    "resource": {
      "resourceType": "Practitioner",
      "id": "53f0aa0e-0a57-4540-a8b2-6cd37e839200",
      "identifier": [ {
        "use": "official",
        "system": "http://hl7.org/fhir/sid/us-npi",
        "value": "UNK"
      } ]
    }
  }, {
    "resource": {
      "resourceType": "Practitioner",
      "id": "cc01b40e-259c-4a3c-914b-99496497ce2b",
      "identifier": [ {
        "use": "official",
        "system": "http://hl7.org/fhir/sid/us-npi",
        "value": "UNK"
      } ],
      "name": [ {
        "family": "Ingram, M.D.",
        "given": [ "James" ]
      } ]
    }
  }, {
    "resource": {
      "resourceType": "Practitioner",
      "id": "772f91d3-6729-421e-93f6-85a4cb40d237",
      "identifier": [ {
        "use": "official",
        "system": "http://hl7.org/fhir/sid/us-npi",
        "value": "UNK"
      } ],
      "name": [ {
        "family": "Seven, M.D.",
        "given": [ "Henry" ]
      } ]
    }
  }, {
    "resource": {
      "resourceType": "Practitioner",
      "id": "fb0ff315-f1b7-4bc7-b684-93427975b64a",
      "identifier": [ {
        "use": "official",
        "system": "http://hl7.org/fhir/sid/us-npi",
        "value": "UNK"
      } ],
      "name": [ {
        "family": "Puffer, M.D.",
        "given": [ "Penny" ]
      } ]
    }
  }, {
    "resource": {
      "resourceType": "MedicationStatement",
      "id": "491bae6a-a39e-4bc5-ad0e-cf7f608f6c1f",
      "extension": [ {
        "url": "http://hl7.org/fhir/3.0/StructureDefinition/extension-MedicationStatement.status",
        "valueCode": "UNKNOWN"
      } ],
      "identifier": [ {
        "use": "official",
        "system": "urn:oid:2.16.840.1.113883.3.441.1.50.300011.51.26840.58",
        "value": "2006"
      } ],
      "status": "completed",
      "medicationReference": {
        "reference": "Medication/2b392771-3960-4d6f-a589-10788354c571",
        "display": "Demerol Injection Solution 50 mg/mL"
      },
      "subject": {
        "reference": "Patient/5557df15-8a46-4ca4-8b85-d7e772a84a02",
        "display": "Three ClinicalSummary"
      },
      "dosage": [ {
        "doseAndRate": [ {
          "doseQuantity": {
            "value": 1,
            "unit": "milliliter",
            "system": "http://unitsofmeasure.org/ucum.html"
          }
        } ]
      } ]
    }
  }, {
    "resource": {
      "resourceType": "Medication",
      "id": "2b392771-3960-4d6f-a589-10788354c571",
      "code": {
        "coding": [ {
          "code": "172838",
          "display": "Demerol Injection Solution 50 mg/mL"
        }, {
          "system": "http://www.nlm.nih.gov/research/umls/rxnorm",
          "code": "861463",
          "display": "Meperidine Hydrochloride 50 MG/ML Injectable Solution"
        } ],
        "text": "Demerol Injection Solution 50 mg/mL"
      }
    }
  }, {
    "resource": {
      "resourceType": "MedicationStatement",
      "id": "c3679389-7c10-45c5-9e05-90c9268c31af",
      "extension": [ {
        "url": "http://hl7.org/fhir/3.0/StructureDefinition/extension-MedicationStatement.status",
        "valueCode": "UNKNOWN"
      } ],
      "identifier": [ {
        "use": "official",
        "system": "urn:oid:2.16.840.1.113883.3.441.1.50.300011.51.26840.58",
        "value": "2005"
      } ],
      "status": "completed",
      "medicationReference": {
        "reference": "Medication/9f6e7e52-3e98-4d7b-bc93-e4d8d59e0219",
        "display": "Dilaudid Oral Tablet 2 mg"
      },
      "subject": {
        "reference": "Patient/5557df15-8a46-4ca4-8b85-d7e772a84a02",
        "display": "Three ClinicalSummary"
      },
      "dosage": [ {
        "doseAndRate": [ {
          "doseQuantity": {
            "value": 1,
            "unit": "tablet",
            "system": "http://unitsofmeasure.org/ucum.html"
          }
        } ]
      } ]
    }
  }, {
    "resource": {
      "resourceType": "Medication",
      "id": "9f6e7e52-3e98-4d7b-bc93-e4d8d59e0219",
      "code": {
        "coding": [ {
          "code": "162540",
          "display": "Dilaudid Oral Tablet 2 mg"
        }, {
          "system": "http://www.nlm.nih.gov/research/umls/rxnorm",
          "code": "897696",
          "display": "Hydromorphone Hydrochloride 2 MG Oral Tablet"
        } ],
        "text": "Dilaudid Oral Tablet 2 mg"
      }
    }
  }, {
    "resource": {
      "resourceType": "Observation",
      "id": "ae45ebcf-3f8e-4002-afe8-94dc3ae52462",
      "identifier": [ {
        "use": "official",
        "system": "urn:oid:2.16.840.1.113883.3.441.1.50.300011.51.26840.68",
        "value": "1313"
      } ],
      "status": "final",
      "code": {
        "coding": [ {
          "system": "urn:oid:2.16.840.1.113883.5.4",
          "code": "ASSERTION"
        } ]
      },
      "subject": {
        "reference": "Patient/5557df15-8a46-4ca4-8b85-d7e772a84a02",
        "display": "Three ClinicalSummary"
      },
      "effectivePeriod": {
        "start": "1900-01-01T00:00:00+01:00"
      },
      "valueCodeableConcept": {
        "coding": [ {
          "system": "http://snomed.info/sct",
          "code": "428071000124103",
          "display": "Heavy tobacco smoker"
        } ]
      }
    }
  }, {
    "resource": {
      "resourceType": "DiagnosticReport",
      "id": "85cfd59c-c1ff-4a1c-9e2e-257af290510d",
      "identifier": [ {
        "use": "official",
        "system": "urn:oid:2.16.840.1.113883.3.441.1.50.300011.51.26840.54",
        "value": "2816"
      } ],
      "status": "final",
      "category": [ {
        "coding": [ {
          "system": "http://terminology.hl7.org/CodeSystem/v2-0074",
          "code": "LAB",
          "display": "Laboratory"
        } ]
      } ],
      "subject": {
        "reference": "Patient/5557df15-8a46-4ca4-8b85-d7e772a84a02",
        "display": "Three ClinicalSummary"
      },
      "effectivePeriod": {
        "start": "2013-01-22T08:59:35+01:00"
      },
      "issued": "2013-01-22T08:59:35.000+01:00",
      "result": [ {
        "reference": "Observation/308ebf08-cb67-4417-878b-fed10380fd16",
        "display": "CRP SerPl High Sens-mCnc"
      } ]
    }
  }, {
    "resource": {
      "resourceType": "Observation",
      "id": "308ebf08-cb67-4417-878b-fed10380fd16",
      "identifier": [ {
        "use": "official",
        "system": "urn:oid:2.16.840.1.113883.3.441.1.50.300011.51.26840.54",
        "value": "2816"
      } ],
      "status": "final",
      "category": [ {
        "coding": [ {
          "system": "http://terminology.hl7.org/CodeSystem/observation-category",
          "code": "laboratory"
        } ]
      } ],
      "code": {
        "coding": [ {
          "system": "http://loinc.org",
          "code": "30522-7",
          "display": "CRP SerPl High Sens-mCnc"
        } ]
      },
      "subject": {
        "reference": "Patient/5557df15-8a46-4ca4-8b85-d7e772a84a02",
        "display": "Three ClinicalSummary"
      },
      "effectivePeriod": {
        "start": "2013-01-22T08:59:35+01:00"
      },
      "valueQuantity": {
        "value": 1.80,
        "unit": "mg/L",
        "system": "http://unitsofmeasure.org",
        "code": "mg/L"
      }
    }
  }, {
    "resource": {
      "resourceType": "DiagnosticReport",
      "id": "8b2cdb4b-fcf9-4d77-8b2a-4664a19902ac",
      "identifier": [ {
        "use": "official",
        "system": "urn:oid:2.16.840.1.113883.3.441.1.50.300011.51.26840.54",
        "value": "2815"
      } ],
      "status": "final",
      "category": [ {
        "coding": [ {
          "system": "http://terminology.hl7.org/CodeSystem/v2-0074",
          "code": "LAB",
          "display": "Laboratory"
        } ]
      } ],
      "subject": {
        "reference": "Patient/5557df15-8a46-4ca4-8b85-d7e772a84a02",
        "display": "Three ClinicalSummary"
      },
      "effectivePeriod": {
        "start": "2013-01-22T08:59:35+01:00"
      },
      "issued": "2013-01-22T08:59:35.000+01:00",
      "result": [ {
        "reference": "Observation/e1411fa5-23e0-43ee-adac-d8623f4b6b49",
        "display": "Trigl SerPl-mCnc"
      } ]
    }
  }, {
    "resource": {
      "resourceType": "Observation",
      "id": "e1411fa5-23e0-43ee-adac-d8623f4b6b49",
      "identifier": [ {
        "use": "official",
        "system": "urn:oid:2.16.840.1.113883.3.441.1.50.300011.51.26840.54",
        "value": "2815"
      } ],
      "status": "final",
      "category": [ {
        "coding": [ {
          "system": "http://terminology.hl7.org/CodeSystem/observation-category",
          "code": "laboratory"
        } ]
      } ],
      "code": {
        "coding": [ {
          "system": "http://loinc.org",
          "code": "2571-8",
          "display": "Trigl SerPl-mCnc"
        } ]
      },
      "subject": {
        "reference": "Patient/5557df15-8a46-4ca4-8b85-d7e772a84a02",
        "display": "Three ClinicalSummary"
      },
      "effectivePeriod": {
        "start": "2013-01-22T08:59:35+01:00"
      },
      "valueQuantity": {
        "value": 5000.0,
        "unit": "mg/dL",
        "system": "http://unitsofmeasure.org",
        "code": "mg/dL"
      }
    }
  }, {
    "resource": {
      "resourceType": "DiagnosticReport",
      "id": "1d78518d-ca41-462d-859c-f472a3c4bb9b",
      "identifier": [ {
        "use": "official",
        "system": "urn:oid:2.16.840.1.113883.3.441.1.50.300011.51.26840.54",
        "value": "2813"
      } ],
      "status": "final",
      "category": [ {
        "coding": [ {
          "system": "http://terminology.hl7.org/CodeSystem/v2-0074",
          "code": "LAB",
          "display": "Laboratory"
        } ]
      } ],
      "subject": {
        "reference": "Patient/5557df15-8a46-4ca4-8b85-d7e772a84a02",
        "display": "Three ClinicalSummary"
      },
      "effectivePeriod": {
        "start": "2013-01-22T08:59:35+01:00"
      },
      "issued": "2013-01-22T08:59:35.000+01:00",
      "result": [ {
        "reference": "Observation/eb144946-9455-493d-b96e-5aaa2827f32a",
        "display": "LDLc SerPl-mCnc"
      } ]
    }
  }, {
    "resource": {
      "resourceType": "Observation",
      "id": "eb144946-9455-493d-b96e-5aaa2827f32a",
      "identifier": [ {
        "use": "official",
        "system": "urn:oid:2.16.840.1.113883.3.441.1.50.300011.51.26840.54",
        "value": "2813"
      } ],
      "status": "final",
      "category": [ {
        "coding": [ {
          "system": "http://terminology.hl7.org/CodeSystem/observation-category",
          "code": "laboratory"
        } ]
      } ],
      "code": {
        "coding": [ {
          "system": "http://loinc.org",
          "code": "2089-1",
          "display": "LDLc SerPl-mCnc"
        } ]
      },
      "subject": {
        "reference": "Patient/5557df15-8a46-4ca4-8b85-d7e772a84a02",
        "display": "Three ClinicalSummary"
      },
      "effectivePeriod": {
        "start": "2013-01-22T08:59:35+01:00"
      },
      "valueQuantity": {
        "value": 189.0,
        "unit": "mg/dL",
        "system": "http://unitsofmeasure.org",
        "code": "mg/dL"
      }
    }
  }, {
    "resource": {
      "resourceType": "DiagnosticReport",
      "id": "0321be42-635c-4839-94a3-41ba9b32efea",
      "identifier": [ {
        "use": "official",
        "system": "urn:oid:2.16.840.1.113883.3.441.1.50.300011.51.26840.54",
        "value": "2807"
      } ],
      "status": "final",
      "category": [ {
        "coding": [ {
          "system": "http://terminology.hl7.org/CodeSystem/v2-0074",
          "code": "LAB",
          "display": "Laboratory"
        } ]
      } ],
      "subject": {
        "reference": "Patient/5557df15-8a46-4ca4-8b85-d7e772a84a02",
        "display": "Three ClinicalSummary"
      },
      "effectivePeriod": {
        "start": "2013-01-22T08:59:04+01:00"
      },
      "issued": "2013-01-22T08:59:04.000+01:00",
      "result": [ {
        "reference": "Observation/181d23f4-b25d-40e3-958f-0d0697606c45",
        "display": "Hgb Bld-mCnc"
      } ]
    }
  }, {
    "resource": {
      "resourceType": "Observation",
      "id": "181d23f4-b25d-40e3-958f-0d0697606c45",
      "identifier": [ {
        "use": "official",
        "system": "urn:oid:2.16.840.1.113883.3.441.1.50.300011.51.26840.54",
        "value": "2807"
      } ],
      "status": "final",
      "category": [ {
        "coding": [ {
          "system": "http://terminology.hl7.org/CodeSystem/observation-category",
          "code": "laboratory"
        } ]
      } ],
      "code": {
        "coding": [ {
          "system": "http://loinc.org",
          "code": "718-7",
          "display": "Hgb Bld-mCnc"
        } ]
      },
      "subject": {
        "reference": "Patient/5557df15-8a46-4ca4-8b85-d7e772a84a02",
        "display": "Three ClinicalSummary"
      },
      "effectivePeriod": {
        "start": "2013-01-22T08:59:04+01:00"
      },
      "valueQuantity": {
        "value": 12.60,
        "unit": "g/dL",
        "system": "http://unitsofmeasure.org",
        "code": "g/dL"
      }
    }
  }, {
    "resource": {
      "resourceType": "DiagnosticReport",
      "id": "bc00fc85-bd0d-4cee-b84e-839cd822593e",
      "identifier": [ {
        "use": "official",
        "system": "urn:oid:2.16.840.1.113883.3.441.1.50.300011.51.26840.54",
        "value": "2811"
      } ],
      "status": "final",
      "category": [ {
        "coding": [ {
          "system": "http://terminology.hl7.org/CodeSystem/v2-0074",
          "code": "LAB",
          "display": "Laboratory"
        } ]
      } ],
      "subject": {
        "reference": "Patient/5557df15-8a46-4ca4-8b85-d7e772a84a02",
        "display": "Three ClinicalSummary"
      },
      "effectivePeriod": {
        "start": "2013-01-22T08:59:35+01:00"
      },
      "issued": "2013-01-22T08:59:35.000+01:00",
      "result": [ {
        "reference": "Observation/6170c1c1-370c-4a02-9eef-105fbec0f676",
        "display": "Cholest SerPl-mCnc"
      } ]
    }
  }, {
    "resource": {
      "resourceType": "Observation",
      "id": "6170c1c1-370c-4a02-9eef-105fbec0f676",
      "identifier": [ {
        "use": "official",
        "system": "urn:oid:2.16.840.1.113883.3.441.1.50.300011.51.26840.54",
        "value": "2811"
      } ],
      "status": "final",
      "category": [ {
        "coding": [ {
          "system": "http://terminology.hl7.org/CodeSystem/observation-category",
          "code": "laboratory"
        } ]
      } ],
      "code": {
        "coding": [ {
          "system": "http://loinc.org",
          "code": "2093-3",
          "display": "Cholest SerPl-mCnc"
        } ]
      },
      "subject": {
        "reference": "Patient/5557df15-8a46-4ca4-8b85-d7e772a84a02",
        "display": "Three ClinicalSummary"
      },
      "effectivePeriod": {
        "start": "2013-01-22T08:59:35+01:00"
      },
      "valueQuantity": {
        "value": 299.0,
        "unit": "mg/dL",
        "system": "http://unitsofmeasure.org",
        "code": "mg/dL"
      }
    }
  }, {
    "resource": {
      "resourceType": "DiagnosticReport",
      "id": "0a52f499-3922-4c67-af9e-d272d4250195",
      "identifier": [ {
        "use": "official",
        "system": "urn:oid:2.16.840.1.113883.3.441.1.50.300011.51.26840.54",
        "value": "2810"
      } ],
      "status": "final",
      "category": [ {
        "coding": [ {
          "system": "http://terminology.hl7.org/CodeSystem/v2-0074",
          "code": "LAB",
          "display": "Laboratory"
        } ]
      } ],
      "subject": {
        "reference": "Patient/5557df15-8a46-4ca4-8b85-d7e772a84a02",
        "display": "Three ClinicalSummary"
      },
      "effectivePeriod": {
        "start": "2013-01-22T08:59:04+01:00"
      },
      "issued": "2013-01-22T08:59:04.000+01:00",
      "result": [ {
        "reference": "Observation/5d1881af-a228-45c2-9534-100d2f73f82f",
        "display": "Platelet # Bld Auto"
      } ]
    }
  }, {
    "resource": {
      "resourceType": "Observation",
      "id": "5d1881af-a228-45c2-9534-100d2f73f82f",
      "identifier": [ {
        "use": "official",
        "system": "urn:oid:2.16.840.1.113883.3.441.1.50.300011.51.26840.54",
        "value": "2810"
      } ],
      "status": "final",
      "category": [ {
        "coding": [ {
          "system": "http://terminology.hl7.org/CodeSystem/observation-category",
          "code": "laboratory"
        } ]
      } ],
      "code": {
        "coding": [ {
          "system": "http://loinc.org",
          "code": "777-3",
          "display": "Platelet # Bld Auto"
        } ]
      },
      "subject": {
        "reference": "Patient/5557df15-8a46-4ca4-8b85-d7e772a84a02",
        "display": "Three ClinicalSummary"
      },
      "effectivePeriod": {
        "start": "2013-01-22T08:59:04+01:00"
      },
      "valueQuantity": {
        "value": 394.0,
        "unit": "x10E3/uL",
        "system": "http://unitsofmeasure.org",
        "code": "x10E3/uL"
      }
    }
  }, {
    "resource": {
      "resourceType": "DiagnosticReport",
      "id": "71cb7e51-af4b-43e7-8f08-6371a66c5418",
      "identifier": [ {
        "use": "official",
        "system": "urn:oid:2.16.840.1.113883.3.441.1.50.300011.51.26840.54",
        "value": "2814"
      } ],
      "status": "final",
      "category": [ {
        "coding": [ {
          "system": "http://terminology.hl7.org/CodeSystem/v2-0074",
          "code": "LAB",
          "display": "Laboratory"
        } ]
      } ],
      "subject": {
        "reference": "Patient/5557df15-8a46-4ca4-8b85-d7e772a84a02",
        "display": "Three ClinicalSummary"
      },
      "effectivePeriod": {
        "start": "2013-01-22T08:59:35+01:00"
      },
      "issued": "2013-01-22T08:59:35.000+01:00",
      "result": [ {
        "reference": "Observation/a0c49d07-1867-40d5-afd2-b9832815480a",
        "display": "PreB-LP SerPl-mCnc"
      } ]
    }
  }, {
    "resource": {
      "resourceType": "Observation",
      "id": "a0c49d07-1867-40d5-afd2-b9832815480a",
      "identifier": [ {
        "use": "official",
        "system": "urn:oid:2.16.840.1.113883.3.441.1.50.300011.51.26840.54",
        "value": "2814"
      } ],
      "status": "final",
      "category": [ {
        "coding": [ {
          "system": "http://terminology.hl7.org/CodeSystem/observation-category",
          "code": "laboratory"
        } ]
      } ],
      "code": {
        "coding": [ {
          "system": "http://loinc.org",
          "code": "2575-9",
          "display": "PreB-LP SerPl-mCnc"
        } ]
      },
      "subject": {
        "reference": "Patient/5557df15-8a46-4ca4-8b85-d7e772a84a02",
        "display": "Three ClinicalSummary"
      },
      "effectivePeriod": {
        "start": "2013-01-22T08:59:35+01:00"
      },
      "valueQuantity": {
        "value": 35.0,
        "unit": "mg/dL",
        "system": "http://unitsofmeasure.org",
        "code": "mg/dL"
      }
    }
  }, {
    "resource": {
      "resourceType": "DiagnosticReport",
      "id": "0cb3f89d-340c-4321-81fc-0b45cce8b295",
      "identifier": [ {
        "use": "official",
        "system": "urn:oid:2.16.840.1.113883.3.441.1.50.300011.51.26840.54",
        "value": "2812"
      } ],
      "status": "final",
      "category": [ {
        "coding": [ {
          "system": "http://terminology.hl7.org/CodeSystem/v2-0074",
          "code": "LAB",
          "display": "Laboratory"
        } ]
      } ],
      "subject": {
        "reference": "Patient/5557df15-8a46-4ca4-8b85-d7e772a84a02",
        "display": "Three ClinicalSummary"
      },
      "effectivePeriod": {
        "start": "2013-01-22T08:59:35+01:00"
      },
      "issued": "2013-01-22T08:59:35.000+01:00",
      "result": [ {
        "reference": "Observation/e206d131-c4ac-44e8-af6f-4943ee033fdf",
        "display": "HDLc SerPl-mCnc"
      } ]
    }
  }, {
    "resource": {
      "resourceType": "Observation",
      "id": "e206d131-c4ac-44e8-af6f-4943ee033fdf",
      "identifier": [ {
        "use": "official",
        "system": "urn:oid:2.16.840.1.113883.3.441.1.50.300011.51.26840.54",
        "value": "2812"
      } ],
      "status": "final",
      "category": [ {
        "coding": [ {
          "system": "http://terminology.hl7.org/CodeSystem/observation-category",
          "code": "laboratory"
        } ]
      } ],
      "code": {
        "coding": [ {
          "system": "http://loinc.org",
          "code": "2085-9",
          "display": "HDLc SerPl-mCnc"
        } ]
      },
      "subject": {
        "reference": "Patient/5557df15-8a46-4ca4-8b85-d7e772a84a02",
        "display": "Three ClinicalSummary"
      },
      "effectivePeriod": {
        "start": "2013-01-22T08:59:35+01:00"
      },
      "valueQuantity": {
        "value": 18.0,
        "unit": "mg/dL",
        "system": "http://unitsofmeasure.org",
        "code": "mg/dL"
      }
    }
  }, {
    "resource": {
      "resourceType": "DiagnosticReport",
      "id": "7a0caa7e-7a61-4f1d-8eb6-02d2a83fb23a",
      "identifier": [ {
        "use": "official",
        "system": "urn:oid:2.16.840.1.113883.3.441.1.50.300011.51.26840.54",
        "value": "2809"
      } ],
      "status": "final",
      "category": [ {
        "coding": [ {
          "system": "http://terminology.hl7.org/CodeSystem/v2-0074",
          "code": "LAB",
          "display": "Laboratory"
        } ]
      } ],
      "subject": {
        "reference": "Patient/5557df15-8a46-4ca4-8b85-d7e772a84a02",
        "display": "Three ClinicalSummary"
      },
      "effectivePeriod": {
        "start": "2013-01-22T08:59:04+01:00"
      },
      "issued": "2013-01-22T08:59:04.000+01:00",
      "result": [ {
        "reference": "Observation/89c01941-2d3f-4849-80da-1b1c489cdace",
        "display": "WBC # Bld Auto"
      } ]
    }
  }, {
    "resource": {
      "resourceType": "Observation",
      "id": "89c01941-2d3f-4849-80da-1b1c489cdace",
      "identifier": [ {
        "use": "official",
        "system": "urn:oid:2.16.840.1.113883.3.441.1.50.300011.51.26840.54",
        "value": "2809"
      } ],
      "status": "final",
      "category": [ {
        "coding": [ {
          "system": "http://terminology.hl7.org/CodeSystem/observation-category",
          "code": "laboratory"
        } ]
      } ],
      "code": {
        "coding": [ {
          "system": "http://loinc.org",
          "code": "6690-2",
          "display": "WBC # Bld Auto"
        } ]
      },
      "subject": {
        "reference": "Patient/5557df15-8a46-4ca4-8b85-d7e772a84a02",
        "display": "Three ClinicalSummary"
      },
      "effectivePeriod": {
        "start": "2013-01-22T08:59:04+01:00"
      },
      "valueQuantity": {
        "value": 12.80,
        "unit": "x10E3/uL",
        "system": "http://unitsofmeasure.org",
        "code": "x10E3/uL"
      }
    }
  }, {
    "resource": {
      "resourceType": "DiagnosticReport",
      "id": "9688d1dc-e1ae-417e-8bbc-f3b84add0b0b",
      "identifier": [ {
        "use": "official",
        "system": "urn:oid:2.16.840.1.113883.3.441.1.50.300011.51.26840.54",
        "value": "2808"
      } ],
      "status": "final",
      "category": [ {
        "coding": [ {
          "system": "http://terminology.hl7.org/CodeSystem/v2-0074",
          "code": "LAB",
          "display": "Laboratory"
        } ]
      } ],
      "subject": {
        "reference": "Patient/5557df15-8a46-4ca4-8b85-d7e772a84a02",
        "display": "Three ClinicalSummary"
      },
      "effectivePeriod": {
        "start": "2013-01-22T08:59:04+01:00"
      },
      "issued": "2013-01-22T08:59:04.000+01:00",
      "result": [ {
        "reference": "Observation/a8706ca2-7394-415e-8612-7d61e3186b7a",
        "display": "Hct Fr Bld Auto"
      } ]
    }
  }, {
    "resource": {
      "resourceType": "Observation",
      "id": "a8706ca2-7394-415e-8612-7d61e3186b7a",
      "identifier": [ {
        "use": "official",
        "system": "urn:oid:2.16.840.1.113883.3.441.1.50.300011.51.26840.54",
        "value": "2808"
      } ],
      "status": "final",
      "category": [ {
        "coding": [ {
          "system": "http://terminology.hl7.org/CodeSystem/observation-category",
          "code": "laboratory"
        } ]
      } ],
      "code": {
        "coding": [ {
          "system": "http://loinc.org",
          "code": "4544-3",
          "display": "Hct Fr Bld Auto"
        } ]
      },
      "subject": {
        "reference": "Patient/5557df15-8a46-4ca4-8b85-d7e772a84a02",
        "display": "Three ClinicalSummary"
      },
      "effectivePeriod": {
        "start": "2013-01-22T08:59:04+01:00"
      },
      "valueQuantity": {
        "value": 44.50,
        "unit": "%",
        "system": "http://unitsofmeasure.org",
        "code": "%"
      }
    }
  }, {
    "resource": {
      "resourceType": "CarePlan",
      "id": "045fc1f4-936b-41f7-9e72-108985580071",
      "text": {
        "status": "additional",
        "div": "<div xmlns=\"http://www.w3.org/1999/xhtml\">            <table border=\"1\">              <thead>                <tr>                  <th>Planned Activity</th>                  <th>Comments</th>                  <th>Planned Date</th>                  <th>Planned Time</th>                  <th>Plan/Goal</th>                </tr>              </thead>              <tbody>                <tr>                  <td>For colonscopy and hemorrhoidectomy</td>                  <td>                  </td>                  <td>1/29/2013</td>                  <td>4:00 PM</td>                  <td>                  </td>                </tr>                <tr>                  <td>Smoking Cessation Plan</td>                  <td>                  </td>                  <td>1/22/2013</td>                  <td>8:58 AM</td>                  <td>Resources and instructions provided during visit</td>                </tr>                <tr>                  <td>Smoking Cessation: Goal</td>                  <td>                  </td>                  <td>1/22/2013</td>                  <td>8:58 AM</td>                  <td>Quit smoking</td>                </tr>                <tr>                  <td>Weight Loss Plan</td>                  <td>                  </td>                  <td>1/22/2013</td>                  <td>8:58 AM</td>                  <td>Resources and instructions provided during visit.</td>                </tr>                <tr>                  <td>Weight Loss: Goal</td>                  <td>                  </td>                  <td>1/22/2013</td>                  <td>8:58 AM</td>                  <td>BMI &amp;lt; 25</td>                </tr>                <tr>                  <td>Blood Pressure Management Plan</td>                  <td>                  </td>                  <td>1/22/2013</td>                  <td>8:58 AM</td>                  <td>Advised patient to avoid supplemental salt.</td>                </tr>                <tr>                  <td>Blood Pressure Management: Goal</td>                  <td>                  </td>                  <td>1/22/2013</td>                  <td>8:58 AM</td>                  <td>No longer hypertensive</td>                </tr>                <tr>                  <td>Arthritis panel</td>                  <td>                  </td>                  <td>1/22/2013</td>                  <td>12:00 AM</td>                  <td>                  </td>                </tr>                <tr>                  <td>Urinalysis (Dipstick, with microscopy)</td>                  <td>                  </td>                  <td>1/22/2013</td>                  <td>12:00 AM</td>                  <td>                  </td>                </tr>                <tr>                  <td>Lipid panel</td>                  <td>                  </td>                  <td>3/20/2013</td>                  <td>12:00 AM</td>                  <td>                  </td>                </tr>                <tr>                  <td>Lipid panel</td>                  <td>                  </td>                  <td>3/20/2013</td>                  <td>12:00 AM</td>                  <td>                  </td>                </tr>              </tbody>            </table>          </div>"
      },
      "status": "active",
      "intent": "plan",
      "category": [ {
        "coding": [ {
          "system": "http://hl7.org/fhir/us/core/CodeSystem/careplan-category",
          "code": "assess-plan"
        } ]
      } ],
      "title": "Plan of Treatment",
      "description": "<div>            <table border=\"1\">              <thead>                <tr>                  <th>Planned Activity</th>                  <th>Comments</th>                  <th>Planned Date</th>                  <th>Planned Time</th>                  <th>Plan/Goal</th>                </tr>              </thead>              <tbody>                <tr>                  <td>For colonscopy and hemorrhoidectomy</td>                  <td>                  </td>                  <td>1/29/2013</td>                  <td>4:00 PM</td>                  <td>                  </td>                </tr>                <tr>                  <td>Smoking Cessation Plan</td>                  <td>                  </td>                  <td>1/22/2013</td>                  <td>8:58 AM</td>                  <td>Resources and instructions provided during visit</td>                </tr>                <tr>                  <td>Smoking Cessation: Goal</td>                  <td>                  </td>                  <td>1/22/2013</td>                  <td>8:58 AM</td>                  <td>Quit smoking</td>                </tr>                <tr>                  <td>Weight Loss Plan</td>                  <td>                  </td>                  <td>1/22/2013</td>                  <td>8:58 AM</td>                  <td>Resources and instructions provided during visit.</td>                </tr>                <tr>                  <td>Weight Loss: Goal</td>                  <td>                  </td>                  <td>1/22/2013</td>                  <td>8:58 AM</td>                  <td>BMI &amp;lt; 25</td>                </tr>                <tr>                  <td>Blood Pressure Management Plan</td>                  <td>                  </td>                  <td>1/22/2013</td>                  <td>8:58 AM</td>                  <td>Advised patient to avoid supplemental salt.</td>                </tr>                <tr>                  <td>Blood Pressure Management: Goal</td>                  <td>                  </td>                  <td>1/22/2013</td>                  <td>8:58 AM</td>                  <td>No longer hypertensive</td>                </tr>                <tr>                  <td>Arthritis panel</td>                  <td>                  </td>                  <td>1/22/2013</td>                  <td>12:00 AM</td>                  <td>                  </td>                </tr>                <tr>                  <td>Urinalysis (Dipstick, with microscopy)</td>                  <td>                  </td>                  <td>1/22/2013</td>                  <td>12:00 AM</td>                  <td>                  </td>                </tr>                <tr>                  <td>Lipid panel</td>                  <td>                  </td>                  <td>3/20/2013</td>                  <td>12:00 AM</td>                  <td>                  </td>                </tr>                <tr>                  <td>Lipid panel</td>                  <td>                  </td>                  <td>3/20/2013</td>                  <td>12:00 AM</td>                  <td>                  </td>                </tr>              </tbody>            </table>          </div>",
      "subject": {
        "reference": "Patient/5557df15-8a46-4ca4-8b85-d7e772a84a02",
        "display": "Three ClinicalSummary"
      }
    }
  }, {
    "resource": {
      "resourceType": "Immunization",
      "id": "294ceffa-dbc9-4272-b9ef-83eca633d402",
      "identifier": [ {
        "use": "official",
        "system": "urn:oid:2.16.840.1.113883.3.441.1.50.300011.51.26840.60",
        "value": "1229"
      } ],
      "status": "completed",
      "vaccineCode": {
        "coding": [ {
          "system": "http://www2a.cdc.gov/vaccines/iis/iisstandards/vaccines.asp?rpt=cvx",
          "code": "88",
          "display": "influenza, NOS"
        } ],
        "text": "Influenza Adult"
      },
      "patient": {
        "reference": "Patient/5557df15-8a46-4ca4-8b85-d7e772a84a02",
        "display": "Three ClinicalSummary"
      },
      "occurrenceDateTime": "2013-01-22T00:00:00+01:00",
      "primarySource": true,
      "lotNumber": "werwer444",
      "doseQuantity": {
        "value": 0.5,
        "unit": "1",
        "system": "http://unitsofmeasure.org/ucum.html"
      },
      "performer": [ {
        "function": {
          "coding": [ {
            "system": "http://hl7.org/fhir/v2/0443",
            "code": "AP",
            "display": "Administering Provider"
          } ]
        },
        "actor": {
          "reference": "Practitioner/eb1c51fe-da73-4260-80b1-8af89f313449",
          "display": "Mike Hardy"
        }
      } ]
    }
  }, {
    "resource": {
      "resourceType": "Practitioner",
      "id": "eb1c51fe-da73-4260-80b1-8af89f313449",
      "identifier": [ {
        "use": "official",
        "system": "urn:oid:2.16.840.1.113883.3.441",
        "value": "e53c09d806554538974a9ed175c32f22"
      } ],
      "name": [ {
        "family": "Hardy",
        "given": [ "Mike" ]
      } ],
      "telecom": [ {
        "system": "phone",
        "value": "770-888-3333"
      } ],
      "address": [ {
        "line": [ "1234 test" ],
        "city": "Norcross",
        "state": "GA",
        "postalCode": "30091",
        "country": "United States"
      } ]
    }
  }, {
    "resource": {
      "resourceType": "PractitionerRole",
      "id": "e20c8465-1fa7-446c-8903-901ee8cc1bb5",
      "practitioner": {
        "reference": "Practitioner/eb1c51fe-da73-4260-80b1-8af89f313449",
        "display": "Mike Hardy"
      },
      "organization": {
        "reference": "Organization/8feb2153-e38e-4b89-8024-2c1fd113df82"
      }
    }
  }, {
    "resource": {
      "resourceType": "Organization",
      "id": "8feb2153-e38e-4b89-8024-2c1fd113df82",
      "identifier": [ {
        "use": "official",
        "system": "urn:oid:2.16.840.1.113883.3.441",
        "value": "3da167513c35472184329fbc7124002b"
      } ],
      "telecom": [ {
        "system": "phone",
        "value": "770-888-3333",
        "use": "work"
      } ],
      "address": [ {
        "line": [ "1234 test" ],
        "city": "Norcross",
        "state": "GA",
        "postalCode": "30091",
        "country": "United States"
      } ]
    }
  }, {
    "resource": {
      "resourceType": "Observation",
      "id": "790c8b5d-3710-42a1-a1ad-6340f834fbef",
      "identifier": [ {
        "use": "official",
        "system": "urn:oid:2.16.840.1.113883.3.441.1.50.300011.51.26840.53",
        "value": "61379"
      } ],
      "status": "final",
      "code": {
        "coding": [ {
          "system": "http://www.ama-assn.org/go/cpt",
          "code": "19355",
          "display": "CORRECTION INVERTED NIPPLES"
        } ],
        "text": "Correction of inverted nipples"
      },
      "subject": {
        "reference": "Patient/5557df15-8a46-4ca4-8b85-d7e772a84a02",
        "display": "Three ClinicalSummary"
      },
      "effectivePeriod": {
        "start": "2013-02-12T00:00:00+01:00"
      },
      "dataAbsentReason": {
        "coding": [ {
          "system": "http://hl7.org/fhir/data-absent-reason",
          "code": "error",
          "display": "Error"
        } ]
      }
    }
  }, {
    "resource": {
      "resourceType": "Observation",
      "id": "063c3c12-853a-4d52-8736-1149e3bd247d",
      "identifier": [ {
        "use": "official",
        "system": "urn:oid:2.16.840.1.113883.3.441.1.50.300011.51.26840.53",
        "value": "61378"
      } ],
      "status": "final",
      "code": {
        "coding": [ {
          "system": "http://www.ama-assn.org/go/cpt",
          "code": "80055",
          "display": "OBSTETRIC PANEL"
        } ],
        "text": "Obstetric panel"
      },
      "subject": {
        "reference": "Patient/5557df15-8a46-4ca4-8b85-d7e772a84a02",
        "display": "Three ClinicalSummary"
      },
      "effectivePeriod": {
        "start": "2013-02-05T00:00:00+01:00"
      },
      "dataAbsentReason": {
        "coding": [ {
          "system": "http://hl7.org/fhir/data-absent-reason",
          "code": "error",
          "display": "Error"
        } ]
      }
    }
  }, {
    "resource": {
      "resourceType": "Observation",
      "id": "6e4f97dc-f046-44df-8a11-a433d643d725",
      "identifier": [ {
        "use": "official",
        "system": "urn:oid:2.16.840.1.113883.3.441.1.50.300011.51.26840.53",
        "value": "61376"
      } ],
      "status": "final",
      "code": {
        "coding": [ {
          "system": "http://www.ama-assn.org/go/cpt",
          "code": "90656",
          "display": "INFLUENZA VIRUS VACC SPLIT PRSRV FREE 3 YRS/> IM"
        } ],
        "text": "Influenza virus vaccine, split virus, preservative free, for intramuscular use"
      },
      "subject": {
        "reference": "Patient/5557df15-8a46-4ca4-8b85-d7e772a84a02",
        "display": "Three ClinicalSummary"
      },
      "effectivePeriod": {
        "start": "2013-01-22T00:00:00+01:00"
      },
      "dataAbsentReason": {
        "coding": [ {
          "system": "http://hl7.org/fhir/data-absent-reason",
          "code": "error",
          "display": "Error"
        } ]
      }
    }
  }, {
    "resource": {
      "resourceType": "Observation",
      "id": "2f149995-4efb-42a0-8579-e0423c6259c2",
      "identifier": [ {
        "use": "official",
        "system": "urn:oid:2.16.840.1.113883.3.441.1.50.300011.51.26840.53",
        "value": "61372"
      } ],
      "status": "final",
      "code": {
        "coding": [ {
          "system": "http://www.ama-assn.org/go/cpt",
          "code": "74270",
          "display": "RADEX COLON BARIUM ENEMA W/WOKUB"
        } ],
        "text": "Barium enema"
      },
      "subject": {
        "reference": "Patient/5557df15-8a46-4ca4-8b85-d7e772a84a02",
        "display": "Three ClinicalSummary"
      },
      "effectivePeriod": {
        "start": "2013-02-05T00:00:00+01:00"
      },
      "dataAbsentReason": {
        "coding": [ {
          "system": "http://hl7.org/fhir/data-absent-reason",
          "code": "error",
          "display": "Error"
        } ]
      }
    }
  }, {
    "resource": {
      "resourceType": "Observation",
      "id": "04ec3a75-ef77-4f6f-bc4a-e4154ae87c82",
      "identifier": [ {
        "use": "official",
        "system": "urn:oid:2.16.840.1.113883.3.441.1.50.300011.51.26840.53",
        "value": "61373"
      } ],
      "status": "final",
      "code": {
        "coding": [ {
          "system": "http://www.ama-assn.org/go/cpt",
          "code": "71020",
          "display": "RADIOLOGIC EXAM CHEST 2 VIEWS FRONTAL&LATERAL"
        } ],
        "text": "Chest X-Ray, PA and Lateral Views"
      },
      "subject": {
        "reference": "Patient/5557df15-8a46-4ca4-8b85-d7e772a84a02",
        "display": "Three ClinicalSummary"
      },
      "effectivePeriod": {
        "start": "2013-02-05T00:00:00+01:00"
      },
      "dataAbsentReason": {
        "coding": [ {
          "system": "http://hl7.org/fhir/data-absent-reason",
          "code": "error",
          "display": "Error"
        } ]
      }
    }
  }, {
    "resource": {
      "resourceType": "Observation",
      "id": "c52a8321-698b-4ae2-ac54-4861c8378c39",
      "identifier": [ {
        "use": "official",
        "system": "urn:oid:2.16.840.1.113883.3.441.1.50.300011.51.26840.53",
        "value": "61369"
      } ],
      "status": "final",
      "code": {
        "coding": [ {
          "system": "http://www.ama-assn.org/go/cpt",
          "code": "81001",
          "display": "URNLS DIP STICK/TABLET REAGENT AUTO MICROSCOPY"
        } ],
        "text": "Urinalysis (Dipstick, with microscopy)"
      },
      "subject": {
        "reference": "Patient/5557df15-8a46-4ca4-8b85-d7e772a84a02",
        "display": "Three ClinicalSummary"
      },
      "effectivePeriod": {
        "start": "2013-01-22T00:00:00+01:00"
      },
      "dataAbsentReason": {
        "coding": [ {
          "system": "http://hl7.org/fhir/data-absent-reason",
          "code": "error",
          "display": "Error"
        } ]
      }
    }
  }, {
    "resource": {
      "resourceType": "Observation",
      "id": "fab8de99-e38d-43a0-9b11-8cbcdcd48e3d",
      "identifier": [ {
        "use": "official",
        "system": "urn:oid:2.16.840.1.113883.3.441.1.50.300011.51.26840.53",
        "value": "61434"
      } ],
      "status": "final",
      "code": {
        "coding": [ {
          "system": "http://www.ama-assn.org/go/cpt",
          "code": "80061",
          "display": "LIPID PANEL"
        } ],
        "text": "Lipid panel"
      },
      "subject": {
        "reference": "Patient/5557df15-8a46-4ca4-8b85-d7e772a84a02",
        "display": "Three ClinicalSummary"
      },
      "effectivePeriod": {
        "start": "2013-03-20T00:00:00+01:00"
      },
      "dataAbsentReason": {
        "coding": [ {
          "system": "http://hl7.org/fhir/data-absent-reason",
          "code": "error",
          "display": "Error"
        } ]
      }
    }
  }, {
    "resource": {
      "resourceType": "Observation",
      "id": "a9dadccc-a56f-4003-a201-abdcc5b27fee",
      "identifier": [ {
        "use": "official",
        "system": "urn:oid:2.16.840.1.113883.3.441.1.50.300011.51.26840.53",
        "value": "61368"
      } ],
      "status": "final",
      "code": {
        "coding": [ {
          "system": "http://www.ama-assn.org/go/cpt",
          "code": "80072",
          "display": "ARTHRITIS PANEL THIS PANEL MUST INCLUDE THE FOLLOWING: URIC ACID"
        } ],
        "text": "Arthritis panel"
      },
      "subject": {
        "reference": "Patient/5557df15-8a46-4ca4-8b85-d7e772a84a02",
        "display": "Three ClinicalSummary"
      },
      "effectivePeriod": {
        "start": "2013-01-22T00:00:00+01:00"
      },
      "dataAbsentReason": {
        "coding": [ {
          "system": "http://hl7.org/fhir/data-absent-reason",
          "code": "error",
          "display": "Error"
        } ]
      }
    }
  }, {
    "resource": {
      "resourceType": "Observation",
      "id": "7a93a397-ecba-423d-a9fb-505a132c5ebb",
      "identifier": [ {
        "use": "official",
        "system": "urn:oid:2.16.840.1.113883.3.441.1.50.300011.51.26840.53",
        "value": "61370"
      } ],
      "status": "final",
      "code": {
        "coding": [ {
          "system": "http://www.ama-assn.org/go/cpt",
          "code": "19000",
          "display": "PUNCTURE ASPIRATION CYST BREAST"
        } ],
        "text": "Breast Aspiration"
      },
      "subject": {
        "reference": "Patient/5557df15-8a46-4ca4-8b85-d7e772a84a02",
        "display": "Three ClinicalSummary"
      },
      "effectivePeriod": {
        "start": "2013-01-22T00:00:00+01:00"
      },
      "dataAbsentReason": {
        "coding": [ {
          "system": "http://hl7.org/fhir/data-absent-reason",
          "code": "error",
          "display": "Error"
        } ]
      }
    }
  }, {
    "resource": {
      "resourceType": "Observation",
      "id": "38195b30-fb84-4956-9320-5b6b20a7ddb7",
      "identifier": [ {
        "use": "official",
        "system": "urn:oid:2.16.840.1.113883.3.441.1.50.300011.51.26840.53",
        "value": "61435"
      } ],
      "status": "final",
      "code": {
        "coding": [ {
          "system": "http://www.ama-assn.org/go/cpt",
          "code": "80061",
          "display": "LIPID PANEL"
        } ],
        "text": "Lipid panel"
      },
      "subject": {
        "reference": "Patient/5557df15-8a46-4ca4-8b85-d7e772a84a02",
        "display": "Three ClinicalSummary"
      },
      "effectivePeriod": {
        "start": "2013-03-20T00:00:00+01:00"
      },
      "dataAbsentReason": {
        "coding": [ {
          "system": "http://hl7.org/fhir/data-absent-reason",
          "code": "error",
          "display": "Error"
        } ]
      }
    }
  }, {
    "resource": {
      "resourceType": "Observation",
      "id": "2f5e892c-0895-4551-8d34-ae26b401208a",
      "identifier": [ {
        "use": "official",
        "system": "urn:oid:2.16.840.1.113883.3.441.1.50.300011.51.26840.53",
        "value": "61375"
      } ],
      "status": "final",
      "code": {
        "coding": [ {
          "system": "http://www.ama-assn.org/go/cpt",
          "code": "90396",
          "display": "VARICELLA-ZOSTER IMMUNE GLOBULIN HUMAN IM"
        } ],
        "text": "Varicella-zoster immune globulin, human, for intramuscular use"
      },
      "subject": {
        "reference": "Patient/5557df15-8a46-4ca4-8b85-d7e772a84a02",
        "display": "Three ClinicalSummary"
      },
      "effectivePeriod": {
        "start": "2013-01-22T00:00:00+01:00"
      },
      "dataAbsentReason": {
        "coding": [ {
          "system": "http://hl7.org/fhir/data-absent-reason",
          "code": "error",
          "display": "Error"
        } ]
      }
    }
  }, {
    "resource": {
      "resourceType": "Observation",
      "id": "2b098652-9f2c-44ad-aabe-fd7c6cfa220c",
      "identifier": [ {
        "use": "official",
        "system": "urn:oid:2.16.840.1.113883.3.441.1.50.300011.51.26840.53",
        "value": "61371"
      } ],
      "status": "final",
      "code": {
        "coding": [ {
          "system": "http://www.ama-assn.org/go/cpt",
          "code": "46083",
          "display": "INCISION THROMBOSED HEMORRHOID EXTERNAL"
        } ],
        "text": "Incision of thrombosed external hemorrhoid"
      },
      "subject": {
        "reference": "Patient/5557df15-8a46-4ca4-8b85-d7e772a84a02",
        "display": "Three ClinicalSummary"
      },
      "effectivePeriod": {
        "start": "2013-01-22T00:00:00+01:00"
      },
      "dataAbsentReason": {
        "coding": [ {
          "system": "http://hl7.org/fhir/data-absent-reason",
          "code": "error",
          "display": "Error"
        } ]
      }
    }
  }, {
    "resource": {
      "resourceType": "Observation",
      "id": "eb7ff59a-4c8a-4823-8f62-cbe84a9903da",
      "identifier": [ {
        "use": "official",
        "system": "urn:oid:2.16.840.1.113883.3.441.1.50.300011.51.26840.53",
        "value": "61380"
      } ],
      "status": "final",
      "code": {
        "coding": [ {
          "system": "http://www.ama-assn.org/go/cpt",
          "code": "45330",
          "display": "SIGMOIDOSCOPY FLX DX W/WO COLLJ SPECIMENS"
        } ],
        "text": "Sigmoidoscopy, flexible; diagnostic"
      },
      "subject": {
        "reference": "Patient/5557df15-8a46-4ca4-8b85-d7e772a84a02",
        "display": "Three ClinicalSummary"
      },
      "effectivePeriod": {
        "start": "2013-02-12T00:00:00+01:00"
      },
      "dataAbsentReason": {
        "coding": [ {
          "system": "http://hl7.org/fhir/data-absent-reason",
          "code": "error",
          "display": "Error"
        } ]
      }
    }
  }, {
    "resource": {
      "resourceType": "Observation",
      "id": "631807ab-4de3-4c12-8503-c0b53a25a817",
      "identifier": [ {
        "use": "official",
        "system": "urn:oid:2.16.840.1.113883.3.441.1.50.300011.51.26840.53",
        "value": "61374"
      } ],
      "status": "final",
      "code": {
        "coding": [ {
          "system": "http://www.ama-assn.org/go/cpt",
          "code": "74182",
          "display": "MRI ABDOMEN W/CONTRAST MATERIAL"
        } ],
        "text": "MRI of abdomen (with contrast)"
      },
      "subject": {
        "reference": "Patient/5557df15-8a46-4ca4-8b85-d7e772a84a02",
        "display": "Three ClinicalSummary"
      },
      "effectivePeriod": {
        "start": "2013-02-05T00:00:00+01:00"
      },
      "dataAbsentReason": {
        "coding": [ {
          "system": "http://hl7.org/fhir/data-absent-reason",
          "code": "error",
          "display": "Error"
        } ]
      }
    }
  }, {
    "resource": {
      "resourceType": "Observation",
      "id": "71afc326-e0e3-4afd-9343-f839e8bc510b",
      "identifier": [ {
        "use": "official",
        "system": "urn:oid:2.16.840.1.113883.3.441.1.50.300011.51.26840.53",
        "value": "61377"
      } ],
      "status": "final",
      "code": {
        "coding": [ {
          "system": "http://www.ama-assn.org/go/cpt",
          "code": "87797",
          "display": "IADNA NOS DIRECT PROBE TQ EACH ORGANISM"
        } ],
        "text": "DNA PROBE: other infectious agent"
      },
      "subject": {
        "reference": "Patient/5557df15-8a46-4ca4-8b85-d7e772a84a02",
        "display": "Three ClinicalSummary"
      },
      "effectivePeriod": {
        "start": "2013-02-05T00:00:00+01:00"
      },
      "dataAbsentReason": {
        "coding": [ {
          "system": "http://hl7.org/fhir/data-absent-reason",
          "code": "error",
          "display": "Error"
        } ]
      }
    }
  }, {
    "resource": {
      "resourceType": "Observation",
      "id": "07c013f6-e055-4880-8c63-03780d2b19f6",
      "identifier": [ {
        "use": "official",
        "system": "urn:oid:2.16.840.1.113883.3.441.1.50.300011.51.26840.55",
        "value": "2825"
      } ],
      "status": "final",
      "category": [ {
        "coding": [ {
          "system": "http://terminology.hl7.org/CodeSystem/observation-category",
          "code": "vital-signs",
          "display": "Vital Signs"
        } ]
      } ],
      "code": {
        "coding": [ {
          "system": "http://loinc.org",
          "code": "3141-9",
          "display": "Body Weight (Measured)"
        } ]
      },
      "subject": {
        "reference": "Patient/5557df15-8a46-4ca4-8b85-d7e772a84a02",
        "display": "Three ClinicalSummary"
      },
      "effectivePeriod": {
        "start": "2013-01-22T09:00:00+01:00"
      },
      "valueQuantity": {
        "value": 145.505,
        "unit": "[lb_av]",
        "system": "http://unitsofmeasure.org",
        "code": "[lb_av]"
      }
    }
  }, {
    "resource": {
      "resourceType": "Observation",
      "id": "241ddd7d-6cd1-4752-aa1e-afa61e4b83ff",
      "identifier": [ {
        "use": "official",
        "system": "urn:oid:2.16.840.1.113883.3.441.1.50.300011.51.26840.55",
        "value": "2822"
      } ],
      "status": "final",
      "category": [ {
        "coding": [ {
          "system": "http://terminology.hl7.org/CodeSystem/observation-category",
          "code": "vital-signs",
          "display": "Vital Signs"
        } ]
      } ],
      "code": {
        "coding": [ {
          "system": "http://loinc.org",
          "code": "8302-2",
          "display": "Body Height (Measured)"
        } ]
      },
      "subject": {
        "reference": "Patient/5557df15-8a46-4ca4-8b85-d7e772a84a02",
        "display": "Three ClinicalSummary"
      },
      "effectivePeriod": {
        "start": "2013-01-22T09:00:00+01:00"
      },
      "valueQuantity": {
        "value": 48.032,
        "unit": "[in_us]",
        "system": "http://unitsofmeasure.org",
        "code": "[in_us]"
      }
    }
  }, {
    "resource": {
      "resourceType": "Observation",
      "id": "8acc2c0a-89a5-4a42-83b5-7e87c1d13cbf",
      "identifier": [ {
        "use": "official",
        "system": "urn:oid:2.16.840.1.113883.3.441.1.50.300011.51.26840.55",
        "value": "2818"
      } ],
      "status": "final",
      "category": [ {
        "coding": [ {
          "system": "http://terminology.hl7.org/CodeSystem/observation-category",
          "code": "vital-signs",
          "display": "Vital Signs"
        } ]
      } ],
      "code": {
        "coding": [ {
          "system": "http://loinc.org",
          "code": "8480-6",
          "display": "BP Systolic"
        } ]
      },
      "subject": {
        "reference": "Patient/5557df15-8a46-4ca4-8b85-d7e772a84a02",
        "display": "Three ClinicalSummary"
      },
      "effectivePeriod": {
        "start": "2013-01-22T09:00:00+01:00"
      },
      "valueQuantity": {
        "value": 120,
        "unit": "mm[Hg]",
        "system": "http://unitsofmeasure.org",
        "code": "mm[Hg]"
      }
    }
  }, {
    "resource": {
      "resourceType": "Observation",
      "id": "89004f28-13e6-42cb-9bb3-471c170c1d98",
      "identifier": [ {
        "use": "official",
        "system": "urn:oid:2.16.840.1.113883.3.441.1.50.300011.51.26840.55",
        "value": "2821"
      } ],
      "status": "final",
      "category": [ {
        "coding": [ {
          "system": "http://terminology.hl7.org/CodeSystem/observation-category",
          "code": "vital-signs",
          "display": "Vital Signs"
        } ]
      } ],
      "code": {
        "coding": [ {
          "system": "http://loinc.org",
          "code": "8867-4",
          "display": "Heart Rate"
        } ]
      },
      "subject": {
        "reference": "Patient/5557df15-8a46-4ca4-8b85-d7e772a84a02",
        "display": "Three ClinicalSummary"
      },
      "effectivePeriod": {
        "start": "2013-01-22T09:00:00+01:00"
      },
      "valueQuantity": {
        "value": 88,
        "unit": "/min",
        "system": "http://unitsofmeasure.org",
        "code": "/min"
      }
    }
  }, {
    "resource": {
      "resourceType": "Observation",
      "id": "77903d23-ef5f-4aba-8d92-2aa3b81b5e9d",
      "identifier": [ {
        "use": "official",
        "system": "urn:oid:2.16.840.1.113883.3.441.1.50.300011.51.26840.55",
        "value": "2819"
      } ],
      "status": "final",
      "category": [ {
        "coding": [ {
          "system": "http://terminology.hl7.org/CodeSystem/observation-category",
          "code": "vital-signs",
          "display": "Vital Signs"
        } ]
      } ],
      "code": {
        "coding": [ {
          "system": "http://loinc.org",
          "code": "41909-3",
          "display": "Body Mass Index"
        } ]
      },
      "subject": {
        "reference": "Patient/5557df15-8a46-4ca4-8b85-d7e772a84a02",
        "display": "Three ClinicalSummary"
      },
      "effectivePeriod": {
        "start": "2013-01-22T09:00:00+01:00"
      },
      "valueQuantity": {
        "value": 44.3429,
        "unit": "kg/m²",
        "system": "http://unitsofmeasure.org",
        "code": "kg/m²"
      }
    }
  }, {
    "resource": {
      "resourceType": "Observation",
      "id": "3856bc9b-af65-4244-98c2-1b2fb31da535",
      "identifier": [ {
        "use": "official",
        "system": "urn:oid:2.16.840.1.113883.3.441.1.50.300011.51.26840.55",
        "value": "2823"
      } ],
      "status": "final",
      "category": [ {
        "coding": [ {
          "system": "http://terminology.hl7.org/CodeSystem/observation-category",
          "code": "vital-signs",
          "display": "Vital Signs"
        } ]
      } ],
      "code": {
        "coding": [ {
          "system": "http://loinc.org",
          "code": "9279-1",
          "display": "Respiratory Rate"
        } ]
      },
      "subject": {
        "reference": "Patient/5557df15-8a46-4ca4-8b85-d7e772a84a02",
        "display": "Three ClinicalSummary"
      },
      "effectivePeriod": {
        "start": "2013-01-22T09:00:00+01:00"
      },
      "valueQuantity": {
        "value": 22,
        "unit": "/min",
        "system": "http://unitsofmeasure.org",
        "code": "/min"
      }
    }
  }, {
    "resource": {
      "resourceType": "Observation",
      "id": "970b0ff7-b635-4faa-808f-fa7252b1470e",
      "identifier": [ {
        "use": "official",
        "system": "urn:oid:2.16.840.1.113883.3.441.1.50.300011.51.26840.55",
        "value": "2824"
      } ],
      "status": "final",
      "category": [ {
        "coding": [ {
          "system": "http://terminology.hl7.org/CodeSystem/observation-category",
          "code": "vital-signs",
          "display": "Vital Signs"
        } ]
      } ],
      "code": {
        "coding": [ {
          "system": "http://loinc.org",
          "code": "8310-5",
          "display": "Body Temperature"
        } ]
      },
      "subject": {
        "reference": "Patient/5557df15-8a46-4ca4-8b85-d7e772a84a02",
        "display": "Three ClinicalSummary"
      },
      "effectivePeriod": {
        "start": "2013-01-22T09:00:00+01:00"
      },
      "valueQuantity": {
        "value": 37,
        "unit": "C",
        "system": "http://unitsofmeasure.org",
        "code": "C"
      }
    }
  }, {
    "resource": {
      "resourceType": "Observation",
      "id": "b9855efb-c9e0-4469-b25e-d834e5bfee61",
      "identifier": [ {
        "use": "official",
        "system": "urn:oid:2.16.840.1.113883.3.441.1.50.300011.51.26840.55",
        "value": "2817"
      } ],
      "status": "final",
      "category": [ {
        "coding": [ {
          "system": "http://terminology.hl7.org/CodeSystem/observation-category",
          "code": "vital-signs",
          "display": "Vital Signs"
        } ]
      } ],
      "code": {
        "coding": [ {
          "system": "http://loinc.org",
          "code": "8462-4",
          "display": "BP Diastolic"
        } ]
      },
      "subject": {
        "reference": "Patient/5557df15-8a46-4ca4-8b85-d7e772a84a02",
        "display": "Three ClinicalSummary"
      },
      "effectivePeriod": {
        "start": "2013-01-22T09:00:00+01:00"
      },
      "valueQuantity": {
        "value": 86,
        "unit": "mm[Hg]",
        "system": "http://unitsofmeasure.org",
        "code": "mm[Hg]"
      }
    }
  }, {
    "resource": {
      "resourceType": "AllergyIntolerance",
      "id": "cdf31355-b610-4d47-8d53-30aac667c721",
      "identifier": [ {
        "use": "official",
        "system": "urn:oid:2.16.840.1.113883.3.441.1.50.300011.51.26840.57",
        "value": "1299"
      } ],
      "clinicalStatus": {
        "coding": [ {
          "system": "http://terminology.hl7.org/CodeSystem/allergyintolerance-clinical",
          "code": "active",
          "display": "Active"
        } ]
      },
      "verificationStatus": {
        "coding": [ {
          "system": "http://terminology.hl7.org/CodeSystem/allergyintolerance-verification",
          "code": "confirmed",
          "display": "Confirmed"
        } ]
      },
      "type": "allergy",
      "category": [ "environment" ],
      "code": {
        "coding": [ {
          "system": "http://www.nlm.nih.gov/research/umls/rxnorm",
          "code": "215674",
          "display": "Bicillin L-A"
        }, {
          "system": "urn:oid:2.16.840.1.113883.6.64",
          "code": "3727",
          "display": "penicillin G benzathine"
        } ],
        "text": "penicillin G benzathine"
      },
      "patient": {
        "reference": "Patient/5557df15-8a46-4ca4-8b85-d7e772a84a02",
        "display": "Three ClinicalSummary"
      }
    }
  }, {
    "resource": {
      "resourceType": "Condition",
      "id": "c7682c3a-ff0b-4614-944b-1ca3d0e94b68",
      "identifier": [ {
        "use": "official",
        "system": "urn:oid:2.16.840.1.113883.3.441.1.50.300011.51.26840.61",
        "value": "1418"
      } ],
      "clinicalStatus": {
        "coding": [ {
          "system": "http://terminology.hl7.org/CodeSystem/condition-clinical",
          "code": "active",
          "display": "Active"
        } ]
      },
      "verificationStatus": {
        "coding": [ {
          "system": "http://terminology.hl7.org/CodeSystem/condition-ver-status",
          "code": "confirmed",
          "display": "Confirmed"
        } ]
      },
      "category": [ {
        "coding": [ {
          "system": "http://terminology.hl7.org/CodeSystem/condition-category",
          "code": "problem-list-item",
          "display": "Problem List Item"
        } ]
      } ],
      "subject": {
        "reference": "Patient/5557df15-8a46-4ca4-8b85-d7e772a84a02",
        "display": "Three ClinicalSummary"
      }
    }
  }, {
    "resource": {
      "resourceType": "Condition",
      "id": "3e15b1c5-45bc-4aba-8b1a-f27d2d70a2ed",
      "identifier": [ {
        "use": "official",
        "system": "urn:oid:2.16.840.1.113883.3.441.1.50.300011.51.26840.61",
        "value": "1415"
      } ],
      "clinicalStatus": {
        "coding": [ {
          "system": "http://terminology.hl7.org/CodeSystem/condition-clinical",
          "code": "active",
          "display": "Active"
        } ]
      },
      "verificationStatus": {
        "coding": [ {
          "system": "http://terminology.hl7.org/CodeSystem/condition-ver-status",
          "code": "confirmed",
          "display": "Confirmed"
        } ]
      },
      "category": [ {
        "coding": [ {
          "system": "http://terminology.hl7.org/CodeSystem/condition-category",
          "code": "problem-list-item",
          "display": "Problem List Item"
        } ]
      } ],
      "subject": {
        "reference": "Patient/5557df15-8a46-4ca4-8b85-d7e772a84a02",
        "display": "Three ClinicalSummary"
      }
    }
  }, {
    "resource": {
      "resourceType": "Condition",
      "id": "278935ee-e67c-49e7-9dc1-0223bf30ed5a",
      "identifier": [ {
        "use": "official",
        "system": "urn:oid:2.16.840.1.113883.3.441.1.50.300011.51.26840.61",
        "value": "1416"
      } ],
      "clinicalStatus": {
        "coding": [ {
          "system": "http://terminology.hl7.org/CodeSystem/condition-clinical",
          "code": "active",
          "display": "Active"
        } ]
      },
      "verificationStatus": {
        "coding": [ {
          "system": "http://terminology.hl7.org/CodeSystem/condition-ver-status",
          "code": "confirmed",
          "display": "Confirmed"
        } ]
      },
      "category": [ {
        "coding": [ {
          "system": "http://terminology.hl7.org/CodeSystem/condition-category",
          "code": "problem-list-item",
          "display": "Problem List Item"
        } ]
      } ],
      "subject": {
        "reference": "Patient/5557df15-8a46-4ca4-8b85-d7e772a84a02",
        "display": "Three ClinicalSummary"
      }
    }
  }, {
    "resource": {
      "resourceType": "Condition",
      "id": "7eedbc37-93c7-4ca9-a765-be4c065204d1",
      "identifier": [ {
        "use": "official",
        "system": "urn:oid:2.16.840.1.113883.3.441.1.50.300011.51.26840.61",
        "value": "1417"
      } ],
      "clinicalStatus": {
        "coding": [ {
          "system": "http://terminology.hl7.org/CodeSystem/condition-clinical",
          "code": "active",
          "display": "Active"
        } ]
      },
      "verificationStatus": {
        "coding": [ {
          "system": "http://terminology.hl7.org/CodeSystem/condition-ver-status",
          "code": "confirmed",
          "display": "Confirmed"
        } ]
      },
      "category": [ {
        "coding": [ {
          "system": "http://terminology.hl7.org/CodeSystem/condition-category",
          "code": "problem-list-item",
          "display": "Problem List Item"
        } ]
      } ],
      "subject": {
        "reference": "Patient/5557df15-8a46-4ca4-8b85-d7e772a84a02",
        "display": "Three ClinicalSummary"
      }
    }
  } ]
}