{
  "resourceType": "Bundle",
  "entry": [ {
    "resource": {
      "resourceType": "Composition",
      "id": "faff1dd3-a3af-44dc-b6b8-e5bb75db6364",
      "identifier": {
        "use": "official",
        "system": "urn:oid:2.16.840.1.113883.3.441",
        "value": "f9f91213bb774c2da5b04bfeb8d51682"
      },
      "status": "preliminary",
      "type": {
        "coding": [ {
          "system": "http://loinc.org",
          "code": "34133-9",
          "display": "Summarization of episode note"
        } ]
      },
      "category": [ {
        "coding": [ {
          "system": "http://hl7.org/fhir/ValueSet/doc-classcodes",
          "code": "LP173421-7",
          "display": "Note"
        } ]
      } ],
      "subject": {
        "reference": "Patient/39659f6a-ea36-4e24-b2b3-094823f7c613",
        "display": "Isabella Jones"
      },
      "date": "2013-07-01T10:34:45-04:00",
      "author": [ {
        "reference": "Practitioner/e1ba4e25-d812-4c1b-af32-f1163a772905"
      } ],
      "title": "MU2 Export Summary",
      "confidentiality": "N",
      "custodian": {
        "reference": "Organization/99f68c7c-d182-43c0-b9b5-dc13a502cc53",
        "display": "Get Well Clinic"
      },
      "event": [ {
        "detail": [ {
          "reference": "Practitioner/b1feea49-a3c8-445e-8493-6c1c22c66708"
        }, {
          "reference": "Practitioner/d9db9029-aa44-4f1a-bf20-b2c9cce5fbf8",
          "display": "Robert Adams"
        }, {
          "reference": "Practitioner/10e82a6c-b78b-4f2c-a350-df4ea6ef2391",
          "display": "Holly Garner"
        }, {
          "reference": "Practitioner/74199bc9-9c60-4a79-ae7d-dec6103735c5",
          "display": "Henry Seven"
        }, {
          "reference": "Practitioner/0b76119b-0f31-46a3-bcac-2d60860525bc",
          "display": "Nicholas Radon"
        } ]
      } ],
      "section": [ {
        "title": "Medications",
        "code": {
          "coding": [ {
            "system": "http://loinc.org",
            "code": "10160-0",
            "display": "History of medication use"
          } ]
        },
        "text": {
          "status": "additional",
          "div": "<div xmlns=\"http://www.w3.org/1999/xhtml\">            <table border=\"1\">              <thead>                <tr>                  <th colspan=\"5\">Active</th>                </tr>                <tr>                  <th>Name</th>                  <th>Start Date</th>                  <th>Estimated Completion Date</th>                  <th>SIG</th>                  <th>Comments</th>                </tr>              </thead>              <tbody>                <tr>                  <td>clarithromycin Oral Tablet 500 mg</td>                  <td>                  </td>                  <td>                  </td>                  <td>take 1 tablet (500 mg) by oral route every 12 hours for 14 days</td>                  <td>                  </td>                </tr>                <tr>                  <td>metoprolol tartrate Oral Tablet 25 mg</td>                  <td>                  </td>                  <td>                  </td>                  <td>take 2 tablets (50 mg) by oral route once daily for 30 days</td>                  <td>                  </td>                </tr>                <tr>                  <td>Proventil HFA Inhalation HFA Aerosol Inhaler 90 mcg/actuation</td>                  <td>8/6/2012</td>                  <td>                  </td>                  <td>inhale 2 puffs once</td>                  <td>                  </td>                </tr>              </tbody>            </table>            <table border=\"1\">              <thead>                <tr>                  <th colspan=\"5\">Expired</th>                </tr>                <tr>                  <th>Name</th>                  <th>Start Date</th>                  <th>Expiration Date</th>                  <th>SIG</th>                  <th>Comments</th>                </tr>              </thead>              <tbody>                <tr>                  <td>albuterol sulfate Inhalation HFA Aerosol Inhaler 90 mcg/actuation</td>                  <td>5/30/2013</td>                  <td>6/29/2013</td>                  <td>inhale 1 puff by inhalation route every 6 hours as needed for 30 days</td>                  <td>                  </td>                </tr>              </tbody>            </table>          </div>"
        },
        "mode": "snapshot",
        "entry": [ {
          "reference": "MedicationStatement/315831a1-5078-482a-a442-d58d9c3b517e",
          "display": "clarithromycin Oral Tablet 500 mg"
        }, {
          "reference": "MedicationStatement/1b7be3aa-023a-4e44-8918-1eb9b241f502",
          "display": "metoprolol tartrate Oral Tablet 25 mg"
        } ]
      }, {
        "title": "History of Procedures",
        "code": {
          "coding": [ {
            "system": "http://loinc.org",
            "code": "47519-4",
            "display": "History of procedures"
          } ]
        },
        "text": {
          "status": "additional",
          "div": "<div xmlns=\"http://www.w3.org/1999/xhtml\">            <table border=\"1\">              <thead>                <tr>                  <th>Date Ordered</th>                  <th>Description</th>                  <th>Order Status</th>                  <th>Result Status</th>                </tr>              </thead>              <tbody>                <tr>                  <td>8/6/2012 12:00 AM</td>                  <td>Chest X-Ray, PA and Lateral Views</td>                  <td>Ordered</td>                  <td>                  </td>                </tr>                <tr>                  <td>8/13/2012 12:00 AM</td>                  <td>X ray of sternoclavicular joints, 3 views</td>                  <td>Ordered</td>                  <td>                  </td>                </tr>                <tr>                  <td>8/13/2012 12:00 AM</td>                  <td>Hemoglobin</td>                  <td>Ordered</td>                  <td>                  </td>                </tr>                <tr>                  <td>9/22/2012 12:00 AM</td>                  <td>Colonoscopy, flexible, proximal to splenic flexure; diagnostic, with or without collection of specimen(s) by brushing or washing, with or without colon decompression (separate procedure)</td>                  <td>Ordered</td>                  <td>                  </td>                </tr>                <tr>                  <td>8/6/2012 12:00 AM</td>                  <td>Sputum, obtaining specimen, aerosol induced technique (separate procedure)</td>                  <td>Pending</td>                  <td>                  </td>                </tr>              </tbody>            </table>          </div>"
        },
        "mode": "snapshot",
        "entry": [ {
          "reference": "Observation/281c5f9c-95ca-4529-a2f6-215e83932014",
          "display": "Chest X-Ray, PA and Lateral Views"
        }, {
          "reference": "Observation/64e049dc-5bb8-4fb2-b26a-9ff5a4d651f8",
          "display": "Hemoglobin"
        }, {
          "reference": "Observation/1a8f1e7f-a9ef-454f-9a65-11aa901cc7f9",
          "display": "Colonoscopy, flexible, proximal to splenic flexure; diagnostic, with or without collection of specimen(s) by brushing or washing, with or without colon decompression (separate procedure)"
        }, {
          "reference": "Observation/29ee4877-cf62-4c02-acd7-406b433fa6d9",
          "display": "X ray of sternoclavicular joints, 3 views"
        }, {
          "reference": "Observation/c71ab431-7761-414d-9c2b-c007d209c48a",
          "display": "Sputum, obtaining specimen, aerosol induced technique (separate procedure)"
        } ]
      }, {
        "title": "Plan of Treatment",
        "code": {
          "coding": [ {
            "system": "http://loinc.org",
            "code": "18776-5",
            "display": "Treatment Plan"
          } ]
        },
        "text": {
          "status": "additional",
          "div": "<div xmlns=\"http://www.w3.org/1999/xhtml\">            <table border=\"1\">              <thead>                <tr>                  <th>Planned Activity</th>                  <th>Comments</th>                  <th>Planned Date</th>                  <th>Planned Time</th>                  <th>Plan/Goal</th>                </tr>              </thead>              <tbody>                <tr>                  <td>pulmonology consult</td>                  <td>                  </td>                  <td>8/13/2012</td>                  <td>4:00 PM</td>                  <td>                  </td>                </tr>                <tr>                  <td>Smoking Cessation Plan</td>                  <td>                  </td>                  <td>8/6/2012</td>                  <td>2:02 PM</td>                  <td>Resources and instructions provided during visit</td>                </tr>                <tr>                  <td>Smoking Cessation: Goal</td>                  <td>                  </td>                  <td>8/6/2012</td>                  <td>2:02 PM</td>                  <td>Quit smoking</td>                </tr>                <tr>                  <td>Chest X-Ray, PA and Lateral Views</td>                  <td>                  </td>                  <td>8/6/2012</td>                  <td>12:00 AM</td>                  <td>                  </td>                </tr>                <tr>                  <td>X ray of sternoclavicular joints, 3 views</td>                  <td>                  </td>                  <td>8/13/2012</td>                  <td>12:00 AM</td>                  <td>                  </td>                </tr>                <tr>                  <td>Hemoglobin</td>                  <td>                  </td>                  <td>8/13/2012</td>                  <td>12:00 AM</td>                  <td>                  </td>                </tr>                <tr>                  <td>Sputum, obtaining specimen, aerosol induced technique (separate procedure)</td>                  <td>                  </td>                  <td>8/6/2012</td>                  <td>12:00 AM</td>                  <td>                  </td>                </tr>              </tbody>            </table>          </div>"
        },
        "mode": "snapshot",
        "entry": [ {
          "reference": "CarePlan/4d10a59d-04a0-4a4f-a6e1-547958aa7a08"
        } ]
      }, {
        "title": "Social History",
        "code": {
          "coding": [ {
            "system": "http://loinc.org",
            "code": "29762-2",
            "display": "Social history"
          } ]
        },
        "text": {
          "status": "additional",
          "div": "<div xmlns=\"http://www.w3.org/1999/xhtml\">            <table border=\"1\">              <thead>                <tr>                  <th>Name</th>                  <th>Status</th>                  <th>Comments</th>                </tr>              </thead>              <tbody>                <tr>                  <td>Tobacco</td>                  <td>Current</td>                  <td>                  </td>                </tr>              </tbody>            </table>          </div>"
        },
        "mode": "snapshot",
        "entry": [ {
          "reference": "Observation/f23ebfef-0094-4b1f-be34-6d26f438f766"
        } ]
      }, {
        "title": "Functional Status Assessment",
        "code": {
          "coding": [ {
            "system": "http://loinc.org",
            "code": "47420-5",
            "display": "Functional status assessment"
          } ]
        },
        "text": {
          "status": "additional",
          "div": "<div xmlns=\"http://www.w3.org/1999/xhtml\">Not available.</div>"
        },
        "mode": "snapshot"
      }, {
        "title": "Allergies and Adverse Reactions",
        "code": {
          "coding": [ {
            "system": "http://loinc.org",
            "code": "48765-2",
            "display": "Allergies, adverse reactions, alerts"
          } ]
        },
        "text": {
          "status": "additional",
          "div": "<div xmlns=\"http://www.w3.org/1999/xhtml\">            <table border=\"1\">              <thead>                <tr>                  <th>Name</th>                  <th>Reaction</th>                  <th>Notes</th>                </tr>              </thead>              <tbody>                <tr>                  <td>aspirin</td>                  <td>                  </td>                  <td>                  </td>                </tr>                <tr>                  <td>codeine sulfate</td>                  <td>                  </td>                  <td>                  </td>                </tr>                <tr>                  <td>penicillin G benzathine</td>                  <td>                  </td>                  <td>                  </td>                </tr>              </tbody>            </table>          </div>"
        },
        "mode": "snapshot",
        "entry": [ {
          "reference": "AllergyIntolerance/bb8f0c01-75d6-457e-8a46-0090fca8e7c5",
          "display": "aspirin"
        }, {
          "reference": "AllergyIntolerance/9f4d6310-7bc9-42dc-ba88-6aecd102be5c",
          "display": "codeine sulfate"
        }, {
          "reference": "AllergyIntolerance/e6704678-bf76-4b6d-88c5-20219d477c95",
          "display": "penicillin G benzathine"
        } ]
      }, {
        "title": "Results Summary",
        "code": {
          "coding": [ {
            "system": "http://loinc.org",
            "code": "30954-2",
            "display": "Relevant diagnostic tests and/or laboratory data"
          } ]
        },
        "text": {
          "status": "additional",
          "div": "<div xmlns=\"http://www.w3.org/1999/xhtml\">            <table border=\"1\">              <thead>                <tr>                  <th>Data and Description</th>                  <th>Results</th>                </tr>              </thead>              <tbody>                <tr>                  <td>8/6/2012 2:01 PM</td>                  <td>                    <ul>                      <li>Hct Fr Bld Auto 45.0 %</li>                    </ul>                  </td>                </tr>                <tr>                  <td>8/6/2012 2:01 PM</td>                  <td>                    <ul>                      <li>Hgb Bld-mCnc 14.20 g/dL</li>                      <li>Platelet # Bld Auto 220.0 x10E3/uL</li>                      <li>WBC # Bld Auto 7.60 x10E3/uL</li>                    </ul>                  </td>                </tr>              </tbody>            </table>          </div>"
        },
        "mode": "snapshot",
        "entry": [ {
          "reference": "DiagnosticReport/cadf1ecc-3b96-418b-83af-4075a1ebcf01"
        }, {
          "reference": "DiagnosticReport/a3a6bd13-c894-4c11-9101-f815cc62abb4"
        }, {
          "reference": "DiagnosticReport/c5ef7ba5-f0d3-4ec9-8f1b-c980bfffafb4"
        }, {
          "reference": "DiagnosticReport/6f09492d-51db-48cd-83ff-355def8e89f8"
        } ]
      }, {
        "title": "Vital Signs",
        "code": {
          "coding": [ {
            "system": "http://loinc.org",
            "code": "8716-3",
            "display": "Vital signs"
          } ]
        },
        "text": {
          "status": "additional",
          "div": "<div xmlns=\"http://www.w3.org/1999/xhtml\">            <table border=\"1\">              <thead>                <tr>                  <th>Date</th>                  <th>Time</th>                  <th>BP-Sys(mm[Hg]</th>                  <th>BP-Dia(mm[Hg])</th>                  <th>HR(bpm)</th>                  <th>RR(rpm)</th>                  <th>Temp</th>                  <th>WT</th>                  <th>HT</th>                  <th>BMI</th>                  <th>BSA</th>                  <th>BMI Percentile</th>                  <th>O2 Sat(%)</th>                </tr>              </thead>              <tbody>                <tr>                  <td>8/6/2012</td>                  <td>1:59:00 PM</td>                  <td>135 mmHg</td>                  <td>92 mmHg</td>                  <td>                  </td>                  <td>                  </td>                  <td>                  </td>                  <td>194.007 lbs</td>                  <td>69.685 in</td>                  <td>28.089 kg/m²</td>                  <td>2.0801 m²</td>                  <td>                  </td>                  <td>                  </td>                </tr>              </tbody>            </table>          </div>"
        },
        "mode": "snapshot",
        "entry": [ {
          "reference": "Observation/f321f1cd-9e4c-4e86-8475-b72ae244f297",
          "display": "Body Height (Measured)"
        }, {
          "reference": "Observation/baeaf22a-130a-46c4-a53c-6a27a92f917f",
          "display": "Body Weight (Measured)"
        }, {
          "reference": "Observation/9ce5c279-381c-48c4-9ce0-40e4ea7d3763",
          "display": "BP Diastolic"
        }, {
          "reference": "Observation/7d8adc51-bf28-4868-9e4d-75d11966123f",
          "display": "Body Mass Index"
        }, {
          "reference": "Observation/68a609b7-eb0d-4344-acee-f4c8c229a668",
          "display": "BP Systolic"
        } ]
      }, {
        "title": "History Of Immunizations",
        "code": {
          "coding": [ {
            "system": "http://loinc.org",
            "code": "11369-6",
            "display": "History of immunizations"
          } ]
        },
        "text": {
          "status": "additional",
          "div": "<div xmlns=\"http://www.w3.org/1999/xhtml\">            <table border=\"1\">              <thead>                <tr>                  <th>Name</th>                  <th>Date Admin</th>                  <th>Mfg Name</th>                  <th>Mfg Code</th>                  <th>Trade Name</th>                  <th>Lot#</th>                  <th>Route</th>                  <th>Inj</th>                  <th>Vis Given</th>                  <th>Vis Pub</th>                  <th>CVX</th>                </tr>              </thead>              <tbody>                <tr>                  <td>Tetanus - diphtheria</td>                  <td>1/4/2007</td>                  <td>Not Entered</td>                  <td>NE</td>                  <td>Not Entered</td>                  <td>                  </td>                  <td>Not Entered</td>                  <td>Not Entered</td>                  <td>8/6/2012</td>                  <td>1/1/0001</td>                  <td>09</td>                </tr>                <tr>                  <td>pneumococcal</td>                  <td>8/6/2012</td>                  <td>Not Entered</td>                  <td>NE</td>                  <td>Not Entered</td>                  <td>                  </td>                  <td>Not Entered</td>                  <td>Not Entered</td>                  <td>8/6/2012</td>                  <td>1/1/0001</td>                  <td>33</td>                </tr>                <tr>                  <td>PCV</td>                  <td>4/23/2013</td>                  <td>Not Entered</td>                  <td>NE</td>                  <td>Not Entered</td>                  <td>                  </td>                  <td>Not Entered</td>                  <td>Not Entered</td>                  <td>4/23/2013</td>                  <td>1/1/0001</td>                  <td>133</td>                </tr>                <tr>                  <td>Varicella</td>                  <td>4/23/2013</td>                  <td>Not Entered</td>                  <td>NE</td>                  <td>Not Entered</td>                  <td>                  </td>                  <td>Not Entered</td>                  <td>Not Entered</td>                  <td>4/23/2013</td>                  <td>1/1/0001</td>                  <td>21</td>                </tr>                <tr>                  <td>Meningococcal</td>                  <td>4/23/2013</td>                  <td>Not Entered</td>                  <td>NE</td>                  <td>Not Entered</td>                  <td>                  </td>                  <td>Not Entered</td>                  <td>Not Entered</td>                  <td>4/23/2013</td>                  <td>1/1/0001</td>                  <td>114</td>                </tr>                <tr>                  <td>PCV</td>                  <td>4/23/2013</td>                  <td>Not Entered</td>                  <td>NE</td>                  <td>Not Entered</td>                  <td>                  </td>                  <td>Not Entered</td>                  <td>Not Entered</td>                  <td>4/23/2013</td>                  <td>1/1/0001</td>                  <td>33</td>                </tr>                <tr>                  <td>MMR</td>                  <td>4/23/2013</td>                  <td>Not Entered</td>                  <td>NE</td>                  <td>Not Entered</td>                  <td>                  </td>                  <td>Not Entered</td>                  <td>Not Entered</td>                  <td>4/23/2013</td>                  <td>1/1/0001</td>                  <td>146</td>                </tr>              </tbody>            </table>          </div>"
        },
        "mode": "snapshot",
        "entry": [ {
          "reference": "Immunization/9dd30f8e-378d-47d4-9e62-33c7291cecee",
          "display": "Tetanus - diphtheria"
        }, {
          "reference": "Immunization/85a6e88c-538c-4fd1-925d-df3c52ad4b7b",
          "display": "MMR"
        }, {
          "reference": "Immunization/aaeba85b-b908-4d1f-9b7e-40ae561eba7c",
          "display": "pneumococcal"
        }, {
          "reference": "Immunization/d453b199-e9be-4323-81cf-7449aba5d600",
          "display": "Meningococcal"
        }, {
          "reference": "Immunization/24c96c25-5b53-4c8e-91ee-07acf4523e69",
          "display": "PCV"
        }, {
          "reference": "Immunization/19befc5e-068d-4a30-9dc6-453b9c0904eb",
          "display": "PCV"
        }, {
          "reference": "Immunization/138323c0-fc5b-49ae-acb1-84974b1875e3",
          "display": "Varicella"
        } ]
      }, {
        "title": "Problem List",
        "code": {
          "coding": [ {
            "system": "http://loinc.org",
            "code": "11450-4",
            "display": "Problem list"
          } ]
        },
        "text": {
          "status": "additional",
          "div": "<div xmlns=\"http://www.w3.org/1999/xhtml\">            <table border=\"1\">              <thead>                <tr>                  <th>Description</th>                  <th>Status</th>                  <th>Onset</th>                </tr>              </thead>              <tbody>                <tr>                  <td>Asthma</td>                  <td>Active</td>                  <td>                  </td>                </tr>                <tr>                  <td>Hypoxemia</td>                  <td>Active</td>                  <td>                  </td>                </tr>                <tr>                  <td>Community Acquired Pneumonia</td>                  <td>Active</td>                  <td>                  </td>                </tr>              </tbody>            </table>          </div>"
        },
        "mode": "snapshot",
        "entry": [ {
          "reference": "Condition/bf7af5a0-86ab-4521-a9ff-17eb05b76517"
        }, {
          "reference": "Condition/ca46a236-c81d-4870-8504-265359e10f49"
        }, {
          "reference": "Condition/d9dd34c1-8c7c-4fd3-8bd8-8868993490e2"
        } ]
      } ]
    }
  }, {
    "resource": {
      "resourceType": "Patient",
      "id": "39659f6a-ea36-4e24-b2b3-094823f7c613",
      "extension": [ {
        "url": "http://hl7.org/fhir/us/core/StructureDefinition/us-core-race",
        "extension": [ {
          "url": "text",
          "valueString": "White"
        }, {
          "url": "ombCategory",
          "valueCoding": {
            "system": "urn:oid:2.16.840.1.113883.6.238",
            "code": "2106-3",
            "display": "White"
          }
        } ]
      }, {
        "url": "http://hl7.org/fhir/us/core/StructureDefinition/us-core-ethnicity",
        "extension": [ {
          "url": "text",
          "valueString": "Not Hispanic or Latino"
        }, {
          "url": "ombCategory",
          "valueCoding": {
            "system": "urn:oid:2.16.840.1.113883.6.238",
            "code": "2186-5",
            "display": "Not Hispanic or Latino"
          }
        } ]
      } ],
      "identifier": [ {
        "use": "official",
        "system": "urn:oid:2.16.840.1.113883.3.441.1.50.300011.51",
        "value": "26933"
      } ],
      "name": [ {
        "family": "Jones",
        "given": [ "Isabella" ]
      } ],
      "telecom": [ {
        "system": "phone",
        "value": "816-276-6909",
        "use": "home"
      } ],
      "gender": "female",
      "birthDate": "1947-05-01",
      "address": [ {
        "line": [ "1357 Amber Drive" ],
        "city": "Aloha",
        "state": "OR",
        "postalCode": "97006",
        "country": "UNK"
      } ],
      "maritalStatus": {
        "coding": [ {
          "system": "http://terminology.hl7.org/CodeSystem/v3-MaritalStatus",
          "code": "S",
          "display": "Never Married"
        } ]
      },
      "communication": [ {
        "language": {
          "coding": [ {
            "system": "urn:ietf:bcp:47",
            "code": "eng"
          } ]
        }
      } ],
      "managingOrganization": {
        "reference": "Organization/99f68c7c-d182-43c0-b9b5-dc13a502cc53",
        "display": "Get Well Clinic"
      }
    }
  }, {
    "resource": {
      "resourceType": "Organization",
      "id": "99f68c7c-d182-43c0-b9b5-dc13a502cc53",
      "identifier": [ {
        "use": "official",
        "system": "urn:oid:2.16.840.1.113883.3.441.1.50",
        "value": "300011"
      } ],
      "name": "Get Well Clinic",
      "telecom": [ {
        "system": "phone",
        "value": "555-555-1004",
        "use": "work"
      } ],
      "address": [ {
        "line": [ "1004 Healthcare Dr. practice" ],
        "city": "Portland",
        "state": "OR",
        "postalCode": "97005",
        "country": "United States"
      } ]
    }
  }, {
    "resource": {
      "resourceType": "Practitioner",
      "id": "e1ba4e25-d812-4c1b-af32-f1163a772905",
      "identifier": [ {
        "use": "official",
        "system": "urn:oid:2.16.840.1.113883.4.6",
        "value": "992bcb0a759544dea771d186f9ca6aee"
      } ],
      "telecom": [ {
        "system": "phone",
        "value": "555-555-1004",
        "use": "work"
      } ],
      "address": [ {
        "line": [ "1004 Healthcare Dr. practice" ],
        "city": "Portland",
        "state": "OR",
        "postalCode": "97005",
        "country": "United States"
      } ]
    }
  }, {
    "resource": {
      "resourceType": "PractitionerRole",
      "id": "54e9aad5-12bd-4c58-b8d8-769130208924",
      "practitioner": {
        "reference": "Practitioner/e1ba4e25-d812-4c1b-af32-f1163a772905"
      },
      "organization": {
        "reference": "Organization/99f68c7c-d182-43c0-b9b5-dc13a502cc53",
        "display": "Get Well Clinic"
      }
    }
  }, {
    "resource": {
      "resourceType": "Practitioner",
      "id": "b1feea49-a3c8-445e-8493-6c1c22c66708",
      "identifier": [ {
        "use": "official",
        "system": "http://hl7.org/fhir/sid/us-npi",
        "value": "UNK"
      } ]
    }
  }, {
    "resource": {
      "resourceType": "Practitioner",
      "id": "d9db9029-aa44-4f1a-bf20-b2c9cce5fbf8",
      "identifier": [ {
        "use": "official",
        "system": "http://hl7.org/fhir/sid/us-npi",
        "value": "2.16.840.1.113883.4.6"
      } ],
      "name": [ {
        "family": "Adams",
        "given": [ "Robert" ]
      } ]
    }
  }, {
    "resource": {
      "resourceType": "Practitioner",
      "id": "10e82a6c-b78b-4f2c-a350-df4ea6ef2391",
      "identifier": [ {
        "use": "official",
        "system": "http://hl7.org/fhir/sid/us-npi",
        "value": "4646565"
      } ],
      "name": [ {
        "family": "Garner",
        "given": [ "Holly" ]
      } ]
    }
  }, {
    "resource": {
      "resourceType": "Practitioner",
      "id": "74199bc9-9c60-4a79-ae7d-dec6103735c5",
      "identifier": [ {
        "use": "official",
        "system": "http://hl7.org/fhir/sid/us-npi",
        "value": "2.16.840.1.113883.4.6"
      } ],
      "name": [ {
        "family": "Seven",
        "given": [ "Henry" ]
      } ]
    }
  }, {
    "resource": {
      "resourceType": "Practitioner",
      "id": "0b76119b-0f31-46a3-bcac-2d60860525bc",
      "identifier": [ {
        "use": "official",
        "system": "http://hl7.org/fhir/sid/us-npi",
        "value": "2.16.840.1.113883.4.6"
      } ],
      "name": [ {
        "family": "Radon",
        "given": [ "Nicholas" ]
      } ]
    }
  }, {
    "resource": {
      "resourceType": "MedicationStatement",
      "id": "315831a1-5078-482a-a442-d58d9c3b517e",
      "extension": [ {
        "url": "http://hl7.org/fhir/3.0/StructureDefinition/extension-MedicationStatement.status",
        "valueCode": "UNKNOWN"
      } ],
      "identifier": [ {
        "use": "official",
        "system": "urn:oid:2.16.840.1.113883.3.441.1.50.300011.51.26933.58",
        "value": "2060"
      } ],
      "status": "completed",
      "medicationReference": {
        "reference": "Medication/893ea99c-0780-4631-ac91-872f633a1351",
        "display": "clarithromycin Oral Tablet 500 mg"
      },
      "subject": {
        "reference": "Patient/39659f6a-ea36-4e24-b2b3-094823f7c613",
        "display": "Isabella Jones"
      },
      "dosage": [ {
        "doseAndRate": [ {
          "doseQuantity": {
            "value": 1,
            "unit": "tablet",
            "system": "http://unitsofmeasure.org/ucum.html"
          }
        } ]
      } ]
    }
  }, {
    "resource": {
      "resourceType": "Medication",
      "id": "893ea99c-0780-4631-ac91-872f633a1351",
      "code": {
        "coding": [ {
          "code": "177323",
          "display": "clarithromycin Oral Tablet 500 mg"
        }, {
          "system": "http://www.nlm.nih.gov/research/umls/rxnorm",
          "code": "197517",
          "display": "Clarithromycin 500 MG Oral Tablet"
        } ],
        "text": "clarithromycin Oral Tablet 500 mg"
      }
    }
  }, {
    "resource": {
      "resourceType": "MedicationStatement",
      "id": "1b7be3aa-023a-4e44-8918-1eb9b241f502",
      "extension": [ {
        "url": "http://hl7.org/fhir/3.0/StructureDefinition/extension-MedicationStatement.status",
        "valueCode": "UNKNOWN"
      } ],
      "identifier": [ {
        "use": "official",
        "system": "urn:oid:2.16.840.1.113883.3.441.1.50.300011.51.26933.58",
        "value": "2061"
      } ],
      "status": "completed",
      "medicationReference": {
        "reference": "Medication/8537e1d2-9fba-41d1-a459-33dd1d9078b8",
        "display": "metoprolol tartrate Oral Tablet 25 mg"
      },
      "subject": {
        "reference": "Patient/39659f6a-ea36-4e24-b2b3-094823f7c613",
        "display": "Isabella Jones"
      },
      "dosage": [ {
        "doseAndRate": [ {
          "doseQuantity": {
            "value": 2,
            "unit": "tablet",
            "system": "http://unitsofmeasure.org/ucum.html"
          }
        } ]
      } ]
    }
  }, {
    "resource": {
      "resourceType": "Medication",
      "id": "8537e1d2-9fba-41d1-a459-33dd1d9078b8",
      "code": {
        "coding": [ {
          "code": "453953",
          "display": "metoprolol tartrate Oral Tablet 25 mg"
        }, {
          "system": "http://www.nlm.nih.gov/research/umls/rxnorm",
          "code": "866924",
          "display": "Metoprolol Tartrate 25 MG Oral Tablet"
        } ],
        "text": "metoprolol tartrate Oral Tablet 25 mg"
      }
    }
  }, {
    "resource": {
      "resourceType": "Observation",
      "id": "281c5f9c-95ca-4529-a2f6-215e83932014",
      "identifier": [ {
        "use": "official",
        "system": "urn:oid:2.16.840.1.113883.3.441.1.50.300011.51.26933.53",
        "value": "61407"
      } ],
      "status": "final",
      "code": {
        "coding": [ {
          "system": "http://www.ama-assn.org/go/cpt",
          "code": "71020",
          "display": "RADIOLOGIC EXAM CHEST 2 VIEWS FRONTAL&LATERAL"
        } ],
        "text": "Chest X-Ray, PA and Lateral Views"
      },
      "subject": {
        "reference": "Patient/39659f6a-ea36-4e24-b2b3-094823f7c613",
        "display": "Isabella Jones"
      },
      "effectivePeriod": {
        "start": "2012-08-06T00:00:00+02:00"
      },
      "dataAbsentReason": {
        "coding": [ {
          "system": "http://hl7.org/fhir/data-absent-reason",
          "code": "error",
          "display": "Error"
        } ]
      }
    }
  }, {
    "resource": {
      "resourceType": "Observation",
      "id": "64e049dc-5bb8-4fb2-b26a-9ff5a4d651f8",
      "identifier": [ {
        "use": "official",
        "system": "urn:oid:2.16.840.1.113883.3.441.1.50.300011.51.26933.53",
        "value": "61409"
      } ],
      "status": "final",
      "code": {
        "coding": [ {
          "system": "http://www.ama-assn.org/go/cpt",
          "code": "85018",
          "display": "BLOOD COUNT HEMOGLOBIN"
        } ],
        "text": "Hemoglobin"
      },
      "subject": {
        "reference": "Patient/39659f6a-ea36-4e24-b2b3-094823f7c613",
        "display": "Isabella Jones"
      },
      "effectivePeriod": {
        "start": "2012-08-13T00:00:00+02:00"
      },
      "dataAbsentReason": {
        "coding": [ {
          "system": "http://hl7.org/fhir/data-absent-reason",
          "code": "error",
          "display": "Error"
        } ]
      }
    }
  }, {
    "resource": {
      "resourceType": "Observation",
      "id": "1a8f1e7f-a9ef-454f-9a65-11aa901cc7f9",
      "identifier": [ {
        "use": "official",
        "system": "urn:oid:2.16.840.1.113883.3.441.1.50.300011.51.26933.53",
        "value": "61410"
      } ],
      "status": "final",
      "code": {
        "coding": [ {
          "system": "http://www.ama-assn.org/go/cpt",
          "code": "45378",
          "display": "COLONOSCOPY FLX DX W/WO COLLJ SPECIMENS"
        } ],
        "text": "Colonoscopy, flexible, proximal to splenic flexure; diagnostic, with or without collection of specimen(s) by brushing or washing, with or without colon decompression (separate procedure)"
      },
      "subject": {
        "reference": "Patient/39659f6a-ea36-4e24-b2b3-094823f7c613",
        "display": "Isabella Jones"
      },
      "effectivePeriod": {
        "start": "2012-09-22T00:00:00+02:00"
      },
      "dataAbsentReason": {
        "coding": [ {
          "system": "http://hl7.org/fhir/data-absent-reason",
          "code": "error",
          "display": "Error"
        } ]
      }
    }
  }, {
    "resource": {
      "resourceType": "Observation",
      "id": "29ee4877-cf62-4c02-acd7-406b433fa6d9",
      "identifier": [ {
        "use": "official",
        "system": "urn:oid:2.16.840.1.113883.3.441.1.50.300011.51.26933.53",
        "value": "61408"
      } ],
      "status": "final",
      "code": {
        "coding": [ {
          "system": "http://www.ama-assn.org/go/cpt",
          "code": "71130",
          "display": "RADEX STERNOCLAVICULAR JT/JTS MINIMUM 3 VIEWS"
        } ],
        "text": "X ray of sternoclavicular joints, 3 views"
      },
      "subject": {
        "reference": "Patient/39659f6a-ea36-4e24-b2b3-094823f7c613",
        "display": "Isabella Jones"
      },
      "effectivePeriod": {
        "start": "2012-08-13T00:00:00+02:00"
      },
      "dataAbsentReason": {
        "coding": [ {
          "system": "http://hl7.org/fhir/data-absent-reason",
          "code": "error",
          "display": "Error"
        } ]
      }
    }
  }, {
    "resource": {
      "resourceType": "Observation",
      "id": "c71ab431-7761-414d-9c2b-c007d209c48a",
      "identifier": [ {
        "use": "official",
        "system": "urn:oid:2.16.840.1.113883.3.441.1.50.300011.51.26933.53",
        "value": "61411"
      } ],
      "status": "final",
      "code": {
        "coding": [ {
          "system": "http://www.ama-assn.org/go/cpt",
          "code": "89220",
          "display": "SPUTUM OBTAINING SPEC AEROSOL INDUCED TX SPX"
        } ],
        "text": "Sputum, obtaining specimen, aerosol induced technique (separate procedure)"
      },
      "subject": {
        "reference": "Patient/39659f6a-ea36-4e24-b2b3-094823f7c613",
        "display": "Isabella Jones"
      },
      "effectivePeriod": {
        "start": "2012-08-06T00:00:00+02:00"
      },
      "dataAbsentReason": {
        "coding": [ {
          "system": "http://hl7.org/fhir/data-absent-reason",
          "code": "error",
          "display": "Error"
        } ]
      }
    }
  }, {
    "resource": {
      "resourceType": "CarePlan",
      "id": "4d10a59d-04a0-4a4f-a6e1-547958aa7a08",
      "text": {
        "status": "additional",
        "div": "<div xmlns=\"http://www.w3.org/1999/xhtml\">            <table border=\"1\">              <thead>                <tr>                  <th>Planned Activity</th>                  <th>Comments</th>                  <th>Planned Date</th>                  <th>Planned Time</th>                  <th>Plan/Goal</th>                </tr>              </thead>              <tbody>                <tr>                  <td>pulmonology consult</td>                  <td>                  </td>                  <td>8/13/2012</td>                  <td>4:00 PM</td>                  <td>                  </td>                </tr>                <tr>                  <td>Smoking Cessation Plan</td>                  <td>                  </td>                  <td>8/6/2012</td>                  <td>2:02 PM</td>                  <td>Resources and instructions provided during visit</td>                </tr>                <tr>                  <td>Smoking Cessation: Goal</td>                  <td>                  </td>                  <td>8/6/2012</td>                  <td>2:02 PM</td>                  <td>Quit smoking</td>                </tr>                <tr>                  <td>Chest X-Ray, PA and Lateral Views</td>                  <td>                  </td>                  <td>8/6/2012</td>                  <td>12:00 AM</td>                  <td>                  </td>                </tr>                <tr>                  <td>X ray of sternoclavicular joints, 3 views</td>                  <td>                  </td>                  <td>8/13/2012</td>                  <td>12:00 AM</td>                  <td>                  </td>                </tr>                <tr>                  <td>Hemoglobin</td>                  <td>                  </td>                  <td>8/13/2012</td>                  <td>12:00 AM</td>                  <td>                  </td>                </tr>                <tr>                  <td>Sputum, obtaining specimen, aerosol induced technique (separate procedure)</td>                  <td>                  </td>                  <td>8/6/2012</td>                  <td>12:00 AM</td>                  <td>                  </td>                </tr>              </tbody>            </table>          </div>"
      },
      "status": "active",
      "intent": "plan",
      "category": [ {
        "coding": [ {
          "system": "http://hl7.org/fhir/us/core/CodeSystem/careplan-category",
          "code": "assess-plan"
        } ]
      } ],
      "title": "Plan of Treatment",
      "description": "<div>            <table border=\"1\">              <thead>                <tr>                  <th>Planned Activity</th>                  <th>Comments</th>                  <th>Planned Date</th>                  <th>Planned Time</th>                  <th>Plan/Goal</th>                </tr>              </thead>              <tbody>                <tr>                  <td>pulmonology consult</td>                  <td>                  </td>                  <td>8/13/2012</td>                  <td>4:00 PM</td>                  <td>                  </td>                </tr>                <tr>                  <td>Smoking Cessation Plan</td>                  <td>                  </td>                  <td>8/6/2012</td>                  <td>2:02 PM</td>                  <td>Resources and instructions provided during visit</td>                </tr>                <tr>                  <td>Smoking Cessation: Goal</td>                  <td>                  </td>                  <td>8/6/2012</td>                  <td>2:02 PM</td>                  <td>Quit smoking</td>                </tr>                <tr>                  <td>Chest X-Ray, PA and Lateral Views</td>                  <td>                  </td>                  <td>8/6/2012</td>                  <td>12:00 AM</td>                  <td>                  </td>                </tr>                <tr>                  <td>X ray of sternoclavicular joints, 3 views</td>                  <td>                  </td>                  <td>8/13/2012</td>                  <td>12:00 AM</td>                  <td>                  </td>                </tr>                <tr>                  <td>Hemoglobin</td>                  <td>                  </td>                  <td>8/13/2012</td>                  <td>12:00 AM</td>                  <td>                  </td>                </tr>                <tr>                  <td>Sputum, obtaining specimen, aerosol induced technique (separate procedure)</td>                  <td>                  </td>                  <td>8/6/2012</td>                  <td>12:00 AM</td>                  <td>                  </td>                </tr>              </tbody>            </table>          </div>",
      "subject": {
        "reference": "Patient/39659f6a-ea36-4e24-b2b3-094823f7c613",
        "display": "Isabella Jones"
      }
    }
  }, {
    "resource": {
      "resourceType": "Observation",
      "id": "f23ebfef-0094-4b1f-be34-6d26f438f766",
      "identifier": [ {
        "use": "official",
        "system": "urn:oid:2.16.840.1.113883.3.441.1.50.300011.51.26933.68",
        "value": "1331"
      } ],
      "status": "final",
      "code": {
        "coding": [ {
          "system": "urn:oid:2.16.840.1.113883.5.4",
          "code": "ASSERTION"
        } ]
      },
      "subject": {
        "reference": "Patient/39659f6a-ea36-4e24-b2b3-094823f7c613",
        "display": "Isabella Jones"
      },
      "effectivePeriod": {
        "start": "1900-01-01T00:00:00+01:00"
      },
      "valueCodeableConcept": {
        "coding": [ {
          "system": "http://snomed.info/sct",
          "code": "449868002",
          "display": "Current every day smoker"
        } ]
      }
    }
  }, {
    "resource": {
      "resourceType": "AllergyIntolerance",
      "id": "bb8f0c01-75d6-457e-8a46-0090fca8e7c5",
      "identifier": [ {
        "use": "official",
        "system": "urn:oid:2.16.840.1.113883.3.441.1.50.300011.51.26933.57",
        "value": "1317"
      } ],
      "clinicalStatus": {
        "coding": [ {
          "system": "http://terminology.hl7.org/CodeSystem/allergyintolerance-clinical",
          "code": "active",
          "display": "Active"
        } ]
      },
      "verificationStatus": {
        "coding": [ {
          "system": "http://terminology.hl7.org/CodeSystem/allergyintolerance-verification",
          "code": "confirmed",
          "display": "Confirmed"
        } ]
      },
      "type": "allergy",
      "category": [ "environment" ],
      "code": {
        "coding": [ {
          "system": "http://www.nlm.nih.gov/research/umls/rxnorm",
          "code": "1001473",
          "display": "Ecpirin"
        }, {
          "system": "urn:oid:2.16.840.1.113883.6.64",
          "code": "1076",
          "display": "aspirin"
        } ],
        "text": "aspirin"
      },
      "patient": {
        "reference": "Patient/39659f6a-ea36-4e24-b2b3-094823f7c613",
        "display": "Isabella Jones"
      }
    }
  }, {
    "resource": {
      "resourceType": "AllergyIntolerance",
      "id": "9f4d6310-7bc9-42dc-ba88-6aecd102be5c",
      "identifier": [ {
        "use": "official",
        "system": "urn:oid:2.16.840.1.113883.3.441.1.50.300011.51.26933.57",
        "value": "1318"
      } ],
      "clinicalStatus": {
        "coding": [ {
          "system": "http://terminology.hl7.org/CodeSystem/allergyintolerance-clinical",
          "code": "active",
          "display": "Active"
        } ]
      },
      "verificationStatus": {
        "coding": [ {
          "system": "http://terminology.hl7.org/CodeSystem/allergyintolerance-verification",
          "code": "confirmed",
          "display": "Confirmed"
        } ]
      },
      "type": "allergy",
      "category": [ "environment" ],
      "code": {
        "text": "codeine sulfate"
      },
      "patient": {
        "reference": "Patient/39659f6a-ea36-4e24-b2b3-094823f7c613",
        "display": "Isabella Jones"
      }
    }
  }, {
    "resource": {
      "resourceType": "AllergyIntolerance",
      "id": "e6704678-bf76-4b6d-88c5-20219d477c95",
      "identifier": [ {
        "use": "official",
        "system": "urn:oid:2.16.840.1.113883.3.441.1.50.300011.51.26933.57",
        "value": "1319"
      } ],
      "clinicalStatus": {
        "coding": [ {
          "system": "http://terminology.hl7.org/CodeSystem/allergyintolerance-clinical",
          "code": "active",
          "display": "Active"
        } ]
      },
      "verificationStatus": {
        "coding": [ {
          "system": "http://terminology.hl7.org/CodeSystem/allergyintolerance-verification",
          "code": "confirmed",
          "display": "Confirmed"
        } ]
      },
      "type": "allergy",
      "category": [ "environment" ],
      "code": {
        "coding": [ {
          "system": "http://www.nlm.nih.gov/research/umls/rxnorm",
          "code": "215674",
          "display": "Bicillin L-A"
        }, {
          "system": "urn:oid:2.16.840.1.113883.6.64",
          "code": "3727",
          "display": "penicillin G benzathine"
        } ],
        "text": "penicillin G benzathine"
      },
      "patient": {
        "reference": "Patient/39659f6a-ea36-4e24-b2b3-094823f7c613",
        "display": "Isabella Jones"
      },
      "onsetDateTime": "0001-01",
      "recordedDate": "0001-01"
    }
  }, {
    "resource": {
      "resourceType": "DiagnosticReport",
      "id": "cadf1ecc-3b96-418b-83af-4075a1ebcf01",
      "identifier": [ {
        "use": "official",
        "system": "urn:oid:2.16.840.1.113883.3.441.1.50.300011.51.26933.54",
        "value": "2936"
      } ],
      "status": "final",
      "category": [ {
        "coding": [ {
          "system": "http://terminology.hl7.org/CodeSystem/v2-0074",
          "code": "LAB",
          "display": "Laboratory"
        } ]
      } ],
      "subject": {
        "reference": "Patient/39659f6a-ea36-4e24-b2b3-094823f7c613",
        "display": "Isabella Jones"
      },
      "effectivePeriod": {
        "start": "2012-08-06T14:01:05+02:00"
      },
      "issued": "2012-08-06T14:01:05.000+02:00",
      "result": [ {
        "reference": "Observation/81d3d33e-9c8b-4962-8489-908bdca944da",
        "display": "Hct Fr Bld Auto"
      } ]
    }
  }, {
    "resource": {
      "resourceType": "Observation",
      "id": "81d3d33e-9c8b-4962-8489-908bdca944da",
      "identifier": [ {
        "use": "official",
        "system": "urn:oid:2.16.840.1.113883.3.441.1.50.300011.51.26933.54",
        "value": "2936"
      } ],
      "status": "final",
      "category": [ {
        "coding": [ {
          "system": "http://terminology.hl7.org/CodeSystem/observation-category",
          "code": "laboratory"
        } ]
      } ],
      "code": {
        "coding": [ {
          "system": "http://loinc.org",
          "code": "4544-3",
          "display": "Hct Fr Bld Auto"
        } ]
      },
      "subject": {
        "reference": "Patient/39659f6a-ea36-4e24-b2b3-094823f7c613",
        "display": "Isabella Jones"
      },
      "effectivePeriod": {
        "start": "2012-08-06T14:01:05+02:00"
      },
      "valueQuantity": {
        "value": 45.0,
        "unit": "%",
        "system": "http://unitsofmeasure.org",
        "code": "%"
      }
    }
  }, {
    "resource": {
      "resourceType": "DiagnosticReport",
      "id": "a3a6bd13-c894-4c11-9101-f815cc62abb4",
      "identifier": [ {
        "use": "official",
        "system": "urn:oid:2.16.840.1.113883.3.441.1.50.300011.51.26933.54",
        "value": "2938"
      } ],
      "status": "final",
      "category": [ {
        "coding": [ {
          "system": "http://terminology.hl7.org/CodeSystem/v2-0074",
          "code": "LAB",
          "display": "Laboratory"
        } ]
      } ],
      "subject": {
        "reference": "Patient/39659f6a-ea36-4e24-b2b3-094823f7c613",
        "display": "Isabella Jones"
      },
      "effectivePeriod": {
        "start": "2012-08-06T14:01:05+02:00"
      },
      "issued": "2012-08-06T14:01:05.000+02:00",
      "result": [ {
        "reference": "Observation/59ba0f0a-70a5-457b-b7be-18e18f776961",
        "display": "Platelet # Bld Auto"
      } ]
    }
  }, {
    "resource": {
      "resourceType": "Observation",
      "id": "59ba0f0a-70a5-457b-b7be-18e18f776961",
      "identifier": [ {
        "use": "official",
        "system": "urn:oid:2.16.840.1.113883.3.441.1.50.300011.51.26933.54",
        "value": "2938"
      } ],
      "status": "final",
      "category": [ {
        "coding": [ {
          "system": "http://terminology.hl7.org/CodeSystem/observation-category",
          "code": "laboratory"
        } ]
      } ],
      "code": {
        "coding": [ {
          "system": "http://loinc.org",
          "code": "777-3",
          "display": "Platelet # Bld Auto"
        } ]
      },
      "subject": {
        "reference": "Patient/39659f6a-ea36-4e24-b2b3-094823f7c613",
        "display": "Isabella Jones"
      },
      "effectivePeriod": {
        "start": "2012-08-06T14:01:05+02:00"
      },
      "valueQuantity": {
        "value": 220.0,
        "unit": "x10E3/uL",
        "system": "http://unitsofmeasure.org",
        "code": "x10E3/uL"
      }
    }
  }, {
    "resource": {
      "resourceType": "DiagnosticReport",
      "id": "c5ef7ba5-f0d3-4ec9-8f1b-c980bfffafb4",
      "identifier": [ {
        "use": "official",
        "system": "urn:oid:2.16.840.1.113883.3.441.1.50.300011.51.26933.54",
        "value": "2937"
      } ],
      "status": "final",
      "category": [ {
        "coding": [ {
          "system": "http://terminology.hl7.org/CodeSystem/v2-0074",
          "code": "LAB",
          "display": "Laboratory"
        } ]
      } ],
      "subject": {
        "reference": "Patient/39659f6a-ea36-4e24-b2b3-094823f7c613",
        "display": "Isabella Jones"
      },
      "effectivePeriod": {
        "start": "2012-08-06T14:01:05+02:00"
      },
      "issued": "2012-08-06T14:01:05.000+02:00",
      "result": [ {
        "reference": "Observation/6e7d6155-061c-4e42-a342-b06c5fe6d848",
        "display": "Hgb Bld-mCnc"
      } ]
    }
  }, {
    "resource": {
      "resourceType": "Observation",
      "id": "6e7d6155-061c-4e42-a342-b06c5fe6d848",
      "identifier": [ {
        "use": "official",
        "system": "urn:oid:2.16.840.1.113883.3.441.1.50.300011.51.26933.54",
        "value": "2937"
      } ],
      "status": "final",
      "category": [ {
        "coding": [ {
          "system": "http://terminology.hl7.org/CodeSystem/observation-category",
          "code": "laboratory"
        } ]
      } ],
      "code": {
        "coding": [ {
          "system": "http://loinc.org",
          "code": "718-7",
          "display": "Hgb Bld-mCnc"
        } ]
      },
      "subject": {
        "reference": "Patient/39659f6a-ea36-4e24-b2b3-094823f7c613",
        "display": "Isabella Jones"
      },
      "effectivePeriod": {
        "start": "2012-08-06T14:01:05+02:00"
      },
      "valueQuantity": {
        "value": 14.20,
        "unit": "g/dL",
        "system": "http://unitsofmeasure.org",
        "code": "g/dL"
      }
    }
  }, {
    "resource": {
      "resourceType": "DiagnosticReport",
      "id": "6f09492d-51db-48cd-83ff-355def8e89f8",
      "identifier": [ {
        "use": "official",
        "system": "urn:oid:2.16.840.1.113883.3.441.1.50.300011.51.26933.54",
        "value": "2939"
      } ],
      "status": "final",
      "category": [ {
        "coding": [ {
          "system": "http://terminology.hl7.org/CodeSystem/v2-0074",
          "code": "LAB",
          "display": "Laboratory"
        } ]
      } ],
      "subject": {
        "reference": "Patient/39659f6a-ea36-4e24-b2b3-094823f7c613",
        "display": "Isabella Jones"
      },
      "effectivePeriod": {
        "start": "2012-08-06T14:01:05+02:00"
      },
      "issued": "2012-08-06T14:01:05.000+02:00",
      "result": [ {
        "reference": "Observation/85e0bbbf-06fe-4327-9e68-6621b6dd3f88",
        "display": "WBC # Bld Auto"
      } ]
    }
  }, {
    "resource": {
      "resourceType": "Observation",
      "id": "85e0bbbf-06fe-4327-9e68-6621b6dd3f88",
      "identifier": [ {
        "use": "official",
        "system": "urn:oid:2.16.840.1.113883.3.441.1.50.300011.51.26933.54",
        "value": "2939"
      } ],
      "status": "final",
      "category": [ {
        "coding": [ {
          "system": "http://terminology.hl7.org/CodeSystem/observation-category",
          "code": "laboratory"
        } ]
      } ],
      "code": {
        "coding": [ {
          "system": "http://loinc.org",
          "code": "6690-2",
          "display": "WBC # Bld Auto"
        } ]
      },
      "subject": {
        "reference": "Patient/39659f6a-ea36-4e24-b2b3-094823f7c613",
        "display": "Isabella Jones"
      },
      "effectivePeriod": {
        "start": "2012-08-06T14:01:05+02:00"
      },
      "valueQuantity": {
        "value": 7.60,
        "unit": "x10E3/uL",
        "system": "http://unitsofmeasure.org",
        "code": "x10E3/uL"
      }
    }
  }, {
    "resource": {
      "resourceType": "Observation",
      "id": "f321f1cd-9e4c-4e86-8475-b72ae244f297",
      "identifier": [ {
        "use": "official",
        "system": "urn:oid:2.16.840.1.113883.3.441.1.50.300011.51.26933.55",
        "value": "2934"
      } ],
      "status": "final",
      "category": [ {
        "coding": [ {
          "system": "http://terminology.hl7.org/CodeSystem/observation-category",
          "code": "vital-signs",
          "display": "Vital Signs"
        } ]
      } ],
      "code": {
        "coding": [ {
          "system": "http://loinc.org",
          "code": "8302-2",
          "display": "Body Height (Measured)"
        } ]
      },
      "subject": {
        "reference": "Patient/39659f6a-ea36-4e24-b2b3-094823f7c613",
        "display": "Isabella Jones"
      },
      "effectivePeriod": {
        "start": "2012-08-06T13:59:00+02:00"
      },
      "valueQuantity": {
        "value": 69.685,
        "unit": "[in_us]",
        "system": "http://unitsofmeasure.org",
        "code": "[in_us]"
      }
    }
  }, {
    "resource": {
      "resourceType": "Observation",
      "id": "baeaf22a-130a-46c4-a53c-6a27a92f917f",
      "identifier": [ {
        "use": "official",
        "system": "urn:oid:2.16.840.1.113883.3.441.1.50.300011.51.26933.55",
        "value": "2935"
      } ],
      "status": "final",
      "category": [ {
        "coding": [ {
          "system": "http://terminology.hl7.org/CodeSystem/observation-category",
          "code": "vital-signs",
          "display": "Vital Signs"
        } ]
      } ],
      "code": {
        "coding": [ {
          "system": "http://loinc.org",
          "code": "3141-9",
          "display": "Body Weight (Measured)"
        } ]
      },
      "subject": {
        "reference": "Patient/39659f6a-ea36-4e24-b2b3-094823f7c613",
        "display": "Isabella Jones"
      },
      "effectivePeriod": {
        "start": "2012-08-06T13:59:00+02:00"
      },
      "valueQuantity": {
        "value": 194.007,
        "unit": "[lb_av]",
        "system": "http://unitsofmeasure.org",
        "code": "[lb_av]"
      }
    }
  }, {
    "resource": {
      "resourceType": "Observation",
      "id": "9ce5c279-381c-48c4-9ce0-40e4ea7d3763",
      "identifier": [ {
        "use": "official",
        "system": "urn:oid:2.16.840.1.113883.3.441.1.50.300011.51.26933.55",
        "value": "2930"
      } ],
      "status": "final",
      "category": [ {
        "coding": [ {
          "system": "http://terminology.hl7.org/CodeSystem/observation-category",
          "code": "vital-signs",
          "display": "Vital Signs"
        } ]
      } ],
      "code": {
        "coding": [ {
          "system": "http://loinc.org",
          "code": "8462-4",
          "display": "BP Diastolic"
        } ]
      },
      "subject": {
        "reference": "Patient/39659f6a-ea36-4e24-b2b3-094823f7c613",
        "display": "Isabella Jones"
      },
      "effectivePeriod": {
        "start": "2012-08-06T13:59:00+02:00"
      },
      "valueQuantity": {
        "value": 92,
        "unit": "mm[Hg]",
        "system": "http://unitsofmeasure.org",
        "code": "mm[Hg]"
      }
    }
  }, {
    "resource": {
      "resourceType": "Observation",
      "id": "7d8adc51-bf28-4868-9e4d-75d11966123f",
      "identifier": [ {
        "use": "official",
        "system": "urn:oid:2.16.840.1.113883.3.441.1.50.300011.51.26933.55",
        "value": "2932"
      } ],
      "status": "final",
      "category": [ {
        "coding": [ {
          "system": "http://terminology.hl7.org/CodeSystem/observation-category",
          "code": "vital-signs",
          "display": "Vital Signs"
        } ]
      } ],
      "code": {
        "coding": [ {
          "system": "http://loinc.org",
          "code": "41909-3",
          "display": "Body Mass Index"
        } ]
      },
      "subject": {
        "reference": "Patient/39659f6a-ea36-4e24-b2b3-094823f7c613",
        "display": "Isabella Jones"
      },
      "effectivePeriod": {
        "start": "2012-08-06T13:59:00+02:00"
      },
      "valueQuantity": {
        "value": 28.089,
        "unit": "kg/m²",
        "system": "http://unitsofmeasure.org",
        "code": "kg/m²"
      }
    }
  }, {
    "resource": {
      "resourceType": "Observation",
      "id": "68a609b7-eb0d-4344-acee-f4c8c229a668",
      "identifier": [ {
        "use": "official",
        "system": "urn:oid:2.16.840.1.113883.3.441.1.50.300011.51.26933.55",
        "value": "2931"
      } ],
      "status": "final",
      "category": [ {
        "coding": [ {
          "system": "http://terminology.hl7.org/CodeSystem/observation-category",
          "code": "vital-signs",
          "display": "Vital Signs"
        } ]
      } ],
      "code": {
        "coding": [ {
          "system": "http://loinc.org",
          "code": "8480-6",
          "display": "BP Systolic"
        } ]
      },
      "subject": {
        "reference": "Patient/39659f6a-ea36-4e24-b2b3-094823f7c613",
        "display": "Isabella Jones"
      },
      "effectivePeriod": {
        "start": "2012-08-06T13:59:00+02:00"
      },
      "valueQuantity": {
        "value": 135,
        "unit": "mm[Hg]",
        "system": "http://unitsofmeasure.org",
        "code": "mm[Hg]"
      }
    }
  }, {
    "resource": {
      "resourceType": "Immunization",
      "id": "9dd30f8e-378d-47d4-9e62-33c7291cecee",
      "identifier": [ {
        "use": "official",
        "system": "urn:oid:2.16.840.1.113883.3.441.1.50.300011.51.26933.60",
        "value": "1235"
      } ],
      "status": "completed",
      "vaccineCode": {
        "coding": [ {
          "system": "http://www2a.cdc.gov/vaccines/iis/iisstandards/vaccines.asp?rpt=cvx",
          "code": "09",
          "display": "Td (adult)"
        } ],
        "text": "Tetanus - diphtheria"
      },
      "patient": {
        "reference": "Patient/39659f6a-ea36-4e24-b2b3-094823f7c613",
        "display": "Isabella Jones"
      },
      "occurrenceDateTime": "2007-01-04T00:00:00+01:00",
      "primarySource": true,
      "performer": [ {
        "function": {
          "coding": [ {
            "system": "http://hl7.org/fhir/v2/0443",
            "code": "AP",
            "display": "Administering Provider"
          } ]
        },
        "actor": {
          "reference": "Practitioner/40a43f32-8c76-4c0f-b988-6ae3ba1dcfbd",
          "display": "Kevin Kornegay"
        }
      } ]
    }
  }, {
    "resource": {
      "resourceType": "Practitioner",
      "id": "40a43f32-8c76-4c0f-b988-6ae3ba1dcfbd",
      "identifier": [ {
        "use": "official",
        "system": "urn:oid:2.16.840.1.113883.3.441",
        "value": "5be624e2d31549a2bdaaa5b54a3b8f34"
      } ],
      "name": [ {
        "family": "Kornegay",
        "given": [ "Kevin" ]
      } ],
      "address": [ {
        "country": "Unknown"
      } ]
    }
  }, {
    "resource": {
      "resourceType": "PractitionerRole",
      "id": "2c0f034b-dcc3-483a-a32f-b101516263d9",
      "practitioner": {
        "reference": "Practitioner/40a43f32-8c76-4c0f-b988-6ae3ba1dcfbd",
        "display": "Kevin Kornegay"
      },
      "organization": {
        "reference": "Organization/461ab7f3-b78b-4d68-9df2-8ac8ea1aee8e"
      }
    }
  }, {
    "resource": {
      "resourceType": "Organization",
      "id": "461ab7f3-b78b-4d68-9df2-8ac8ea1aee8e",
      "identifier": [ {
        "use": "official",
        "system": "urn:oid:2.16.840.1.113883.3.441",
        "value": "b390c1b82bad4eb3b04ed47d348e1247"
      } ],
      "address": [ {
        "country": "Unknown"
      } ]
    }
  }, {
    "resource": {
      "resourceType": "Immunization",
      "id": "85a6e88c-538c-4fd1-925d-df3c52ad4b7b",
      "identifier": [ {
        "use": "official",
        "system": "urn:oid:2.16.840.1.113883.3.441.1.50.300011.51.26933.60",
        "value": "1406"
      } ],
      "status": "completed",
      "vaccineCode": {
        "coding": [ {
          "system": "http://www2a.cdc.gov/vaccines/iis/iisstandards/vaccines.asp?rpt=cvx",
          "code": "146",
          "display": "DTaP,IPV,Hib,HepB"
        } ],
        "text": "MMR"
      },
      "patient": {
        "reference": "Patient/39659f6a-ea36-4e24-b2b3-094823f7c613",
        "display": "Isabella Jones"
      },
      "occurrenceDateTime": "2013-04-23T00:00:00+02:00",
      "primarySource": true,
      "performer": [ {
        "function": {
          "coding": [ {
            "system": "http://hl7.org/fhir/v2/0443",
            "code": "AP",
            "display": "Administering Provider"
          } ]
        },
        "actor": {
          "reference": "Practitioner/5f5cdcc1-5ce9-4890-a7bb-744cedf03b9a",
          "display": "Admin AdminUser"
        }
      } ]
    }
  }, {
    "resource": {
      "resourceType": "Practitioner",
      "id": "5f5cdcc1-5ce9-4890-a7bb-744cedf03b9a",
      "identifier": [ {
        "use": "official",
        "system": "urn:oid:2.16.840.1.113883.3.441",
        "value": "1f3863d4936c469e8bd98edc90a30eff"
      } ],
      "name": [ {
        "family": "AdminUser",
        "given": [ "Admin" ]
      } ],
      "address": [ {
        "country": "Unknown"
      } ]
    }
  }, {
    "resource": {
      "resourceType": "PractitionerRole",
      "id": "5752b732-9f0b-4330-a7f0-91e00450c301",
      "practitioner": {
        "reference": "Practitioner/5f5cdcc1-5ce9-4890-a7bb-744cedf03b9a",
        "display": "Admin AdminUser"
      },
      "organization": {
        "reference": "Organization/6a237dc4-c958-41a4-89a4-a39ab89fe5fd"
      }
    }
  }, {
    "resource": {
      "resourceType": "Organization",
      "id": "6a237dc4-c958-41a4-89a4-a39ab89fe5fd",
      "identifier": [ {
        "use": "official",
        "system": "urn:oid:2.16.840.1.113883.3.441",
        "value": "ab99e968e87f497bbb2064544232fd9f"
      } ],
      "address": [ {
        "country": "Unknown"
      } ]
    }
  }, {
    "resource": {
      "resourceType": "Immunization",
      "id": "aaeba85b-b908-4d1f-9b7e-40ae561eba7c",
      "identifier": [ {
        "use": "official",
        "system": "urn:oid:2.16.840.1.113883.3.441.1.50.300011.51.26933.60",
        "value": "1238"
      } ],
      "status": "completed",
      "vaccineCode": {
        "coding": [ {
          "system": "http://www2a.cdc.gov/vaccines/iis/iisstandards/vaccines.asp?rpt=cvx",
          "code": "33",
          "display": "pneumococcal polysaccharide PPV23"
        } ],
        "text": "pneumococcal"
      },
      "patient": {
        "reference": "Patient/39659f6a-ea36-4e24-b2b3-094823f7c613",
        "display": "Isabella Jones"
      },
      "occurrenceDateTime": "2012-08-06T00:00:00+02:00",
      "primarySource": true,
      "performer": [ {
        "function": {
          "coding": [ {
            "system": "http://hl7.org/fhir/v2/0443",
            "code": "AP",
            "display": "Administering Provider"
          } ]
        },
        "actor": {
          "reference": "Practitioner/e31ce231-bed9-432d-9d32-e24cec8c9352",
          "display": "History K Family"
        }
      } ]
    }
  }, {
    "resource": {
      "resourceType": "Practitioner",
      "id": "e31ce231-bed9-432d-9d32-e24cec8c9352",
      "identifier": [ {
        "use": "official",
        "system": "urn:oid:2.16.840.1.113883.3.441",
        "value": "1610ae3ae2e04e179860d1c3ed9e62a6"
      } ],
      "name": [ {
        "family": "Family",
        "given": [ "History", "K" ]
      } ],
      "telecom": [ {
        "system": "phone",
        "value": "555-555-1046"
      } ],
      "address": [ {
        "line": [ "1044 Healthcare Drive" ],
        "city": "Portland",
        "state": "OR",
        "postalCode": "97005",
        "country": "United States"
      } ]
    }
  }, {
    "resource": {
      "resourceType": "PractitionerRole",
      "id": "83a955e6-31d0-47f4-a2bb-123b126e5ffe",
      "practitioner": {
        "reference": "Practitioner/e31ce231-bed9-432d-9d32-e24cec8c9352",
        "display": "History K Family"
      },
      "organization": {
        "reference": "Organization/26dc98c2-fe38-4fff-bc42-ebc002948445"
      }
    }
  }, {
    "resource": {
      "resourceType": "Organization",
      "id": "26dc98c2-fe38-4fff-bc42-ebc002948445",
      "identifier": [ {
        "use": "official",
        "system": "urn:oid:2.16.840.1.113883.3.441",
        "value": "17adddfb8c224132a3c68a73b90ce280"
      } ],
      "telecom": [ {
        "system": "phone",
        "value": "555-555-1046",
        "use": "work"
      } ],
      "address": [ {
        "line": [ "1044 Healthcare Drive" ],
        "city": "Portland",
        "state": "OR",
        "postalCode": "97005",
        "country": "United States"
      } ]
    }
  }, {
    "resource": {
      "resourceType": "Immunization",
      "id": "d453b199-e9be-4323-81cf-7449aba5d600",
      "identifier": [ {
        "use": "official",
        "system": "urn:oid:2.16.840.1.113883.3.441.1.50.300011.51.26933.60",
        "value": "1404"
      } ],
      "status": "completed",
      "vaccineCode": {
        "coding": [ {
          "system": "http://www2a.cdc.gov/vaccines/iis/iisstandards/vaccines.asp?rpt=cvx",
          "code": "114",
          "display": "meningococcal MCV4P"
        } ],
        "text": "Meningococcal"
      },
      "patient": {
        "reference": "Patient/39659f6a-ea36-4e24-b2b3-094823f7c613",
        "display": "Isabella Jones"
      },
      "occurrenceDateTime": "2013-04-23T00:00:00+02:00",
      "primarySource": true,
      "performer": [ {
        "function": {
          "coding": [ {
            "system": "http://hl7.org/fhir/v2/0443",
            "code": "AP",
            "display": "Administering Provider"
          } ]
        },
        "actor": {
          "reference": "Practitioner/c39d502c-4d02-47b5-b30d-8364a02b55a5",
          "display": "Admin AdminUser"
        }
      } ]
    }
  }, {
    "resource": {
      "resourceType": "Practitioner",
      "id": "c39d502c-4d02-47b5-b30d-8364a02b55a5",
      "identifier": [ {
        "use": "official",
        "system": "urn:oid:2.16.840.1.113883.3.441",
        "value": "5d03e2ef8aaa419f8657cb4ff3a09ce2"
      } ],
      "name": [ {
        "family": "AdminUser",
        "given": [ "Admin" ]
      } ],
      "address": [ {
        "country": "Unknown"
      } ]
    }
  }, {
    "resource": {
      "resourceType": "PractitionerRole",
      "id": "75c9abb2-fae6-497f-a352-c71d11d2c18b",
      "practitioner": {
        "reference": "Practitioner/c39d502c-4d02-47b5-b30d-8364a02b55a5",
        "display": "Admin AdminUser"
      },
      "organization": {
        "reference": "Organization/de6aa9af-be2d-41cc-9a7f-5f129f33d37a"
      }
    }
  }, {
    "resource": {
      "resourceType": "Organization",
      "id": "de6aa9af-be2d-41cc-9a7f-5f129f33d37a",
      "identifier": [ {
        "use": "official",
        "system": "urn:oid:2.16.840.1.113883.3.441",
        "value": "59288068942446b59cd7a0b30f92f00a"
      } ],
      "address": [ {
        "country": "Unknown"
      } ]
    }
  }, {
    "resource": {
      "resourceType": "Immunization",
      "id": "24c96c25-5b53-4c8e-91ee-07acf4523e69",
      "identifier": [ {
        "use": "official",
        "system": "urn:oid:2.16.840.1.113883.3.441.1.50.300011.51.26933.60",
        "value": "1400"
      } ],
      "status": "completed",
      "vaccineCode": {
        "coding": [ {
          "system": "http://www2a.cdc.gov/vaccines/iis/iisstandards/vaccines.asp?rpt=cvx",
          "code": "133",
          "display": "Pneumococcal conjugate PCV 13"
        } ],
        "text": "PCV"
      },
      "patient": {
        "reference": "Patient/39659f6a-ea36-4e24-b2b3-094823f7c613",
        "display": "Isabella Jones"
      },
      "occurrenceDateTime": "2013-04-23T00:00:00+02:00",
      "primarySource": true,
      "performer": [ {
        "function": {
          "coding": [ {
            "system": "http://hl7.org/fhir/v2/0443",
            "code": "AP",
            "display": "Administering Provider"
          } ]
        },
        "actor": {
          "reference": "Practitioner/9b90573f-c0cd-44e9-846c-407e5ab9c8e1",
          "display": "Admin AdminUser"
        }
      } ]
    }
  }, {
    "resource": {
      "resourceType": "Practitioner",
      "id": "9b90573f-c0cd-44e9-846c-407e5ab9c8e1",
      "identifier": [ {
        "use": "official",
        "system": "urn:oid:2.16.840.1.113883.3.441",
        "value": "027bfaaf3fd24066b760241eedfcafe6"
      } ],
      "name": [ {
        "family": "AdminUser",
        "given": [ "Admin" ]
      } ],
      "address": [ {
        "country": "Unknown"
      } ]
    }
  }, {
    "resource": {
      "resourceType": "PractitionerRole",
      "id": "7a0c8971-b07e-4284-92df-469f2c80ad2c",
      "practitioner": {
        "reference": "Practitioner/9b90573f-c0cd-44e9-846c-407e5ab9c8e1",
        "display": "Admin AdminUser"
      },
      "organization": {
        "reference": "Organization/6fd1f65c-c8c1-47e6-b25c-a00134b9f177"
      }
    }
  }, {
    "resource": {
      "resourceType": "Organization",
      "id": "6fd1f65c-c8c1-47e6-b25c-a00134b9f177",
      "identifier": [ {
        "use": "official",
        "system": "urn:oid:2.16.840.1.113883.3.441",
        "value": "35bc05cc99f1418cb7e543e30f9c5aba"
      } ],
      "address": [ {
        "country": "Unknown"
      } ]
    }
  }, {
    "resource": {
      "resourceType": "Immunization",
      "id": "19befc5e-068d-4a30-9dc6-453b9c0904eb",
      "identifier": [ {
        "use": "official",
        "system": "urn:oid:2.16.840.1.113883.3.441.1.50.300011.51.26933.60",
        "value": "1405"
      } ],
      "status": "completed",
      "vaccineCode": {
        "coding": [ {
          "system": "http://www2a.cdc.gov/vaccines/iis/iisstandards/vaccines.asp?rpt=cvx",
          "code": "33",
          "display": "pneumococcal polysaccharide PPV23"
        } ],
        "text": "PCV"
      },
      "patient": {
        "reference": "Patient/39659f6a-ea36-4e24-b2b3-094823f7c613",
        "display": "Isabella Jones"
      },
      "occurrenceDateTime": "2013-04-23T00:00:00+02:00",
      "primarySource": true,
      "performer": [ {
        "function": {
          "coding": [ {
            "system": "http://hl7.org/fhir/v2/0443",
            "code": "AP",
            "display": "Administering Provider"
          } ]
        },
        "actor": {
          "reference": "Practitioner/f2e4cc40-d7c1-4fd4-8c73-dcdcf1a1ac38",
          "display": "Admin AdminUser"
        }
      } ]
    }
  }, {
    "resource": {
      "resourceType": "Practitioner",
      "id": "f2e4cc40-d7c1-4fd4-8c73-dcdcf1a1ac38",
      "identifier": [ {
        "use": "official",
        "system": "urn:oid:2.16.840.1.113883.3.441",
        "value": "66cf1bb2f0c942c4a8ff6d0176211442"
      } ],
      "name": [ {
        "family": "AdminUser",
        "given": [ "Admin" ]
      } ],
      "address": [ {
        "country": "Unknown"
      } ]
    }
  }, {
    "resource": {
      "resourceType": "PractitionerRole",
      "id": "567bedc5-0676-49e4-87b3-5310124a7d4c",
      "practitioner": {
        "reference": "Practitioner/f2e4cc40-d7c1-4fd4-8c73-dcdcf1a1ac38",
        "display": "Admin AdminUser"
      },
      "organization": {
        "reference": "Organization/a755c753-18a3-4a40-9105-034428b78795"
      }
    }
  }, {
    "resource": {
      "resourceType": "Organization",
      "id": "a755c753-18a3-4a40-9105-034428b78795",
      "identifier": [ {
        "use": "official",
        "system": "urn:oid:2.16.840.1.113883.3.441",
        "value": "ee92216b76534ddc8e125f76f5838374"
      } ],
      "address": [ {
        "country": "Unknown"
      } ]
    }
  }, {
    "resource": {
      "resourceType": "Immunization",
      "id": "138323c0-fc5b-49ae-acb1-84974b1875e3",
      "identifier": [ {
        "use": "official",
        "system": "urn:oid:2.16.840.1.113883.3.441.1.50.300011.51.26933.60",
        "value": "1403"
      } ],
      "status": "completed",
      "vaccineCode": {
        "coding": [ {
          "system": "http://www2a.cdc.gov/vaccines/iis/iisstandards/vaccines.asp?rpt=cvx",
          "code": "21",
          "display": "varicella"
        } ],
        "text": "Varicella"
      },
      "patient": {
        "reference": "Patient/39659f6a-ea36-4e24-b2b3-094823f7c613",
        "display": "Isabella Jones"
      },
      "occurrenceDateTime": "2013-04-23T00:00:00+02:00",
      "primarySource": true,
      "performer": [ {
        "function": {
          "coding": [ {
            "system": "http://hl7.org/fhir/v2/0443",
            "code": "AP",
            "display": "Administering Provider"
          } ]
        },
        "actor": {
          "reference": "Practitioner/9237fafc-f26e-4357-9d76-bce80fec78cf",
          "display": "Admin AdminUser"
        }
      } ]
    }
  }, {
    "resource": {
      "resourceType": "Practitioner",
      "id": "9237fafc-f26e-4357-9d76-bce80fec78cf",
      "identifier": [ {
        "use": "official",
        "system": "urn:oid:2.16.840.1.113883.3.441",
        "value": "ca5d0036222f4a08b5f4b693a0cdb047"
      } ],
      "name": [ {
        "family": "AdminUser",
        "given": [ "Admin" ]
      } ],
      "address": [ {
        "country": "Unknown"
      } ]
    }
  }, {
    "resource": {
      "resourceType": "PractitionerRole",
      "id": "982d0a5d-c374-4cb3-a723-fef7f2a9c4ca",
      "practitioner": {
        "reference": "Practitioner/9237fafc-f26e-4357-9d76-bce80fec78cf",
        "display": "Admin AdminUser"
      },
      "organization": {
        "reference": "Organization/43b3be0f-793a-400d-bb26-7d2ae4aa0a49"
      }
    }
  }, {
    "resource": {
      "resourceType": "Organization",
      "id": "43b3be0f-793a-400d-bb26-7d2ae4aa0a49",
      "identifier": [ {
        "use": "official",
        "system": "urn:oid:2.16.840.1.113883.3.441",
        "value": "b2920b445b21456d801da04e8b8009be"
      } ],
      "address": [ {
        "country": "Unknown"
      } ]
    }
  }, {
    "resource": {
      "resourceType": "Condition",
      "id": "bf7af5a0-86ab-4521-a9ff-17eb05b76517",
      "identifier": [ {
        "use": "official",
        "system": "urn:oid:2.16.840.1.113883.3.441.1.50.300011.51.26933.61",
        "value": "1429"
      } ],
      "clinicalStatus": {
        "coding": [ {
          "system": "http://terminology.hl7.org/CodeSystem/condition-clinical",
          "code": "active",
          "display": "Active"
        } ]
      },
      "verificationStatus": {
        "coding": [ {
          "system": "http://terminology.hl7.org/CodeSystem/condition-ver-status",
          "code": "confirmed",
          "display": "Confirmed"
        } ]
      },
      "category": [ {
        "coding": [ {
          "system": "http://terminology.hl7.org/CodeSystem/condition-category",
          "code": "problem-list-item",
          "display": "Problem List Item"
        } ]
      } ],
      "subject": {
        "reference": "Patient/39659f6a-ea36-4e24-b2b3-094823f7c613",
        "display": "Isabella Jones"
      }
    }
  }, {
    "resource": {
      "resourceType": "Condition",
      "id": "ca46a236-c81d-4870-8504-265359e10f49",
      "identifier": [ {
        "use": "official",
        "system": "urn:oid:2.16.840.1.113883.3.441.1.50.300011.51.26933.61",
        "value": "1428"
      } ],
      "clinicalStatus": {
        "coding": [ {
          "system": "http://terminology.hl7.org/CodeSystem/condition-clinical",
          "code": "active",
          "display": "Active"
        } ]
      },
      "verificationStatus": {
        "coding": [ {
          "system": "http://terminology.hl7.org/CodeSystem/condition-ver-status",
          "code": "confirmed",
          "display": "Confirmed"
        } ]
      },
      "category": [ {
        "coding": [ {
          "system": "http://terminology.hl7.org/CodeSystem/condition-category",
          "code": "problem-list-item",
          "display": "Problem List Item"
        } ]
      } ],
      "subject": {
        "reference": "Patient/39659f6a-ea36-4e24-b2b3-094823f7c613",
        "display": "Isabella Jones"
      }
    }
  }, {
    "resource": {
      "resourceType": "Condition",
      "id": "d9dd34c1-8c7c-4fd3-8bd8-8868993490e2",
      "identifier": [ {
        "use": "official",
        "system": "urn:oid:2.16.840.1.113883.3.441.1.50.300011.51.26933.61",
        "value": "1427"
      } ],
      "clinicalStatus": {
        "coding": [ {
          "system": "http://terminology.hl7.org/CodeSystem/condition-clinical",
          "code": "active",
          "display": "Active"
        } ]
      },
      "verificationStatus": {
        "coding": [ {
          "system": "http://terminology.hl7.org/CodeSystem/condition-ver-status",
          "code": "confirmed",
          "display": "Confirmed"
        } ]
      },
      "category": [ {
        "coding": [ {
          "system": "http://terminology.hl7.org/CodeSystem/condition-category",
          "code": "problem-list-item",
          "display": "Problem List Item"
        } ]
      } ],
      "subject": {
        "reference": "Patient/39659f6a-ea36-4e24-b2b3-094823f7c613",
        "display": "Isabella Jones"
      }
    }
  } ]
}