{
  "resourceType": "Bundle",
  "entry": [ {
    "resource": {
      "resourceType": "Composition",
      "id": "2eacc521-e0f9-4e7b-aa8c-c445dfdf3f03",
      "identifier": {
        "use": "official",
        "system": "urn:oid:2.16.840.1.113883.3.441",
        "value": "7c4d0c7819714db6a4737ca1d35faa7a"
      },
      "status": "preliminary",
      "type": {
        "coding": [ {
          "system": "http://loinc.org",
          "code": "34133-9",
          "display": "Summarization of episode note"
        } ]
      },
      "category": [ {
        "coding": [ {
          "system": "http://hl7.org/fhir/ValueSet/doc-classcodes",
          "code": "LP173421-7",
          "display": "Note"
        } ]
      } ],
      "subject": {
        "reference": "Patient/705a37e6-3811-4494-85aa-9178f76f5334",
        "display": "Adam Everyman"
      },
      "date": "2013-03-19T09:28:53-04:00",
      "author": [ {
        "reference": "Practitioner/38c6f87e-6469-425b-99b2-4b30b9bdd80a"
      } ],
      "title": "MU2 Referral Summary",
      "confidentiality": "N",
      "custodian": {
        "reference": "Organization/b75fb787-f2b5-4054-858c-f7f00c45848d",
        "display": "Get Well Clinic"
      },
      "event": [ {
        "detail": [ {
          "reference": "Practitioner/74b164ee-8995-4c41-a1d6-5adcdcd38e21"
        }, {
          "reference": "Practitioner/dc201fc0-d0ac-43ca-896d-4d1a4dcac3b0",
          "display": "Henry Seven, M.D."
        } ]
      } ],
      "section": [ {
        "title": "History Of Immunizations",
        "code": {
          "coding": [ {
            "system": "http://loinc.org",
            "code": "11369-6",
            "display": "History of immunizations"
          } ]
        },
        "text": {
          "status": "additional",
          "div": "<div xmlns=\"http://www.w3.org/1999/xhtml\"><table border=\"1\"><thead><tr><th>Name</th><th>Date Admin</th><th>Mfg Name</th><th>Mfg Code</th><th>Trade Name</th><th>Lot#</th><th>Route</th><th>Inj</th><th>Vis Given</th><th>Vis Pub</th><th>CVX</th></tr></thead><tbody><tr><td>Influenza Adult</td><td>3/30/2012</td><td>Abbott Laboratories</td><td>AB</td><td>Fluzone</td><td>ADV-345</td><td>Intramuscular</td><td>Left Deltoid</td><td>12/27/2012</td><td>3/3/2010</td><td>88</td></tr></tbody></table></div>"
        },
        "mode": "snapshot",
        "entry": [ {
          "reference": "Immunization/d7032f28-fac2-402e-b350-d7d1578d05a7",
          "display": "Influenza Adult"
        } ]
      }, {
        "title": "Functional Status Assessment",
        "code": {
          "coding": [ {
            "system": "http://loinc.org",
            "code": "47420-5",
            "display": "Functional status assessment"
          } ]
        },
        "text": {
          "status": "additional",
          "div": "<div xmlns=\"http://www.w3.org/1999/xhtml\"><table border=\"1\"><thead><tr><th>Functional Condition</th><th>Type</th></tr></thead><tbody><tr><td>No Impairment</td><td>Cognitive</td></tr></tbody></table></div>"
        },
        "mode": "snapshot"
      }, {
        "title": "Vital Signs",
        "code": {
          "coding": [ {
            "system": "http://loinc.org",
            "code": "8716-3",
            "display": "Vital signs"
          } ]
        },
        "text": {
          "status": "additional",
          "div": "<div xmlns=\"http://www.w3.org/1999/xhtml\"><table border=\"1\"><thead><tr><th>Date</th><th>Time</th><th>BP-Sys(mm[Hg]</th><th>BP-Dia(mm[Hg])</th><th>HR(bpm)</th><th>RR(rpm)</th><th>Temp</th><th>WT</th><th>HT</th><th>BMI</th><th>BSA</th><th>BMI Percentile</th><th>O2 Sat(%)</th></tr></thead><tbody><tr><td>9/25/2011</td><td>1:41:00 PM</td><td>120 mmHg</td><td>75 mmHg</td><td/><td/><td/><td>180 lbs</td><td>70 in</td><td>25.827 kg/m²</td><td>2.0081 m²</td><td/><td/></tr><tr><td>3/30/2012</td><td>2:29:00 PM</td><td>160 mmHg</td><td>98 mmHg</td><td/><td/><td/><td>195 lbs</td><td>70 in</td><td>27.9793 kg/m²</td><td>2.0901 m²</td><td/><td/></tr><tr><td>1/24/2013</td><td>1:12:00 PM</td><td>120 mmHg</td><td>80 mmHg</td><td/><td/><td/><td>162 lbs</td><td>70 in</td><td>23.2443 kg/m²</td><td>1.905 m²</td><td/><td/></tr></tbody></table></div>"
        },
        "mode": "snapshot",
        "entry": [ {
          "reference": "Observation/77d33974-6c59-4f22-8798-79095f947045",
          "display": "BP Diastolic"
        }, {
          "reference": "Observation/fd3e662a-70a0-41e9-9251-d1819063baf1",
          "display": "Body Mass Index"
        }, {
          "reference": "Observation/a5ab9b37-27aa-45f6-8b65-7b8519a21fa4",
          "display": "Body Height (Measured)"
        }, {
          "reference": "Observation/e014a3be-279c-4b20-bdf7-f6d79a102a5e",
          "display": "BP Systolic"
        }, {
          "reference": "Observation/f5021935-e25a-45fa-8279-d972fbd57c00",
          "display": "Body Weight (Measured)"
        }, {
          "reference": "Observation/bd3da866-4eaf-4697-b2c1-7addef349fb2",
          "display": "Body Height (Measured)"
        }, {
          "reference": "Observation/999463f6-ae88-4d2c-b600-4c074353f5d0",
          "display": "Body Weight (Measured)"
        }, {
          "reference": "Observation/f4b2ae21-b3b1-4fbf-bb0e-c0dc6dd5b912",
          "display": "BP Systolic"
        }, {
          "reference": "Observation/cf039ddf-1b12-47da-8381-d1a3af5959cf",
          "display": "Body Mass Index"
        }, {
          "reference": "Observation/cafc43d2-4cd4-41c0-b626-62e881449536",
          "display": "BP Diastolic"
        }, {
          "reference": "Observation/3899a548-5282-420f-90a7-25d5cfcd99a8",
          "display": "Body Weight (Measured)"
        }, {
          "reference": "Observation/acc45893-5f38-4711-8e30-5451c1cb1acd",
          "display": "BP Systolic"
        }, {
          "reference": "Observation/114b820b-0b67-4547-bd56-f7e7aab3caf1",
          "display": "BP Diastolic"
        }, {
          "reference": "Observation/5aeeb00c-a77c-4166-9950-4b67b1eb2c37",
          "display": "Body Mass Index"
        }, {
          "reference": "Observation/79a2c943-a35e-4b98-854a-c03e9fbcf340",
          "display": "Body Height (Measured)"
        } ]
      }, {
        "title": "Medications",
        "code": {
          "coding": [ {
            "system": "http://loinc.org",
            "code": "10160-0",
            "display": "History of medication use"
          } ]
        },
        "text": {
          "status": "additional",
          "div": "<div xmlns=\"http://www.w3.org/1999/xhtml\"><table border=\"1\"><thead><tr><th colspan=\"5\">Active</th></tr><tr><th>Name</th><th>Start Date</th><th>Estimated Completion Date</th><th>SIG</th><th>Comments</th></tr></thead><tbody><tr><td>Viagra Oral Tablet 50 mg</td><td>3/13/2013</td><td>4/12/2013</td><td>take 2 tablets (100 mg) by oral route once daily as needed approximately 1 hour before sexual activity for 30 days</td><td/></tr></tbody></table><table border=\"1\"><thead><tr><th colspan=\"5\">Expired</th></tr><tr><th>Name</th><th>Start Date</th><th>Expiration Date</th><th>SIG</th><th>Comments</th></tr></thead><tbody><tr><td>azithromycin Oral Tablet 500 mg</td><td>1/24/2013</td><td>2/23/2013</td><td>take 1 tablet by oral route daily for 30 days then 250 mg tablet once daily for the next 4 days</td><td/></tr><tr><td>albuterol sulfate Inhalation HFA Aerosol Inhaler 90 mcg/actuation</td><td>1/1/2013</td><td>1/31/2013</td><td>inhale 2 puffs by inhalation route every 6 hours as needed for 30 days</td><td/></tr></tbody></table></div>"
        },
        "mode": "snapshot",
        "entry": [ {
          "reference": "MedicationStatement/5b94510f-f4c0-4411-9e1e-e84eef60bd55",
          "display": "azithromycin Oral Tablet 500 mg"
        } ]
      }, {
        "title": "History of Procedures",
        "code": {
          "coding": [ {
            "system": "http://loinc.org",
            "code": "47519-4",
            "display": "History of procedures"
          } ]
        },
        "text": {
          "status": "additional",
          "div": "<div xmlns=\"http://www.w3.org/1999/xhtml\"><table border=\"1\"><thead><tr><th>Date Ordered</th><th>Description</th><th>Order Status</th><th>Result Status</th></tr></thead><tbody><tr><td>3/30/2012 12:00 AM</td><td>Influenza virus vaccine, split virus, preservative free, when administered to individuals 3 years and older, for intramuscular use</td><td>Reviewed</td><td/></tr><tr><td>1/24/2013 12:00 AM</td><td>Chest X-Ray, PA and Lateral Views; Body site: lower respiratory tract structure</td><td>Ordered</td><td/></tr></tbody></table></div>"
        },
        "mode": "snapshot",
        "entry": [ {
          "reference": "Observation/9e454ad0-5430-46ff-8515-4d2eb3c5fdbd",
          "display": "Influenza virus vaccine, split virus, preservative free, when administered to individuals 3 years and older, for intramuscular use"
        }, {
          "reference": "Observation/efad1c58-9966-4c6e-bb40-5c5ccca90c31",
          "display": "Chest X-Ray, PA and Lateral Views; Body site: lower respiratory tract structure"
        } ]
      }, {
        "title": "Problem List",
        "code": {
          "coding": [ {
            "system": "http://loinc.org",
            "code": "11450-4",
            "display": "Problem list"
          } ]
        },
        "text": {
          "status": "additional",
          "div": "<div xmlns=\"http://www.w3.org/1999/xhtml\"><table border=\"1\"><thead><tr><th>Description</th><th>Status</th><th>Onset</th></tr></thead><tbody><tr><td>Asthma</td><td>Active</td><td>09/25/2011</td></tr><tr><td>Essential Hypertension</td><td>Active</td><td>03/30/2012</td></tr><tr><td>Pharyngitis, Acute</td><td>Resolved</td><td>10/28/2011</td></tr><tr><td>Pneumonia</td><td>Active</td><td>01/24/2013</td></tr><tr><td>Acute Bronchitis</td><td>Active</td><td>03/07/2013</td></tr><tr><td>Malignant melanoma of skin; lower limb, including hip</td><td>Active</td><td>03/07/2013</td></tr></tbody></table></div>"
        },
        "mode": "snapshot",
        "entry": [ {
          "reference": "Condition/ec598da7-436a-4bed-bd35-847fd668633a"
        }, {
          "reference": "Condition/cfa460fa-08f4-4576-8a42-ba93016bf54d"
        }, {
          "reference": "Condition/fdf6c73a-5c96-4179-9cf5-d1fa4d942b8e"
        }, {
          "reference": "Condition/adc5f176-aba6-4c1a-95f6-48f21dfb5eb9"
        }, {
          "reference": "Condition/63210803-a397-4f0d-81c5-6d3424b911ca"
        }, {
          "reference": "Condition/0869bb3b-527d-45d0-adfc-772d1352906f"
        } ]
      }, {
        "title": "Social History",
        "code": {
          "coding": [ {
            "system": "http://loinc.org",
            "code": "29762-2",
            "display": "Social history"
          } ]
        },
        "text": {
          "status": "additional",
          "div": "<div xmlns=\"http://www.w3.org/1999/xhtml\"><table border=\"1\"><thead><tr><th>Name</th><th>Status</th><th>Comments</th></tr></thead><tbody><tr><td>Tobacco</td><td>Current</td><td/></tr></tbody></table></div>"
        },
        "mode": "snapshot",
        "entry": [ {
          "reference": "Observation/f6e978e0-c743-4c9b-8ea8-263a86a358a6"
        } ]
      }, {
        "title": "Allergies and Adverse Reactions",
        "code": {
          "coding": [ {
            "system": "http://loinc.org",
            "code": "48765-2",
            "display": "Allergies, adverse reactions, alerts"
          } ]
        },
        "text": {
          "status": "additional",
          "div": "<div xmlns=\"http://www.w3.org/1999/xhtml\"><table border=\"1\"><thead><tr><th>Name</th><th>Reaction</th><th>Notes</th></tr></thead><tbody><tr><td>codeine sulfate</td><td>swelling</td><td>active</td></tr><tr><td>penicillin G benzathine</td><td>hives</td><td>active</td></tr><tr><td>aspirin</td><td>shortness of breath</td><td>active</td></tr></tbody></table></div>"
        },
        "mode": "snapshot",
        "entry": [ {
          "reference": "AllergyIntolerance/568671ed-05f2-4b2a-9075-2ba7412459d2",
          "display": "codeine sulfate"
        }, {
          "reference": "AllergyIntolerance/ace6f57c-5600-4a67-8fa4-05fd00e753d7",
          "display": "penicillin G benzathine"
        }, {
          "reference": "AllergyIntolerance/1238f76c-5502-4647-b06d-d3f6bed57e82",
          "display": "aspirin"
        } ]
      }, {
        "title": "Plan of Treatment",
        "code": {
          "coding": [ {
            "system": "http://loinc.org",
            "code": "18776-5",
            "display": "Treatment Plan"
          } ]
        },
        "text": {
          "status": "additional",
          "div": "<div xmlns=\"http://www.w3.org/1999/xhtml\"><table border=\"1\"><thead><tr><th>Planned Activity</th><th>Comments</th><th>Planned Date</th><th>Planned Time</th><th>Plan/Goal</th></tr></thead><tbody><tr><td>Pulmonary Function Testing</td><td/><td/><td/><td/></tr><tr><td>test</td><td/><td>4/2/2013</td><td>4:00 PM</td><td/></tr><tr><td>r</td><td/><td/><td/><td/></tr><tr><td>Smoking Cessation Plan</td><td/><td>3/30/2012</td><td>12:00 AM</td><td>Resources and instructions provided during visit</td></tr><tr><td>Smoking Cessation: Goal</td><td/><td>3/30/2012</td><td>12:00 AM</td><td>Quit smoking</td></tr><tr><td>Weight Loss Plan</td><td/><td>3/30/2012</td><td>12:00 AM</td><td>Resources and instructions provided during visit.</td></tr><tr><td>Weight Loss: Goal</td><td/><td>3/30/2012</td><td>12:00 AM</td><td>BMI &amp;lt; 25</td></tr><tr><td>Chest X-Ray, PA and Lateral Views; Body site: lower respiratory tract structure</td><td/><td>1/24/2013</td><td>12:00 AM</td><td/></tr></tbody></table></div>"
        },
        "mode": "snapshot",
        "entry": [ {
          "reference": "CarePlan/435f6e45-2b23-4570-9db2-3ae316a48e5a"
        } ]
      }, {
        "title": "Results Summary",
        "code": {
          "coding": [ {
            "system": "http://loinc.org",
            "code": "30954-2",
            "display": "Relevant diagnostic tests and/or laboratory data"
          } ]
        },
        "text": {
          "status": "additional",
          "div": "<div xmlns=\"http://www.w3.org/1999/xhtml\"><table border=\"1\"><thead><tr><th>Data and Description</th><th>Results</th></tr></thead><tbody><tr><td>1/24/2013 1:12 PM</td><td><ul><li>Hgb Bld-mCnc 15.0 g/dL</li><li>Hct Fr Bld Auto 50.0 %</li><li>WBC # Bld Auto 6.0 x10E3/uL</li><li>Platelet # Bld Auto 300.0 x10E3/uL</li></ul></td></tr></tbody></table></div>"
        },
        "mode": "snapshot",
        "entry": [ {
          "reference": "DiagnosticReport/f0d3b578-0864-4e8b-8569-38076c684a61"
        }, {
          "reference": "DiagnosticReport/d03a2a07-9c5a-4415-a146-9f638461cbbd"
        }, {
          "reference": "DiagnosticReport/3a314749-3f2a-402b-b0c6-dcc75b2d4188"
        }, {
          "reference": "DiagnosticReport/d8800654-40fe-486a-9a67-0c7a35b30b0f"
        } ]
      } ]
    }
  }, {
    "resource": {
      "resourceType": "Patient",
      "id": "705a37e6-3811-4494-85aa-9178f76f5334",
      "extension": [ {
        "url": "http://hl7.org/fhir/us/core/StructureDefinition/us-core-race",
        "extension": [ {
          "url": "text",
          "valueString": "White"
        }, {
          "url": "ombCategory",
          "valueCoding": {
            "system": "urn:oid:2.16.840.1.113883.6.238",
            "code": "2106-3",
            "display": "White"
          }
        } ]
      }, {
        "url": "http://hl7.org/fhir/us/core/StructureDefinition/us-core-ethnicity",
        "extension": [ {
          "url": "text",
          "valueString": "Hispanic or Latino"
        }, {
          "url": "ombCategory",
          "valueCoding": {
            "system": "urn:oid:2.16.840.1.113883.6.238",
            "code": "2135-2",
            "display": "Hispanic or Latino"
          }
        } ]
      } ],
      "identifier": [ {
        "use": "official",
        "system": "urn:oid:2.16.840.1.113883.3.441.1.50.300011.51",
        "value": "26604"
      } ],
      "name": [ {
        "family": "Everyman",
        "given": [ "Adam" ]
      } ],
      "gender": "male",
      "birthDate": "1962-10-22",
      "address": [ {
        "state": "GA",
        "country": "US"
      } ],
      "maritalStatus": {
        "coding": [ {
          "system": "http://terminology.hl7.org/CodeSystem/v3-MaritalStatus",
          "code": "S",
          "display": "Never Married"
        } ]
      },
      "communication": [ {
        "language": {
          "coding": [ {
            "system": "urn:ietf:bcp:47",
            "code": "eng"
          } ]
        }
      } ],
      "managingOrganization": {
        "reference": "Organization/b75fb787-f2b5-4054-858c-f7f00c45848d",
        "display": "Get Well Clinic"
      }
    }
  }, {
    "resource": {
      "resourceType": "Organization",
      "id": "b75fb787-f2b5-4054-858c-f7f00c45848d",
      "identifier": [ {
        "use": "official",
        "system": "urn:oid:2.16.840.1.113883.3.441.1.50",
        "value": "300011"
      } ],
      "name": "Get Well Clinic",
      "telecom": [ {
        "system": "phone",
        "value": "555-555-1004",
        "use": "work"
      } ],
      "address": [ {
        "line": [ "1004 Healthcare Dr. practice" ],
        "city": "Portland",
        "state": "OR",
        "postalCode": "97005",
        "country": "United States"
      } ]
    }
  }, {
    "resource": {
      "resourceType": "Practitioner",
      "id": "38c6f87e-6469-425b-99b2-4b30b9bdd80a",
      "identifier": [ {
        "use": "official",
        "system": "urn:oid:2.16.840.1.113883.4.6",
        "value": "452ecc6ad462460bb535bc226fc7f612"
      } ],
      "telecom": [ {
        "system": "phone",
        "value": "555-555-1004",
        "use": "work"
      } ],
      "address": [ {
        "line": [ "1004 Healthcare Dr. practice" ],
        "city": "Portland",
        "state": "OR",
        "postalCode": "97005",
        "country": "United States"
      } ]
    }
  }, {
    "resource": {
      "resourceType": "PractitionerRole",
      "id": "8137cbf9-dd29-4003-85f5-c4790b06c79a",
      "practitioner": {
        "reference": "Practitioner/38c6f87e-6469-425b-99b2-4b30b9bdd80a"
      },
      "organization": {
        "reference": "Organization/b75fb787-f2b5-4054-858c-f7f00c45848d",
        "display": "Get Well Clinic"
      }
    }
  }, {
    "resource": {
      "resourceType": "Practitioner",
      "id": "74b164ee-8995-4c41-a1d6-5adcdcd38e21",
      "identifier": [ {
        "use": "official",
        "system": "http://hl7.org/fhir/sid/us-npi",
        "value": "UNK"
      } ]
    }
  }, {
    "resource": {
      "resourceType": "Practitioner",
      "id": "dc201fc0-d0ac-43ca-896d-4d1a4dcac3b0",
      "identifier": [ {
        "use": "official",
        "system": "http://hl7.org/fhir/sid/us-npi",
        "value": "UNK"
      } ],
      "name": [ {
        "family": "Seven, M.D.",
        "given": [ "Henry" ]
      } ]
    }
  }, {
    "resource": {
      "resourceType": "Immunization",
      "id": "d7032f28-fac2-402e-b350-d7d1578d05a7",
      "identifier": [ {
        "use": "official",
        "system": "urn:oid:2.16.840.1.113883.3.441.1.50.300011.51.26604.60",
        "value": "1159"
      } ],
      "status": "completed",
      "vaccineCode": {
        "coding": [ {
          "system": "http://www2a.cdc.gov/vaccines/iis/iisstandards/vaccines.asp?rpt=cvx",
          "code": "88",
          "display": "influenza, NOS"
        } ],
        "text": "Influenza Adult"
      },
      "patient": {
        "reference": "Patient/705a37e6-3811-4494-85aa-9178f76f5334",
        "display": "Adam Everyman"
      },
      "occurrenceDateTime": "2012-03-30T00:00:00+02:00",
      "primarySource": true,
      "lotNumber": "ADV-345",
      "doseQuantity": {
        "value": 0.5,
        "unit": "1",
        "system": "http://unitsofmeasure.org/ucum.html"
      },
      "performer": [ {
        "function": {
          "coding": [ {
            "system": "http://hl7.org/fhir/v2/0443",
            "code": "AP",
            "display": "Administering Provider"
          } ]
        },
        "actor": {
          "reference": "Practitioner/cb64d4ac-899b-4aba-819b-2a17eece20ca",
          "display": "Mike Hardy"
        }
      } ]
    }
  }, {
    "resource": {
      "resourceType": "Practitioner",
      "id": "cb64d4ac-899b-4aba-819b-2a17eece20ca",
      "identifier": [ {
        "use": "official",
        "system": "urn:oid:2.16.840.1.113883.3.441",
        "value": "41e28a1c762041c198fa797e7392ed92"
      } ],
      "name": [ {
        "family": "Hardy",
        "given": [ "Mike" ]
      } ],
      "telecom": [ {
        "system": "phone",
        "value": "770-888-3333"
      } ],
      "address": [ {
        "line": [ "1234 test" ],
        "city": "Norcross",
        "state": "GA",
        "postalCode": "30091",
        "country": "United States"
      } ]
    }
  }, {
    "resource": {
      "resourceType": "PractitionerRole",
      "id": "fa30706d-0bbf-42fb-901d-4128cfd48828",
      "practitioner": {
        "reference": "Practitioner/cb64d4ac-899b-4aba-819b-2a17eece20ca",
        "display": "Mike Hardy"
      },
      "organization": {
        "reference": "Organization/863d79ab-f337-4517-b652-6ba34f68330b"
      }
    }
  }, {
    "resource": {
      "resourceType": "Organization",
      "id": "863d79ab-f337-4517-b652-6ba34f68330b",
      "identifier": [ {
        "use": "official",
        "system": "urn:oid:2.16.840.1.113883.3.441",
        "value": "53dab4db681243abb2602853f3487bde"
      } ],
      "telecom": [ {
        "system": "phone",
        "value": "770-888-3333",
        "use": "work"
      } ],
      "address": [ {
        "line": [ "1234 test" ],
        "city": "Norcross",
        "state": "GA",
        "postalCode": "30091",
        "country": "United States"
      } ]
    }
  }, {
    "resource": {
      "resourceType": "Observation",
      "id": "77d33974-6c59-4f22-8798-79095f947045",
      "identifier": [ {
        "use": "official",
        "system": "urn:oid:2.16.840.1.113883.3.441.1.50.300011.51.26604.55",
        "value": "2276"
      } ],
      "status": "final",
      "category": [ {
        "coding": [ {
          "system": "http://terminology.hl7.org/CodeSystem/observation-category",
          "code": "vital-signs",
          "display": "Vital Signs"
        } ]
      } ],
      "code": {
        "coding": [ {
          "system": "http://loinc.org",
          "code": "8462-4",
          "display": "BP Diastolic"
        } ]
      },
      "subject": {
        "reference": "Patient/705a37e6-3811-4494-85aa-9178f76f5334",
        "display": "Adam Everyman"
      },
      "effectivePeriod": {
        "start": "2011-09-25T13:41:00+02:00"
      },
      "valueQuantity": {
        "value": 75,
        "unit": "mm[Hg]",
        "system": "http://unitsofmeasure.org",
        "code": "mm[Hg]"
      }
    }
  }, {
    "resource": {
      "resourceType": "Observation",
      "id": "fd3e662a-70a0-41e9-9251-d1819063baf1",
      "identifier": [ {
        "use": "official",
        "system": "urn:oid:2.16.840.1.113883.3.441.1.50.300011.51.26604.55",
        "value": "2278"
      } ],
      "status": "final",
      "category": [ {
        "coding": [ {
          "system": "http://terminology.hl7.org/CodeSystem/observation-category",
          "code": "vital-signs",
          "display": "Vital Signs"
        } ]
      } ],
      "code": {
        "coding": [ {
          "system": "http://loinc.org",
          "code": "41909-3",
          "display": "Body Mass Index"
        } ]
      },
      "subject": {
        "reference": "Patient/705a37e6-3811-4494-85aa-9178f76f5334",
        "display": "Adam Everyman"
      },
      "effectivePeriod": {
        "start": "2011-09-25T13:41:00+02:00"
      },
      "valueQuantity": {
        "value": 25.827,
        "unit": "kg/m²",
        "system": "http://unitsofmeasure.org",
        "code": "kg/m²"
      }
    }
  }, {
    "resource": {
      "resourceType": "Observation",
      "id": "a5ab9b37-27aa-45f6-8b65-7b8519a21fa4",
      "identifier": [ {
        "use": "official",
        "system": "urn:oid:2.16.840.1.113883.3.441.1.50.300011.51.26604.55",
        "value": "2280"
      } ],
      "status": "final",
      "category": [ {
        "coding": [ {
          "system": "http://terminology.hl7.org/CodeSystem/observation-category",
          "code": "vital-signs",
          "display": "Vital Signs"
        } ]
      } ],
      "code": {
        "coding": [ {
          "system": "http://loinc.org",
          "code": "8302-2",
          "display": "Body Height (Measured)"
        } ]
      },
      "subject": {
        "reference": "Patient/705a37e6-3811-4494-85aa-9178f76f5334",
        "display": "Adam Everyman"
      },
      "effectivePeriod": {
        "start": "2011-09-25T13:41:00+02:00"
      },
      "valueQuantity": {
        "value": 70,
        "unit": "[in_us]",
        "system": "http://unitsofmeasure.org",
        "code": "[in_us]"
      }
    }
  }, {
    "resource": {
      "resourceType": "Observation",
      "id": "e014a3be-279c-4b20-bdf7-f6d79a102a5e",
      "identifier": [ {
        "use": "official",
        "system": "urn:oid:2.16.840.1.113883.3.441.1.50.300011.51.26604.55",
        "value": "2277"
      } ],
      "status": "final",
      "category": [ {
        "coding": [ {
          "system": "http://terminology.hl7.org/CodeSystem/observation-category",
          "code": "vital-signs",
          "display": "Vital Signs"
        } ]
      } ],
      "code": {
        "coding": [ {
          "system": "http://loinc.org",
          "code": "8480-6",
          "display": "BP Systolic"
        } ]
      },
      "subject": {
        "reference": "Patient/705a37e6-3811-4494-85aa-9178f76f5334",
        "display": "Adam Everyman"
      },
      "effectivePeriod": {
        "start": "2011-09-25T13:41:00+02:00"
      },
      "valueQuantity": {
        "value": 120,
        "unit": "mm[Hg]",
        "system": "http://unitsofmeasure.org",
        "code": "mm[Hg]"
      }
    }
  }, {
    "resource": {
      "resourceType": "Observation",
      "id": "f5021935-e25a-45fa-8279-d972fbd57c00",
      "identifier": [ {
        "use": "official",
        "system": "urn:oid:2.16.840.1.113883.3.441.1.50.300011.51.26604.55",
        "value": "2281"
      } ],
      "status": "final",
      "category": [ {
        "coding": [ {
          "system": "http://terminology.hl7.org/CodeSystem/observation-category",
          "code": "vital-signs",
          "display": "Vital Signs"
        } ]
      } ],
      "code": {
        "coding": [ {
          "system": "http://loinc.org",
          "code": "3141-9",
          "display": "Body Weight (Measured)"
        } ]
      },
      "subject": {
        "reference": "Patient/705a37e6-3811-4494-85aa-9178f76f5334",
        "display": "Adam Everyman"
      },
      "effectivePeriod": {
        "start": "2011-09-25T13:41:00+02:00"
      },
      "valueQuantity": {
        "value": 180,
        "unit": "[lb_av]",
        "system": "http://unitsofmeasure.org",
        "code": "[lb_av]"
      }
    }
  }, {
    "resource": {
      "resourceType": "Observation",
      "id": "bd3da866-4eaf-4697-b2c1-7addef349fb2",
      "identifier": [ {
        "use": "official",
        "system": "urn:oid:2.16.840.1.113883.3.441.1.50.300011.51.26604.55",
        "value": "2917"
      } ],
      "status": "final",
      "category": [ {
        "coding": [ {
          "system": "http://terminology.hl7.org/CodeSystem/observation-category",
          "code": "vital-signs",
          "display": "Vital Signs"
        } ]
      } ],
      "code": {
        "coding": [ {
          "system": "http://loinc.org",
          "code": "8302-2",
          "display": "Body Height (Measured)"
        } ]
      },
      "subject": {
        "reference": "Patient/705a37e6-3811-4494-85aa-9178f76f5334",
        "display": "Adam Everyman"
      },
      "effectivePeriod": {
        "start": "2013-01-24T13:12:00+01:00"
      },
      "valueQuantity": {
        "value": 70,
        "unit": "[in_us]",
        "system": "http://unitsofmeasure.org",
        "code": "[in_us]"
      }
    }
  }, {
    "resource": {
      "resourceType": "Observation",
      "id": "999463f6-ae88-4d2c-b600-4c074353f5d0",
      "identifier": [ {
        "use": "official",
        "system": "urn:oid:2.16.840.1.113883.3.441.1.50.300011.51.26604.55",
        "value": "2918"
      } ],
      "status": "final",
      "category": [ {
        "coding": [ {
          "system": "http://terminology.hl7.org/CodeSystem/observation-category",
          "code": "vital-signs",
          "display": "Vital Signs"
        } ]
      } ],
      "code": {
        "coding": [ {
          "system": "http://loinc.org",
          "code": "3141-9",
          "display": "Body Weight (Measured)"
        } ]
      },
      "subject": {
        "reference": "Patient/705a37e6-3811-4494-85aa-9178f76f5334",
        "display": "Adam Everyman"
      },
      "effectivePeriod": {
        "start": "2013-01-24T13:12:00+01:00"
      },
      "valueQuantity": {
        "value": 162,
        "unit": "[lb_av]",
        "system": "http://unitsofmeasure.org",
        "code": "[lb_av]"
      }
    }
  }, {
    "resource": {
      "resourceType": "Observation",
      "id": "f4b2ae21-b3b1-4fbf-bb0e-c0dc6dd5b912",
      "identifier": [ {
        "use": "official",
        "system": "urn:oid:2.16.840.1.113883.3.441.1.50.300011.51.26604.55",
        "value": "2914"
      } ],
      "status": "final",
      "category": [ {
        "coding": [ {
          "system": "http://terminology.hl7.org/CodeSystem/observation-category",
          "code": "vital-signs",
          "display": "Vital Signs"
        } ]
      } ],
      "code": {
        "coding": [ {
          "system": "http://loinc.org",
          "code": "8480-6",
          "display": "BP Systolic"
        } ]
      },
      "subject": {
        "reference": "Patient/705a37e6-3811-4494-85aa-9178f76f5334",
        "display": "Adam Everyman"
      },
      "effectivePeriod": {
        "start": "2013-01-24T13:12:00+01:00"
      },
      "valueQuantity": {
        "value": 120,
        "unit": "mm[Hg]",
        "system": "http://unitsofmeasure.org",
        "code": "mm[Hg]"
      }
    }
  }, {
    "resource": {
      "resourceType": "Observation",
      "id": "cf039ddf-1b12-47da-8381-d1a3af5959cf",
      "identifier": [ {
        "use": "official",
        "system": "urn:oid:2.16.840.1.113883.3.441.1.50.300011.51.26604.55",
        "value": "2915"
      } ],
      "status": "final",
      "category": [ {
        "coding": [ {
          "system": "http://terminology.hl7.org/CodeSystem/observation-category",
          "code": "vital-signs",
          "display": "Vital Signs"
        } ]
      } ],
      "code": {
        "coding": [ {
          "system": "http://loinc.org",
          "code": "41909-3",
          "display": "Body Mass Index"
        } ]
      },
      "subject": {
        "reference": "Patient/705a37e6-3811-4494-85aa-9178f76f5334",
        "display": "Adam Everyman"
      },
      "effectivePeriod": {
        "start": "2013-01-24T13:12:00+01:00"
      },
      "valueQuantity": {
        "value": 23.2443,
        "unit": "kg/m²",
        "system": "http://unitsofmeasure.org",
        "code": "kg/m²"
      }
    }
  }, {
    "resource": {
      "resourceType": "Observation",
      "id": "cafc43d2-4cd4-41c0-b626-62e881449536",
      "identifier": [ {
        "use": "official",
        "system": "urn:oid:2.16.840.1.113883.3.441.1.50.300011.51.26604.55",
        "value": "2913"
      } ],
      "status": "final",
      "category": [ {
        "coding": [ {
          "system": "http://terminology.hl7.org/CodeSystem/observation-category",
          "code": "vital-signs",
          "display": "Vital Signs"
        } ]
      } ],
      "code": {
        "coding": [ {
          "system": "http://loinc.org",
          "code": "8462-4",
          "display": "BP Diastolic"
        } ]
      },
      "subject": {
        "reference": "Patient/705a37e6-3811-4494-85aa-9178f76f5334",
        "display": "Adam Everyman"
      },
      "effectivePeriod": {
        "start": "2013-01-24T13:12:00+01:00"
      },
      "valueQuantity": {
        "value": 80,
        "unit": "mm[Hg]",
        "system": "http://unitsofmeasure.org",
        "code": "mm[Hg]"
      }
    }
  }, {
    "resource": {
      "resourceType": "Observation",
      "id": "3899a548-5282-420f-90a7-25d5cfcd99a8",
      "identifier": [ {
        "use": "official",
        "system": "urn:oid:2.16.840.1.113883.3.441.1.50.300011.51.26604.55",
        "value": "2291"
      } ],
      "status": "final",
      "category": [ {
        "coding": [ {
          "system": "http://terminology.hl7.org/CodeSystem/observation-category",
          "code": "vital-signs",
          "display": "Vital Signs"
        } ]
      } ],
      "code": {
        "coding": [ {
          "system": "http://loinc.org",
          "code": "3141-9",
          "display": "Body Weight (Measured)"
        } ]
      },
      "subject": {
        "reference": "Patient/705a37e6-3811-4494-85aa-9178f76f5334",
        "display": "Adam Everyman"
      },
      "effectivePeriod": {
        "start": "2012-03-30T14:29:00+02:00"
      },
      "valueQuantity": {
        "value": 195,
        "unit": "[lb_av]",
        "system": "http://unitsofmeasure.org",
        "code": "[lb_av]"
      }
    }
  }, {
    "resource": {
      "resourceType": "Observation",
      "id": "acc45893-5f38-4711-8e30-5451c1cb1acd",
      "identifier": [ {
        "use": "official",
        "system": "urn:oid:2.16.840.1.113883.3.441.1.50.300011.51.26604.55",
        "value": "2287"
      } ],
      "status": "final",
      "category": [ {
        "coding": [ {
          "system": "http://terminology.hl7.org/CodeSystem/observation-category",
          "code": "vital-signs",
          "display": "Vital Signs"
        } ]
      } ],
      "code": {
        "coding": [ {
          "system": "http://loinc.org",
          "code": "8480-6",
          "display": "BP Systolic"
        } ]
      },
      "subject": {
        "reference": "Patient/705a37e6-3811-4494-85aa-9178f76f5334",
        "display": "Adam Everyman"
      },
      "effectivePeriod": {
        "start": "2012-03-30T14:29:00+02:00"
      },
      "valueQuantity": {
        "value": 160,
        "unit": "mm[Hg]",
        "system": "http://unitsofmeasure.org",
        "code": "mm[Hg]"
      }
    }
  }, {
    "resource": {
      "resourceType": "Observation",
      "id": "114b820b-0b67-4547-bd56-f7e7aab3caf1",
      "identifier": [ {
        "use": "official",
        "system": "urn:oid:2.16.840.1.113883.3.441.1.50.300011.51.26604.55",
        "value": "2286"
      } ],
      "status": "final",
      "category": [ {
        "coding": [ {
          "system": "http://terminology.hl7.org/CodeSystem/observation-category",
          "code": "vital-signs",
          "display": "Vital Signs"
        } ]
      } ],
      "code": {
        "coding": [ {
          "system": "http://loinc.org",
          "code": "8462-4",
          "display": "BP Diastolic"
        } ]
      },
      "subject": {
        "reference": "Patient/705a37e6-3811-4494-85aa-9178f76f5334",
        "display": "Adam Everyman"
      },
      "effectivePeriod": {
        "start": "2012-03-30T14:29:00+02:00"
      },
      "valueQuantity": {
        "value": 98,
        "unit": "mm[Hg]",
        "system": "http://unitsofmeasure.org",
        "code": "mm[Hg]"
      }
    }
  }, {
    "resource": {
      "resourceType": "Observation",
      "id": "5aeeb00c-a77c-4166-9950-4b67b1eb2c37",
      "identifier": [ {
        "use": "official",
        "system": "urn:oid:2.16.840.1.113883.3.441.1.50.300011.51.26604.55",
        "value": "2288"
      } ],
      "status": "final",
      "category": [ {
        "coding": [ {
          "system": "http://terminology.hl7.org/CodeSystem/observation-category",
          "code": "vital-signs",
          "display": "Vital Signs"
        } ]
      } ],
      "code": {
        "coding": [ {
          "system": "http://loinc.org",
          "code": "41909-3",
          "display": "Body Mass Index"
        } ]
      },
      "subject": {
        "reference": "Patient/705a37e6-3811-4494-85aa-9178f76f5334",
        "display": "Adam Everyman"
      },
      "effectivePeriod": {
        "start": "2012-03-30T14:29:00+02:00"
      },
      "valueQuantity": {
        "value": 27.9793,
        "unit": "kg/m²",
        "system": "http://unitsofmeasure.org",
        "code": "kg/m²"
      }
    }
  }, {
    "resource": {
      "resourceType": "Observation",
      "id": "79a2c943-a35e-4b98-854a-c03e9fbcf340",
      "identifier": [ {
        "use": "official",
        "system": "urn:oid:2.16.840.1.113883.3.441.1.50.300011.51.26604.55",
        "value": "2290"
      } ],
      "status": "final",
      "category": [ {
        "coding": [ {
          "system": "http://terminology.hl7.org/CodeSystem/observation-category",
          "code": "vital-signs",
          "display": "Vital Signs"
        } ]
      } ],
      "code": {
        "coding": [ {
          "system": "http://loinc.org",
          "code": "8302-2",
          "display": "Body Height (Measured)"
        } ]
      },
      "subject": {
        "reference": "Patient/705a37e6-3811-4494-85aa-9178f76f5334",
        "display": "Adam Everyman"
      },
      "effectivePeriod": {
        "start": "2012-03-30T14:29:00+02:00"
      },
      "valueQuantity": {
        "value": 70,
        "unit": "[in_us]",
        "system": "http://unitsofmeasure.org",
        "code": "[in_us]"
      }
    }
  }, {
    "resource": {
      "resourceType": "MedicationStatement",
      "id": "5b94510f-f4c0-4411-9e1e-e84eef60bd55",
      "extension": [ {
        "url": "http://hl7.org/fhir/3.0/StructureDefinition/extension-MedicationStatement.status",
        "valueCode": "UNKNOWN"
      } ],
      "identifier": [ {
        "use": "official",
        "system": "urn:oid:2.16.840.1.113883.3.441.1.50.300011.51.26604.58",
        "value": "2056"
      } ],
      "status": "completed",
      "medicationReference": {
        "reference": "Medication/87ee3ea6-a3b3-4782-b5df-a1d03b7d7592",
        "display": "azithromycin Oral Tablet 500 mg"
      },
      "subject": {
        "reference": "Patient/705a37e6-3811-4494-85aa-9178f76f5334",
        "display": "Adam Everyman"
      },
      "effectivePeriod": {
        "start": "2013-01-01T00:00:00+01:00",
        "end": "2013-01-31T00:00:00+01:00"
      },
      "dosage": [ {
        "doseAndRate": [ {
          "doseQuantity": {
            "value": 2,
            "unit": "1",
            "system": "http://unitsofmeasure.org/ucum.html"
          }
        } ]
      } ]
    }
  }, {
    "resource": {
      "resourceType": "Medication",
      "id": "87ee3ea6-a3b3-4782-b5df-a1d03b7d7592",
      "code": {
        "coding": [ {
          "code": "279394",
          "display": "albuterol sulfate Inhalation HFA Aerosol Inhaler 90 mcg/actuation"
        }, {
          "system": "http://www.nlm.nih.gov/research/umls/rxnorm",
          "code": "745679",
          "display": "200 ACTUAT Albuterol 0.09 MG/ACTUAT Metered Dose Inhaler"
        } ],
        "text": "azithromycin Oral Tablet 500 mg"
      }
    }
  }, {
    "resource": {
      "resourceType": "Observation",
      "id": "9e454ad0-5430-46ff-8515-4d2eb3c5fdbd",
      "identifier": [ {
        "use": "official",
        "system": "urn:oid:2.16.840.1.113883.3.441.1.50.300011.51.26604.53",
        "value": "61243"
      } ],
      "status": "final",
      "code": {
        "coding": [ {
          "system": "http://www.ama-assn.org/go/cpt",
          "code": "90656",
          "display": "INFLUENZA VIRUS VACC SPLIT PRSRV FREE 3 YRS/> IM"
        } ],
        "text": "Influenza virus vaccine, split virus, preservative free, when administered to individuals 3 years and older, for intramuscular use"
      },
      "subject": {
        "reference": "Patient/705a37e6-3811-4494-85aa-9178f76f5334",
        "display": "Adam Everyman"
      },
      "effectivePeriod": {
        "start": "2012-03-30T00:00:00+02:00"
      },
      "dataAbsentReason": {
        "coding": [ {
          "system": "http://hl7.org/fhir/data-absent-reason",
          "code": "error",
          "display": "Error"
        } ]
      }
    }
  }, {
    "resource": {
      "resourceType": "Observation",
      "id": "efad1c58-9966-4c6e-bb40-5c5ccca90c31",
      "identifier": [ {
        "use": "official",
        "system": "urn:oid:2.16.840.1.113883.3.441.1.50.300011.51.26604.53",
        "value": "61405"
      } ],
      "status": "final",
      "code": {
        "coding": [ {
          "system": "http://www.ama-assn.org/go/cpt",
          "code": "71020",
          "display": "RADIOLOGIC EXAM CHEST 2 VIEWS FRONTAL&LATERAL"
        } ],
        "text": "Chest X-Ray, PA and Lateral Views; Body site: lower respiratory tract structure"
      },
      "subject": {
        "reference": "Patient/705a37e6-3811-4494-85aa-9178f76f5334",
        "display": "Adam Everyman"
      },
      "effectivePeriod": {
        "start": "2013-01-24T00:00:00+01:00"
      },
      "dataAbsentReason": {
        "coding": [ {
          "system": "http://hl7.org/fhir/data-absent-reason",
          "code": "error",
          "display": "Error"
        } ]
      }
    }
  }, {
    "resource": {
      "resourceType": "Condition",
      "id": "ec598da7-436a-4bed-bd35-847fd668633a",
      "identifier": [ {
        "use": "official",
        "system": "urn:oid:2.16.840.1.113883.3.441.1.50.300011.51.26604.61",
        "value": "1350"
      } ],
      "clinicalStatus": {
        "coding": [ {
          "system": "http://terminology.hl7.org/CodeSystem/condition-clinical",
          "code": "active",
          "display": "Active"
        } ]
      },
      "verificationStatus": {
        "coding": [ {
          "system": "http://terminology.hl7.org/CodeSystem/condition-ver-status",
          "code": "confirmed",
          "display": "Confirmed"
        } ]
      },
      "category": [ {
        "coding": [ {
          "system": "http://terminology.hl7.org/CodeSystem/condition-category",
          "code": "problem-list-item",
          "display": "Problem List Item"
        } ]
      } ],
      "subject": {
        "reference": "Patient/705a37e6-3811-4494-85aa-9178f76f5334",
        "display": "Adam Everyman"
      }
    }
  }, {
    "resource": {
      "resourceType": "Condition",
      "id": "cfa460fa-08f4-4576-8a42-ba93016bf54d",
      "identifier": [ {
        "use": "official",
        "system": "urn:oid:2.16.840.1.113883.3.441.1.50.300011.51.26604.61",
        "value": "1349"
      } ],
      "clinicalStatus": {
        "coding": [ {
          "system": "http://terminology.hl7.org/CodeSystem/condition-clinical",
          "code": "active",
          "display": "Active"
        } ]
      },
      "verificationStatus": {
        "coding": [ {
          "system": "http://terminology.hl7.org/CodeSystem/condition-ver-status",
          "code": "confirmed",
          "display": "Confirmed"
        } ]
      },
      "category": [ {
        "coding": [ {
          "system": "http://terminology.hl7.org/CodeSystem/condition-category",
          "code": "problem-list-item",
          "display": "Problem List Item"
        } ]
      } ],
      "subject": {
        "reference": "Patient/705a37e6-3811-4494-85aa-9178f76f5334",
        "display": "Adam Everyman"
      }
    }
  }, {
    "resource": {
      "resourceType": "Condition",
      "id": "fdf6c73a-5c96-4179-9cf5-d1fa4d942b8e",
      "identifier": [ {
        "use": "official",
        "system": "urn:oid:2.16.840.1.113883.3.441.1.50.300011.51.26604.61",
        "value": "1425"
      } ],
      "clinicalStatus": {
        "coding": [ {
          "system": "http://terminology.hl7.org/CodeSystem/condition-clinical",
          "code": "active",
          "display": "Active"
        } ]
      },
      "verificationStatus": {
        "coding": [ {
          "system": "http://terminology.hl7.org/CodeSystem/condition-ver-status",
          "code": "confirmed",
          "display": "Confirmed"
        } ]
      },
      "category": [ {
        "coding": [ {
          "system": "http://terminology.hl7.org/CodeSystem/condition-category",
          "code": "problem-list-item",
          "display": "Problem List Item"
        } ]
      } ],
      "subject": {
        "reference": "Patient/705a37e6-3811-4494-85aa-9178f76f5334",
        "display": "Adam Everyman"
      }
    }
  }, {
    "resource": {
      "resourceType": "Condition",
      "id": "adc5f176-aba6-4c1a-95f6-48f21dfb5eb9",
      "identifier": [ {
        "use": "official",
        "system": "urn:oid:2.16.840.1.113883.3.441.1.50.300011.51.26604.61",
        "value": "1444"
      } ],
      "clinicalStatus": {
        "coding": [ {
          "system": "http://terminology.hl7.org/CodeSystem/condition-clinical",
          "code": "active",
          "display": "Active"
        } ]
      },
      "verificationStatus": {
        "coding": [ {
          "system": "http://terminology.hl7.org/CodeSystem/condition-ver-status",
          "code": "confirmed",
          "display": "Confirmed"
        } ]
      },
      "category": [ {
        "coding": [ {
          "system": "http://terminology.hl7.org/CodeSystem/condition-category",
          "code": "problem-list-item",
          "display": "Problem List Item"
        } ]
      } ],
      "subject": {
        "reference": "Patient/705a37e6-3811-4494-85aa-9178f76f5334",
        "display": "Adam Everyman"
      }
    }
  }, {
    "resource": {
      "resourceType": "Condition",
      "id": "63210803-a397-4f0d-81c5-6d3424b911ca",
      "identifier": [ {
        "use": "official",
        "system": "urn:oid:2.16.840.1.113883.3.441.1.50.300011.51.26604.61",
        "value": "1348"
      } ],
      "clinicalStatus": {
        "coding": [ {
          "system": "http://terminology.hl7.org/CodeSystem/condition-clinical",
          "code": "active",
          "display": "Active"
        } ]
      },
      "verificationStatus": {
        "coding": [ {
          "system": "http://terminology.hl7.org/CodeSystem/condition-ver-status",
          "code": "confirmed",
          "display": "Confirmed"
        } ]
      },
      "category": [ {
        "coding": [ {
          "system": "http://terminology.hl7.org/CodeSystem/condition-category",
          "code": "problem-list-item",
          "display": "Problem List Item"
        } ]
      } ],
      "subject": {
        "reference": "Patient/705a37e6-3811-4494-85aa-9178f76f5334",
        "display": "Adam Everyman"
      }
    }
  }, {
    "resource": {
      "resourceType": "Condition",
      "id": "0869bb3b-527d-45d0-adfc-772d1352906f",
      "identifier": [ {
        "use": "official",
        "system": "urn:oid:2.16.840.1.113883.3.441.1.50.300011.51.26604.61",
        "value": "1443"
      } ],
      "clinicalStatus": {
        "coding": [ {
          "system": "http://terminology.hl7.org/CodeSystem/condition-clinical",
          "code": "active",
          "display": "Active"
        } ]
      },
      "verificationStatus": {
        "coding": [ {
          "system": "http://terminology.hl7.org/CodeSystem/condition-ver-status",
          "code": "confirmed",
          "display": "Confirmed"
        } ]
      },
      "category": [ {
        "coding": [ {
          "system": "http://terminology.hl7.org/CodeSystem/condition-category",
          "code": "problem-list-item",
          "display": "Problem List Item"
        } ]
      } ],
      "subject": {
        "reference": "Patient/705a37e6-3811-4494-85aa-9178f76f5334",
        "display": "Adam Everyman"
      }
    }
  }, {
    "resource": {
      "resourceType": "Observation",
      "id": "f6e978e0-c743-4c9b-8ea8-263a86a358a6",
      "identifier": [ {
        "use": "official",
        "system": "urn:oid:2.16.840.1.113883.3.441.1.50.300011.51.26604.68",
        "value": "1265"
      } ],
      "status": "final",
      "code": {
        "coding": [ {
          "system": "urn:oid:2.16.840.1.113883.5.4",
          "code": "ASSERTION"
        } ]
      },
      "subject": {
        "reference": "Patient/705a37e6-3811-4494-85aa-9178f76f5334",
        "display": "Adam Everyman"
      },
      "effectivePeriod": {
        "start": "1900-01-01T00:00:00+01:00"
      },
      "valueCodeableConcept": {
        "coding": [ {
          "system": "http://snomed.info/sct",
          "code": "77176002",
          "display": "Smoker, current status unknown"
        } ]
      }
    }
  }, {
    "resource": {
      "resourceType": "AllergyIntolerance",
      "id": "568671ed-05f2-4b2a-9075-2ba7412459d2",
      "identifier": [ {
        "use": "official",
        "system": "urn:oid:2.16.840.1.113883.3.441.1.50.300011.51.26604.57",
        "value": "1310"
      } ],
      "clinicalStatus": {
        "coding": [ {
          "system": "http://terminology.hl7.org/CodeSystem/allergyintolerance-clinical",
          "code": "active",
          "display": "Active"
        } ]
      },
      "verificationStatus": {
        "coding": [ {
          "system": "http://terminology.hl7.org/CodeSystem/allergyintolerance-verification",
          "code": "confirmed",
          "display": "Confirmed"
        } ]
      },
      "type": "allergy",
      "category": [ "environment" ],
      "code": {
        "text": "codeine sulfate"
      },
      "patient": {
        "reference": "Patient/705a37e6-3811-4494-85aa-9178f76f5334",
        "display": "Adam Everyman"
      }
    }
  }, {
    "resource": {
      "resourceType": "AllergyIntolerance",
      "id": "ace6f57c-5600-4a67-8fa4-05fd00e753d7",
      "identifier": [ {
        "use": "official",
        "system": "urn:oid:2.16.840.1.113883.3.441.1.50.300011.51.26604.57",
        "value": "1311"
      } ],
      "clinicalStatus": {
        "coding": [ {
          "system": "http://terminology.hl7.org/CodeSystem/allergyintolerance-clinical",
          "code": "active",
          "display": "Active"
        } ]
      },
      "verificationStatus": {
        "coding": [ {
          "system": "http://terminology.hl7.org/CodeSystem/allergyintolerance-verification",
          "code": "confirmed",
          "display": "Confirmed"
        } ]
      },
      "type": "allergy",
      "category": [ "environment" ],
      "code": {
        "coding": [ {
          "system": "http://www.nlm.nih.gov/research/umls/rxnorm",
          "code": "215674",
          "display": "Bicillin L-A"
        }, {
          "system": "urn:oid:2.16.840.1.113883.6.64",
          "code": "3727",
          "display": "penicillin G benzathine"
        } ],
        "text": "penicillin G benzathine"
      },
      "patient": {
        "reference": "Patient/705a37e6-3811-4494-85aa-9178f76f5334",
        "display": "Adam Everyman"
      }
    }
  }, {
    "resource": {
      "resourceType": "AllergyIntolerance",
      "id": "1238f76c-5502-4647-b06d-d3f6bed57e82",
      "identifier": [ {
        "use": "official",
        "system": "urn:oid:2.16.840.1.113883.3.441.1.50.300011.51.26604.57",
        "value": "1312"
      } ],
      "clinicalStatus": {
        "coding": [ {
          "system": "http://terminology.hl7.org/CodeSystem/allergyintolerance-clinical",
          "code": "active",
          "display": "Active"
        } ]
      },
      "verificationStatus": {
        "coding": [ {
          "system": "http://terminology.hl7.org/CodeSystem/allergyintolerance-verification",
          "code": "confirmed",
          "display": "Confirmed"
        } ]
      },
      "type": "allergy",
      "category": [ "environment" ],
      "code": {
        "coding": [ {
          "system": "http://www.nlm.nih.gov/research/umls/rxnorm",
          "code": "1001473",
          "display": "Ecpirin"
        }, {
          "system": "urn:oid:2.16.840.1.113883.6.64",
          "code": "1076",
          "display": "aspirin"
        } ],
        "text": "aspirin"
      },
      "patient": {
        "reference": "Patient/705a37e6-3811-4494-85aa-9178f76f5334",
        "display": "Adam Everyman"
      }
    }
  }, {
    "resource": {
      "resourceType": "CarePlan",
      "id": "435f6e45-2b23-4570-9db2-3ae316a48e5a",
      "text": {
        "status": "additional",
        "div": "<div xmlns=\"http://www.w3.org/1999/xhtml\"><table border=\"1\"><thead><tr><th>Planned Activity</th><th>Comments</th><th>Planned Date</th><th>Planned Time</th><th>Plan/Goal</th></tr></thead><tbody><tr><td>Pulmonary Function Testing</td><td/><td/><td/><td/></tr><tr><td>test</td><td/><td>4/2/2013</td><td>4:00 PM</td><td/></tr><tr><td>r</td><td/><td/><td/><td/></tr><tr><td>Smoking Cessation Plan</td><td/><td>3/30/2012</td><td>12:00 AM</td><td>Resources and instructions provided during visit</td></tr><tr><td>Smoking Cessation: Goal</td><td/><td>3/30/2012</td><td>12:00 AM</td><td>Quit smoking</td></tr><tr><td>Weight Loss Plan</td><td/><td>3/30/2012</td><td>12:00 AM</td><td>Resources and instructions provided during visit.</td></tr><tr><td>Weight Loss: Goal</td><td/><td>3/30/2012</td><td>12:00 AM</td><td>BMI &amp;lt; 25</td></tr><tr><td>Chest X-Ray, PA and Lateral Views; Body site: lower respiratory tract structure</td><td/><td>1/24/2013</td><td>12:00 AM</td><td/></tr></tbody></table></div>"
      },
      "status": "active",
      "intent": "plan",
      "category": [ {
        "coding": [ {
          "system": "http://hl7.org/fhir/us/core/CodeSystem/careplan-category",
          "code": "assess-plan"
        } ]
      } ],
      "title": "Plan of Treatment",
      "description": "<div><table border=\"1\"><thead><tr><th>Planned Activity</th><th>Comments</th><th>Planned Date</th><th>Planned Time</th><th>Plan/Goal</th></tr></thead><tbody><tr><td>Pulmonary Function Testing</td><td></td><td></td><td></td><td></td></tr><tr><td>test</td><td></td><td>4/2/2013</td><td>4:00 PM</td><td></td></tr><tr><td>r</td><td></td><td></td><td></td><td></td></tr><tr><td>Smoking Cessation Plan</td><td></td><td>3/30/2012</td><td>12:00 AM</td><td>Resources and instructions provided during visit</td></tr><tr><td>Smoking Cessation: Goal</td><td></td><td>3/30/2012</td><td>12:00 AM</td><td>Quit smoking</td></tr><tr><td>Weight Loss Plan</td><td></td><td>3/30/2012</td><td>12:00 AM</td><td>Resources and instructions provided during visit.</td></tr><tr><td>Weight Loss: Goal</td><td></td><td>3/30/2012</td><td>12:00 AM</td><td>BMI &amp;lt; 25</td></tr><tr><td>Chest X-Ray, PA and Lateral Views; Body site: lower respiratory tract structure</td><td></td><td>1/24/2013</td><td>12:00 AM</td><td></td></tr></tbody></table></div>",
      "subject": {
        "reference": "Patient/705a37e6-3811-4494-85aa-9178f76f5334",
        "display": "Adam Everyman"
      }
    }
  }, {
    "resource": {
      "resourceType": "DiagnosticReport",
      "id": "f0d3b578-0864-4e8b-8569-38076c684a61",
      "identifier": [ {
        "use": "official",
        "system": "urn:oid:2.16.840.1.113883.3.441.1.50.300011.51.26604.54",
        "value": "2909"
      } ],
      "status": "final",
      "category": [ {
        "coding": [ {
          "system": "http://terminology.hl7.org/CodeSystem/v2-0074",
          "code": "LAB",
          "display": "Laboratory"
        } ]
      } ],
      "subject": {
        "reference": "Patient/705a37e6-3811-4494-85aa-9178f76f5334",
        "display": "Adam Everyman"
      },
      "effectivePeriod": {
        "start": "2013-01-24T13:12:12+01:00"
      },
      "issued": "2013-01-24T13:12:12.000+01:00",
      "result": [ {
        "reference": "Observation/f116992f-6fe5-4324-9567-eea08fb5cb99",
        "display": "Hgb Bld-mCnc"
      } ]
    }
  }, {
    "resource": {
      "resourceType": "Observation",
      "id": "f116992f-6fe5-4324-9567-eea08fb5cb99",
      "identifier": [ {
        "use": "official",
        "system": "urn:oid:2.16.840.1.113883.3.441.1.50.300011.51.26604.54",
        "value": "2909"
      } ],
      "status": "final",
      "category": [ {
        "coding": [ {
          "system": "http://terminology.hl7.org/CodeSystem/observation-category",
          "code": "laboratory"
        } ]
      } ],
      "code": {
        "coding": [ {
          "system": "http://loinc.org",
          "code": "718-7",
          "display": "Hgb Bld-mCnc"
        } ]
      },
      "subject": {
        "reference": "Patient/705a37e6-3811-4494-85aa-9178f76f5334",
        "display": "Adam Everyman"
      },
      "effectivePeriod": {
        "start": "2013-01-24T13:12:12+01:00"
      },
      "valueQuantity": {
        "value": 15.0,
        "unit": "g/dL",
        "system": "http://unitsofmeasure.org",
        "code": "g/dL"
      },
      "referenceRange": [ {
        "text": "13.5 - 18"
      } ]
    }
  }, {
    "resource": {
      "resourceType": "DiagnosticReport",
      "id": "d03a2a07-9c5a-4415-a146-9f638461cbbd",
      "identifier": [ {
        "use": "official",
        "system": "urn:oid:2.16.840.1.113883.3.441.1.50.300011.51.26604.54",
        "value": "2912"
      } ],
      "status": "final",
      "category": [ {
        "coding": [ {
          "system": "http://terminology.hl7.org/CodeSystem/v2-0074",
          "code": "LAB",
          "display": "Laboratory"
        } ]
      } ],
      "subject": {
        "reference": "Patient/705a37e6-3811-4494-85aa-9178f76f5334",
        "display": "Adam Everyman"
      },
      "effectivePeriod": {
        "start": "2013-01-24T13:12:12+01:00"
      },
      "issued": "2013-01-24T13:12:12.000+01:00",
      "result": [ {
        "reference": "Observation/dbdae8a1-6256-4db6-8a82-b13ac66fbb1f",
        "display": "Platelet # Bld Auto"
      } ]
    }
  }, {
    "resource": {
      "resourceType": "Observation",
      "id": "dbdae8a1-6256-4db6-8a82-b13ac66fbb1f",
      "identifier": [ {
        "use": "official",
        "system": "urn:oid:2.16.840.1.113883.3.441.1.50.300011.51.26604.54",
        "value": "2912"
      } ],
      "status": "final",
      "category": [ {
        "coding": [ {
          "system": "http://terminology.hl7.org/CodeSystem/observation-category",
          "code": "laboratory"
        } ]
      } ],
      "code": {
        "coding": [ {
          "system": "http://loinc.org",
          "code": "777-3",
          "display": "Platelet # Bld Auto"
        } ]
      },
      "subject": {
        "reference": "Patient/705a37e6-3811-4494-85aa-9178f76f5334",
        "display": "Adam Everyman"
      },
      "effectivePeriod": {
        "start": "2013-01-24T13:12:12+01:00"
      },
      "valueQuantity": {
        "value": 300.0,
        "unit": "x10E3/uL",
        "system": "http://unitsofmeasure.org",
        "code": "x10E3/uL"
      },
      "referenceRange": [ {
        "text": "150 - 400"
      } ]
    }
  }, {
    "resource": {
      "resourceType": "DiagnosticReport",
      "id": "3a314749-3f2a-402b-b0c6-dcc75b2d4188",
      "identifier": [ {
        "use": "official",
        "system": "urn:oid:2.16.840.1.113883.3.441.1.50.300011.51.26604.54",
        "value": "2911"
      } ],
      "status": "final",
      "category": [ {
        "coding": [ {
          "system": "http://terminology.hl7.org/CodeSystem/v2-0074",
          "code": "LAB",
          "display": "Laboratory"
        } ]
      } ],
      "subject": {
        "reference": "Patient/705a37e6-3811-4494-85aa-9178f76f5334",
        "display": "Adam Everyman"
      },
      "effectivePeriod": {
        "start": "2013-01-24T13:12:12+01:00"
      },
      "issued": "2013-01-24T13:12:12.000+01:00",
      "result": [ {
        "reference": "Observation/7dc5f255-d3f4-4148-a082-7788ef45684f",
        "display": "WBC # Bld Auto"
      } ]
    }
  }, {
    "resource": {
      "resourceType": "Observation",
      "id": "7dc5f255-d3f4-4148-a082-7788ef45684f",
      "identifier": [ {
        "use": "official",
        "system": "urn:oid:2.16.840.1.113883.3.441.1.50.300011.51.26604.54",
        "value": "2911"
      } ],
      "status": "final",
      "category": [ {
        "coding": [ {
          "system": "http://terminology.hl7.org/CodeSystem/observation-category",
          "code": "laboratory"
        } ]
      } ],
      "code": {
        "coding": [ {
          "system": "http://loinc.org",
          "code": "6690-2",
          "display": "WBC # Bld Auto"
        } ]
      },
      "subject": {
        "reference": "Patient/705a37e6-3811-4494-85aa-9178f76f5334",
        "display": "Adam Everyman"
      },
      "effectivePeriod": {
        "start": "2013-01-24T13:12:12+01:00"
      },
      "valueQuantity": {
        "value": 6.0,
        "unit": "x10E3/uL",
        "system": "http://unitsofmeasure.org",
        "code": "x10E3/uL"
      },
      "referenceRange": [ {
        "text": "4.3 - 10.8"
      } ]
    }
  }, {
    "resource": {
      "resourceType": "DiagnosticReport",
      "id": "d8800654-40fe-486a-9a67-0c7a35b30b0f",
      "identifier": [ {
        "use": "official",
        "system": "urn:oid:2.16.840.1.113883.3.441.1.50.300011.51.26604.54",
        "value": "2910"
      } ],
      "status": "final",
      "category": [ {
        "coding": [ {
          "system": "http://terminology.hl7.org/CodeSystem/v2-0074",
          "code": "LAB",
          "display": "Laboratory"
        } ]
      } ],
      "subject": {
        "reference": "Patient/705a37e6-3811-4494-85aa-9178f76f5334",
        "display": "Adam Everyman"
      },
      "effectivePeriod": {
        "start": "2013-01-24T13:12:12+01:00"
      },
      "issued": "2013-01-24T13:12:12.000+01:00",
      "result": [ {
        "reference": "Observation/124d98fc-a1be-4faf-a353-25b38fd51917",
        "display": "Hct Fr Bld Auto"
      } ]
    }
  }, {
    "resource": {
      "resourceType": "Observation",
      "id": "124d98fc-a1be-4faf-a353-25b38fd51917",
      "identifier": [ {
        "use": "official",
        "system": "urn:oid:2.16.840.1.113883.3.441.1.50.300011.51.26604.54",
        "value": "2910"
      } ],
      "status": "final",
      "category": [ {
        "coding": [ {
          "system": "http://terminology.hl7.org/CodeSystem/observation-category",
          "code": "laboratory"
        } ]
      } ],
      "code": {
        "coding": [ {
          "system": "http://loinc.org",
          "code": "4544-3",
          "display": "Hct Fr Bld Auto"
        } ]
      },
      "subject": {
        "reference": "Patient/705a37e6-3811-4494-85aa-9178f76f5334",
        "display": "Adam Everyman"
      },
      "effectivePeriod": {
        "start": "2013-01-24T13:12:12+01:00"
      },
      "valueQuantity": {
        "value": 50.0,
        "unit": "%",
        "system": "http://unitsofmeasure.org",
        "code": "%"
      },
      "referenceRange": [ {
        "text": "41 - 53"
      } ]
    }
  } ]
}