{
  "resourceType": "Bundle",
  "entry": [ {
    "resource": {
      "resourceType": "Composition",
      "id": "276e9db9-e035-4682-a724-77a18025d348",
      "identifier": {
        "use": "official",
        "system": "urn:oid:2.16.840.1.113883.3.441",
        "value": "eb890b4e409c4aeaaa1aa0312d5c52dc"
      },
      "status": "preliminary",
      "type": {
        "coding": [ {
          "system": "http://loinc.org",
          "code": "34133-9",
          "display": "Summarization of episode note"
        } ]
      },
      "category": [ {
        "coding": [ {
          "system": "http://hl7.org/fhir/ValueSet/doc-classcodes",
          "code": "LP173421-7",
          "display": "Note"
        } ]
      } ],
      "subject": {
        "reference": "Patient/9c7043e9-c3cf-42ee-97f6-b365960e320d",
        "display": "Data 6 Export6"
      },
      "date": "2013-07-01T10:34:48-04:00",
      "author": [ {
        "reference": "Practitioner/62db15fa-a565-4de8-a8d6-6b05c2163c4e"
      } ],
      "title": "MU2 Export Summary",
      "confidentiality": "N",
      "custodian": {
        "reference": "Organization/3f56e28e-1c13-40c5-ae89-d24db1d8d88d",
        "display": "Get Well Clinic"
      },
      "event": [ {
        "detail": [ {
          "reference": "Practitioner/193c7c93-8e69-426e-864c-beb83471cad9"
        }, {
          "reference": "Practitioner/294b1516-bd6a-443a-b610-32986481bf8f",
          "display": "Karen Kidder, M.D."
        } ]
      } ],
      "section": [ {
        "title": "Vital Signs",
        "code": {
          "coding": [ {
            "system": "http://loinc.org",
            "code": "8716-3",
            "display": "Vital signs"
          } ]
        },
        "text": {
          "status": "additional",
          "div": "<div xmlns=\"http://www.w3.org/1999/xhtml\">            <table border=\"1\">              <thead>                <tr>                  <th>Date</th>                  <th>Time</th>                  <th>BP-Sys(mm[Hg]</th>                  <th>BP-Dia(mm[Hg])</th>                  <th>HR(bpm)</th>                  <th>RR(rpm)</th>                  <th>Temp</th>                  <th>WT</th>                  <th>HT</th>                  <th>BMI</th>                  <th>BSA</th>                  <th>BMI Percentile</th>                  <th>O2 Sat(%)</th>                </tr>              </thead>              <tbody>                <tr>                  <td>4/15/2010</td>                  <td>9:38:00 AM</td>                  <td>90 mmHg</td>                  <td>60 mmHg</td>                  <td>                  </td>                  <td>                  </td>                  <td>                  </td>                  <td>125 lbs</td>                  <td>60 in</td>                  <td>24.4121 kg/m²</td>                  <td>1.5493 m²</td>                  <td>97.4 %</td>                  <td>                  </td>                </tr>                <tr>                  <td>3/12/2011</td>                  <td>9:45:00 AM</td>                  <td>89 mmHg</td>                  <td>62 mmHg</td>                  <td>                  </td>                  <td>                  </td>                  <td>                  </td>                  <td>145 lbs</td>                  <td>62 in</td>                  <td>26.5206 kg/m²</td>                  <td>1.6962 m²</td>                  <td>97.9 %</td>                  <td>                  </td>                </tr>                <tr>                  <td>1/21/2013</td>                  <td>10:12:00 AM</td>                  <td>130 mmHg</td>                  <td>86 mmHg</td>                  <td>                  </td>                  <td>                  </td>                  <td>                  </td>                  <td>162 lbs</td>                  <td>64 in</td>                  <td>27.807 kg/m²</td>                  <td>1.8216 m²</td>                  <td>97.2 %</td>                  <td>                  </td>                </tr>              </tbody>            </table>          </div>"
        },
        "mode": "snapshot",
        "entry": [ {
          "reference": "Observation/c64b6791-4e10-414e-a4c5-99f9a44e05d0",
          "display": "Body Mass Index"
        }, {
          "reference": "Observation/ea899781-61ec-475e-b4fa-46e91f114b2b",
          "display": "Body Height (Measured)"
        }, {
          "reference": "Observation/aa3fa205-e0d8-4c54-a6eb-90531a0483d4",
          "display": "BP Systolic"
        }, {
          "reference": "Observation/4564dcdd-03fa-49b1-abe7-32cc5c2971e3",
          "display": "BP Diastolic"
        }, {
          "reference": "Observation/18f34d4a-d16e-42fc-b317-0619c9ce0bb8",
          "display": "Body Weight (Measured)"
        }, {
          "reference": "Observation/d7de770c-f486-4e90-a520-953110cecb55",
          "display": "Body Height (Measured)"
        }, {
          "reference": "Observation/a12b0131-49c0-4433-9965-c352881bbe62",
          "display": "BP Systolic"
        }, {
          "reference": "Observation/6f1e840d-3a64-48eb-bb63-4ef86d2f016d",
          "display": "BP Diastolic"
        }, {
          "reference": "Observation/c78c3d02-684e-4893-aead-e31a385cb59d",
          "display": "Body Mass Index"
        }, {
          "reference": "Observation/501efc2f-f49c-4d6e-9d65-708564d3509b",
          "display": "Body Weight (Measured)"
        }, {
          "reference": "Observation/26d896f2-c927-49f9-94c7-70934325c44a",
          "display": "BP Diastolic"
        }, {
          "reference": "Observation/43e85bfc-2103-49ab-9ed9-ad37d5f70fd9",
          "display": "BP Systolic"
        }, {
          "reference": "Observation/164349a2-a8ee-407f-b361-a592715fd299",
          "display": "Body Height (Measured)"
        }, {
          "reference": "Observation/f0ddc98d-2e90-4e5d-b1bc-01c7a7e713d6",
          "display": "Body Mass Index"
        }, {
          "reference": "Observation/44f0a175-ed16-4940-ab88-8c6c7140fd45",
          "display": "Body Weight (Measured)"
        } ]
      }, {
        "title": "Social History",
        "code": {
          "coding": [ {
            "system": "http://loinc.org",
            "code": "29762-2",
            "display": "Social history"
          } ]
        },
        "text": {
          "status": "additional",
          "div": "<div xmlns=\"http://www.w3.org/1999/xhtml\">            <table border=\"1\">              <thead>                <tr>                  <th>Name</th>                  <th>Status</th>                  <th>Comments</th>                </tr>              </thead>              <tbody>                <tr>                  <td>Tobacco</td>                  <td>Never</td>                  <td>                  </td>                </tr>              </tbody>            </table>          </div>"
        },
        "mode": "snapshot",
        "entry": [ {
          "reference": "Observation/826ea38d-3abb-447d-afb6-e10436799339"
        } ]
      }, {
        "title": "Allergies and Adverse Reactions",
        "code": {
          "coding": [ {
            "system": "http://loinc.org",
            "code": "48765-2",
            "display": "Allergies, adverse reactions, alerts"
          } ]
        },
        "text": {
          "status": "additional",
          "div": "<div xmlns=\"http://www.w3.org/1999/xhtml\">            <table border=\"1\">              <thead>                <tr>                  <th>Name</th>                  <th>Reaction</th>                  <th>Notes</th>                </tr>              </thead>              <tbody>                <tr>                  <td>penicillin G benzathine</td>                  <td>hives</td>                  <td>                  </td>                </tr>              </tbody>            </table>          </div>"
        },
        "mode": "snapshot",
        "entry": [ {
          "reference": "AllergyIntolerance/590fbb4e-1138-4b6a-a54b-b6239eea7d54",
          "display": "penicillin G benzathine"
        } ]
      }, {
        "title": "History of Procedures",
        "code": {
          "coding": [ {
            "system": "http://loinc.org",
            "code": "47519-4",
            "display": "History of procedures"
          } ]
        },
        "text": {
          "status": "additional",
          "div": "<div xmlns=\"http://www.w3.org/1999/xhtml\">            <table border=\"1\">              <thead>                <tr>                  <th>Date Ordered</th>                  <th>Description</th>                  <th>Order Status</th>                  <th>Result Status</th>                </tr>              </thead>              <tbody>                <tr>                  <td>3/12/2011 12:00 AM</td>                  <td>Measles, mumps and rubella virus vaccine (MMR), live, for subcutaneous use</td>                  <td>Reviewed</td>                  <td>                  </td>                </tr>              </tbody>            </table>          </div>"
        },
        "mode": "snapshot",
        "entry": [ {
          "reference": "Observation/b228a864-fab0-4415-b293-2a63de718b1a",
          "display": "Measles, mumps and rubella virus vaccine (MMR), live, for subcutaneous use"
        } ]
      }, {
        "title": "Functional Status Assessment",
        "code": {
          "coding": [ {
            "system": "http://loinc.org",
            "code": "47420-5",
            "display": "Functional status assessment"
          } ]
        },
        "text": {
          "status": "additional",
          "div": "<div xmlns=\"http://www.w3.org/1999/xhtml\">            <table border=\"1\">              <thead>                <tr>                  <th>Functional Condition</th>                  <th>Type</th>                </tr>              </thead>              <tbody>                <tr>                  <td>No Impairment</td>                  <td>Cognitive</td>                </tr>                <tr>                  <td>Has no phyical impairment</td>                  <td>Functional</td>                </tr>              </tbody>            </table>          </div>"
        },
        "mode": "snapshot"
      }, {
        "title": "Plan of Treatment",
        "code": {
          "coding": [ {
            "system": "http://loinc.org",
            "code": "18776-5",
            "display": "Treatment Plan"
          } ]
        },
        "text": {
          "status": "additional",
          "div": "<div xmlns=\"http://www.w3.org/1999/xhtml\">Not available.</div>"
        },
        "mode": "snapshot",
        "entry": [ {
          "reference": "CarePlan/d4193cff-93d3-483a-94c6-b96379527830"
        } ]
      }, {
        "title": "Problem List",
        "code": {
          "coding": [ {
            "system": "http://loinc.org",
            "code": "11450-4",
            "display": "Problem list"
          } ]
        },
        "text": {
          "status": "additional",
          "div": "<div xmlns=\"http://www.w3.org/1999/xhtml\">            <table border=\"1\">              <thead>                <tr>                  <th>Description</th>                  <th>Status</th>                  <th>Onset</th>                </tr>              </thead>              <tbody>                <tr>                  <td>Asthma</td>                  <td>Active</td>                  <td>03/12/2011</td>                </tr>                <tr>                  <td>Flu like illness</td>                  <td>Active</td>                  <td>                  </td>                </tr>              </tbody>            </table>          </div>"
        },
        "mode": "snapshot",
        "entry": [ {
          "reference": "Condition/ab548194-879b-4092-87fa-9825956fb077"
        }, {
          "reference": "Condition/4bfbf724-aa6a-4ba1-aa3f-3d977e617774"
        } ]
      }, {
        "title": "Results Summary",
        "code": {
          "coding": [ {
            "system": "http://loinc.org",
            "code": "30954-2",
            "display": "Relevant diagnostic tests and/or laboratory data"
          } ]
        },
        "text": {
          "status": "additional",
          "div": "<div xmlns=\"http://www.w3.org/1999/xhtml\">            <table border=\"1\">              <thead>                <tr>                  <th>Data and Description</th>                  <th>Results</th>                </tr>              </thead>              <tbody>                <tr>                  <td>1/21/2013 10:16 AM</td>                  <td>                    <ul>                      <li>Hgb Bld-mCnc 13.50 g/dL</li>                      <li>Hct Fr Bld Auto 46.50 %</li>                      <li>WBC # Bld Auto 8.90 x10E3/uL</li>                      <li>Platelet # Bld Auto 246.0 x10E3/uL</li>                    </ul>                  </td>                </tr>              </tbody>            </table>          </div>"
        },
        "mode": "snapshot",
        "entry": [ {
          "reference": "DiagnosticReport/99aee19a-4322-477e-9169-d90a96dbb694"
        }, {
          "reference": "DiagnosticReport/e1a69036-7683-427c-9dfc-c8ba7e6cef9d"
        }, {
          "reference": "DiagnosticReport/6612cffd-5d88-44cc-ac2f-efe5d3c7c884"
        }, {
          "reference": "DiagnosticReport/29b43c9b-e3e3-48be-9837-730763142537"
        } ]
      }, {
        "title": "History Of Immunizations",
        "code": {
          "coding": [ {
            "system": "http://loinc.org",
            "code": "11369-6",
            "display": "History of immunizations"
          } ]
        },
        "text": {
          "status": "additional",
          "div": "<div xmlns=\"http://www.w3.org/1999/xhtml\">            <table border=\"1\">              <thead>                <tr>                  <th>Name</th>                  <th>Date Admin</th>                  <th>Mfg Name</th>                  <th>Mfg Code</th>                  <th>Trade Name</th>                  <th>Lot#</th>                  <th>Route</th>                  <th>Inj</th>                  <th>Vis Given</th>                  <th>Vis Pub</th>                  <th>CVX</th>                </tr>              </thead>              <tbody>                <tr>                  <td>MMR</td>                  <td>3/12/2011</td>                  <td>Acambis, Inc</td>                  <td>ACA</td>                  <td>MMR II</td>                  <td>ABN 9876</td>                  <td>Intramuscular</td>                  <td>Left Vastus Lateralis</td>                  <td>1/21/2013</td>                  <td>3/3/2009</td>                  <td>03</td>                </tr>              </tbody>            </table>          </div>"
        },
        "mode": "snapshot",
        "entry": [ {
          "reference": "Immunization/43bfeae0-0802-47de-b330-29207197503c",
          "display": "MMR"
        } ]
      }, {
        "title": "Medications",
        "code": {
          "coding": [ {
            "system": "http://loinc.org",
            "code": "10160-0",
            "display": "History of medication use"
          } ]
        },
        "text": {
          "status": "additional",
          "div": "<div xmlns=\"http://www.w3.org/1999/xhtml\">            <table border=\"1\">              <thead>                <tr>                  <th colspan=\"5\">Expired</th>                </tr>                <tr>                  <th>Name</th>                  <th>Start Date</th>                  <th>Expiration Date</th>                  <th>SIG</th>                  <th>Comments</th>                </tr>              </thead>              <tbody>                <tr>                  <td>Proventil HFA Inhalation HFA Aerosol Inhaler 90 mcg/actuation</td>                  <td>1/21/2013</td>                  <td>2/20/2013</td>                  <td>inhale 2 puffs by inhalation route 4 times a day for 30 days prn wheezing</td>                  <td>                  </td>                </tr>                <tr>                  <td>Tamiflu Oral Capsule 30 mg</td>                  <td>1/21/2013</td>                  <td>1/31/2013</td>                  <td>take 1 capsule by oral route 2 times a day for 10 days until gone</td>                  <td>                  </td>                </tr>              </tbody>            </table>          </div>"
        },
        "mode": "snapshot"
      } ]
    }
  }, {
    "resource": {
      "resourceType": "Patient",
      "id": "9c7043e9-c3cf-42ee-97f6-b365960e320d",
      "extension": [ {
        "url": "http://hl7.org/fhir/us/core/StructureDefinition/us-core-race",
        "extension": [ {
          "url": "text",
          "valueString": "White"
        }, {
          "url": "ombCategory",
          "valueCoding": {
            "system": "urn:oid:2.16.840.1.113883.6.238",
            "code": "2106-3",
            "display": "White"
          }
        } ]
      }, {
        "url": "http://hl7.org/fhir/us/core/StructureDefinition/us-core-ethnicity",
        "extension": [ {
          "url": "text",
          "valueString": "Not Hispanic or Latino"
        }, {
          "url": "ombCategory",
          "valueCoding": {
            "system": "urn:oid:2.16.840.1.113883.6.238",
            "code": "2186-5",
            "display": "Not Hispanic or Latino"
          }
        } ]
      } ],
      "identifier": [ {
        "use": "official",
        "system": "urn:oid:2.16.840.1.113883.3.441.1.50.300011.51",
        "value": "26776"
      } ],
      "name": [ {
        "family": "Export6",
        "given": [ "Data", "6" ]
      } ],
      "gender": "female",
      "birthDate": "2000-10-20",
      "address": [ {
        "line": [ "1234 Test" ],
        "city": "Covington",
        "state": "GA",
        "postalCode": "300147",
        "country": "US"
      } ],
      "maritalStatus": {
        "coding": [ {
          "system": "http://terminology.hl7.org/CodeSystem/v3-MaritalStatus",
          "code": "S",
          "display": "Never Married"
        } ]
      },
      "communication": [ {
        "language": {
          "coding": [ {
            "system": "urn:ietf:bcp:47",
            "code": "eng"
          } ]
        }
      } ],
      "managingOrganization": {
        "reference": "Organization/3f56e28e-1c13-40c5-ae89-d24db1d8d88d",
        "display": "Get Well Clinic"
      }
    }
  }, {
    "resource": {
      "resourceType": "Organization",
      "id": "3f56e28e-1c13-40c5-ae89-d24db1d8d88d",
      "identifier": [ {
        "use": "official",
        "system": "urn:oid:2.16.840.1.113883.3.441.1.50",
        "value": "300011"
      } ],
      "name": "Get Well Clinic",
      "telecom": [ {
        "system": "phone",
        "value": "555-555-1004",
        "use": "work"
      } ],
      "address": [ {
        "line": [ "1004 Healthcare Dr. practice" ],
        "city": "Portland",
        "state": "OR",
        "postalCode": "97005",
        "country": "United States"
      } ]
    }
  }, {
    "resource": {
      "resourceType": "Practitioner",
      "id": "62db15fa-a565-4de8-a8d6-6b05c2163c4e",
      "identifier": [ {
        "use": "official",
        "system": "urn:oid:2.16.840.1.113883.4.6",
        "value": "961669bcc2854be59b905319bd9d8a9f"
      } ],
      "telecom": [ {
        "system": "phone",
        "value": "555-555-1004",
        "use": "work"
      } ],
      "address": [ {
        "line": [ "1004 Healthcare Dr. practice" ],
        "city": "Portland",
        "state": "OR",
        "postalCode": "97005",
        "country": "United States"
      } ]
    }
  }, {
    "resource": {
      "resourceType": "PractitionerRole",
      "id": "3e5c41a5-21bb-4ebb-8ea6-92b8cc320774",
      "practitioner": {
        "reference": "Practitioner/62db15fa-a565-4de8-a8d6-6b05c2163c4e"
      },
      "organization": {
        "reference": "Organization/3f56e28e-1c13-40c5-ae89-d24db1d8d88d",
        "display": "Get Well Clinic"
      }
    }
  }, {
    "resource": {
      "resourceType": "Practitioner",
      "id": "193c7c93-8e69-426e-864c-beb83471cad9",
      "identifier": [ {
        "use": "official",
        "system": "http://hl7.org/fhir/sid/us-npi",
        "value": "UNK"
      } ]
    }
  }, {
    "resource": {
      "resourceType": "Practitioner",
      "id": "294b1516-bd6a-443a-b610-32986481bf8f",
      "identifier": [ {
        "use": "official",
        "system": "http://hl7.org/fhir/sid/us-npi",
        "value": "UNK"
      } ],
      "name": [ {
        "family": "Kidder, M.D.",
        "given": [ "Karen" ]
      } ]
    }
  }, {
    "resource": {
      "resourceType": "Observation",
      "id": "c64b6791-4e10-414e-a4c5-99f9a44e05d0",
      "identifier": [ {
        "use": "official",
        "system": "urn:oid:2.16.840.1.113883.3.441.1.50.300011.51.26776.55",
        "value": "2758"
      } ],
      "status": "final",
      "category": [ {
        "coding": [ {
          "system": "http://terminology.hl7.org/CodeSystem/observation-category",
          "code": "vital-signs",
          "display": "Vital Signs"
        } ]
      } ],
      "code": {
        "coding": [ {
          "system": "http://loinc.org",
          "code": "41909-3",
          "display": "Body Mass Index"
        } ]
      },
      "subject": {
        "reference": "Patient/9c7043e9-c3cf-42ee-97f6-b365960e320d",
        "display": "Data 6 Export6"
      },
      "effectivePeriod": {
        "start": "2013-01-21T10:12:00+01:00"
      },
      "valueQuantity": {
        "value": 27.807,
        "unit": "kg/m²",
        "system": "http://unitsofmeasure.org",
        "code": "kg/m²"
      }
    }
  }, {
    "resource": {
      "resourceType": "Observation",
      "id": "ea899781-61ec-475e-b4fa-46e91f114b2b",
      "identifier": [ {
        "use": "official",
        "system": "urn:oid:2.16.840.1.113883.3.441.1.50.300011.51.26776.55",
        "value": "2760"
      } ],
      "status": "final",
      "category": [ {
        "coding": [ {
          "system": "http://terminology.hl7.org/CodeSystem/observation-category",
          "code": "vital-signs",
          "display": "Vital Signs"
        } ]
      } ],
      "code": {
        "coding": [ {
          "system": "http://loinc.org",
          "code": "8302-2",
          "display": "Body Height (Measured)"
        } ]
      },
      "subject": {
        "reference": "Patient/9c7043e9-c3cf-42ee-97f6-b365960e320d",
        "display": "Data 6 Export6"
      },
      "effectivePeriod": {
        "start": "2013-01-21T10:12:00+01:00"
      },
      "valueQuantity": {
        "value": 64,
        "unit": "[in_us]",
        "system": "http://unitsofmeasure.org",
        "code": "[in_us]"
      }
    }
  }, {
    "resource": {
      "resourceType": "Observation",
      "id": "aa3fa205-e0d8-4c54-a6eb-90531a0483d4",
      "identifier": [ {
        "use": "official",
        "system": "urn:oid:2.16.840.1.113883.3.441.1.50.300011.51.26776.55",
        "value": "2757"
      } ],
      "status": "final",
      "category": [ {
        "coding": [ {
          "system": "http://terminology.hl7.org/CodeSystem/observation-category",
          "code": "vital-signs",
          "display": "Vital Signs"
        } ]
      } ],
      "code": {
        "coding": [ {
          "system": "http://loinc.org",
          "code": "8480-6",
          "display": "BP Systolic"
        } ]
      },
      "subject": {
        "reference": "Patient/9c7043e9-c3cf-42ee-97f6-b365960e320d",
        "display": "Data 6 Export6"
      },
      "effectivePeriod": {
        "start": "2013-01-21T10:12:00+01:00"
      },
      "valueQuantity": {
        "value": 130,
        "unit": "mm[Hg]",
        "system": "http://unitsofmeasure.org",
        "code": "mm[Hg]"
      }
    }
  }, {
    "resource": {
      "resourceType": "Observation",
      "id": "4564dcdd-03fa-49b1-abe7-32cc5c2971e3",
      "identifier": [ {
        "use": "official",
        "system": "urn:oid:2.16.840.1.113883.3.441.1.50.300011.51.26776.55",
        "value": "2756"
      } ],
      "status": "final",
      "category": [ {
        "coding": [ {
          "system": "http://terminology.hl7.org/CodeSystem/observation-category",
          "code": "vital-signs",
          "display": "Vital Signs"
        } ]
      } ],
      "code": {
        "coding": [ {
          "system": "http://loinc.org",
          "code": "8462-4",
          "display": "BP Diastolic"
        } ]
      },
      "subject": {
        "reference": "Patient/9c7043e9-c3cf-42ee-97f6-b365960e320d",
        "display": "Data 6 Export6"
      },
      "effectivePeriod": {
        "start": "2013-01-21T10:12:00+01:00"
      },
      "valueQuantity": {
        "value": 86,
        "unit": "mm[Hg]",
        "system": "http://unitsofmeasure.org",
        "code": "mm[Hg]"
      }
    }
  }, {
    "resource": {
      "resourceType": "Observation",
      "id": "18f34d4a-d16e-42fc-b317-0619c9ce0bb8",
      "identifier": [ {
        "use": "official",
        "system": "urn:oid:2.16.840.1.113883.3.441.1.50.300011.51.26776.55",
        "value": "2761"
      } ],
      "status": "final",
      "category": [ {
        "coding": [ {
          "system": "http://terminology.hl7.org/CodeSystem/observation-category",
          "code": "vital-signs",
          "display": "Vital Signs"
        } ]
      } ],
      "code": {
        "coding": [ {
          "system": "http://loinc.org",
          "code": "3141-9",
          "display": "Body Weight (Measured)"
        } ]
      },
      "subject": {
        "reference": "Patient/9c7043e9-c3cf-42ee-97f6-b365960e320d",
        "display": "Data 6 Export6"
      },
      "effectivePeriod": {
        "start": "2013-01-21T10:12:00+01:00"
      },
      "valueQuantity": {
        "value": 162,
        "unit": "[lb_av]",
        "system": "http://unitsofmeasure.org",
        "code": "[lb_av]"
      }
    }
  }, {
    "resource": {
      "resourceType": "Observation",
      "id": "d7de770c-f486-4e90-a520-953110cecb55",
      "identifier": [ {
        "use": "official",
        "system": "urn:oid:2.16.840.1.113883.3.441.1.50.300011.51.26776.55",
        "value": "2746"
      } ],
      "status": "final",
      "category": [ {
        "coding": [ {
          "system": "http://terminology.hl7.org/CodeSystem/observation-category",
          "code": "vital-signs",
          "display": "Vital Signs"
        } ]
      } ],
      "code": {
        "coding": [ {
          "system": "http://loinc.org",
          "code": "8302-2",
          "display": "Body Height (Measured)"
        } ]
      },
      "subject": {
        "reference": "Patient/9c7043e9-c3cf-42ee-97f6-b365960e320d",
        "display": "Data 6 Export6"
      },
      "effectivePeriod": {
        "start": "2010-04-15T09:38:00+02:00"
      },
      "valueQuantity": {
        "value": 60,
        "unit": "[in_us]",
        "system": "http://unitsofmeasure.org",
        "code": "[in_us]"
      }
    }
  }, {
    "resource": {
      "resourceType": "Observation",
      "id": "a12b0131-49c0-4433-9965-c352881bbe62",
      "identifier": [ {
        "use": "official",
        "system": "urn:oid:2.16.840.1.113883.3.441.1.50.300011.51.26776.55",
        "value": "2743"
      } ],
      "status": "final",
      "category": [ {
        "coding": [ {
          "system": "http://terminology.hl7.org/CodeSystem/observation-category",
          "code": "vital-signs",
          "display": "Vital Signs"
        } ]
      } ],
      "code": {
        "coding": [ {
          "system": "http://loinc.org",
          "code": "8480-6",
          "display": "BP Systolic"
        } ]
      },
      "subject": {
        "reference": "Patient/9c7043e9-c3cf-42ee-97f6-b365960e320d",
        "display": "Data 6 Export6"
      },
      "effectivePeriod": {
        "start": "2010-04-15T09:38:00+02:00"
      },
      "valueQuantity": {
        "value": 90,
        "unit": "mm[Hg]",
        "system": "http://unitsofmeasure.org",
        "code": "mm[Hg]"
      }
    }
  }, {
    "resource": {
      "resourceType": "Observation",
      "id": "6f1e840d-3a64-48eb-bb63-4ef86d2f016d",
      "identifier": [ {
        "use": "official",
        "system": "urn:oid:2.16.840.1.113883.3.441.1.50.300011.51.26776.55",
        "value": "2742"
      } ],
      "status": "final",
      "category": [ {
        "coding": [ {
          "system": "http://terminology.hl7.org/CodeSystem/observation-category",
          "code": "vital-signs",
          "display": "Vital Signs"
        } ]
      } ],
      "code": {
        "coding": [ {
          "system": "http://loinc.org",
          "code": "8462-4",
          "display": "BP Diastolic"
        } ]
      },
      "subject": {
        "reference": "Patient/9c7043e9-c3cf-42ee-97f6-b365960e320d",
        "display": "Data 6 Export6"
      },
      "effectivePeriod": {
        "start": "2010-04-15T09:38:00+02:00"
      },
      "valueQuantity": {
        "value": 60,
        "unit": "mm[Hg]",
        "system": "http://unitsofmeasure.org",
        "code": "mm[Hg]"
      }
    }
  }, {
    "resource": {
      "resourceType": "Observation",
      "id": "c78c3d02-684e-4893-aead-e31a385cb59d",
      "identifier": [ {
        "use": "official",
        "system": "urn:oid:2.16.840.1.113883.3.441.1.50.300011.51.26776.55",
        "value": "2744"
      } ],
      "status": "final",
      "category": [ {
        "coding": [ {
          "system": "http://terminology.hl7.org/CodeSystem/observation-category",
          "code": "vital-signs",
          "display": "Vital Signs"
        } ]
      } ],
      "code": {
        "coding": [ {
          "system": "http://loinc.org",
          "code": "41909-3",
          "display": "Body Mass Index"
        } ]
      },
      "subject": {
        "reference": "Patient/9c7043e9-c3cf-42ee-97f6-b365960e320d",
        "display": "Data 6 Export6"
      },
      "effectivePeriod": {
        "start": "2010-04-15T09:38:00+02:00"
      },
      "valueQuantity": {
        "value": 24.4121,
        "unit": "kg/m²",
        "system": "http://unitsofmeasure.org",
        "code": "kg/m²"
      }
    }
  }, {
    "resource": {
      "resourceType": "Observation",
      "id": "501efc2f-f49c-4d6e-9d65-708564d3509b",
      "identifier": [ {
        "use": "official",
        "system": "urn:oid:2.16.840.1.113883.3.441.1.50.300011.51.26776.55",
        "value": "2747"
      } ],
      "status": "final",
      "category": [ {
        "coding": [ {
          "system": "http://terminology.hl7.org/CodeSystem/observation-category",
          "code": "vital-signs",
          "display": "Vital Signs"
        } ]
      } ],
      "code": {
        "coding": [ {
          "system": "http://loinc.org",
          "code": "3141-9",
          "display": "Body Weight (Measured)"
        } ]
      },
      "subject": {
        "reference": "Patient/9c7043e9-c3cf-42ee-97f6-b365960e320d",
        "display": "Data 6 Export6"
      },
      "effectivePeriod": {
        "start": "2010-04-15T09:38:00+02:00"
      },
      "valueQuantity": {
        "value": 125,
        "unit": "[lb_av]",
        "system": "http://unitsofmeasure.org",
        "code": "[lb_av]"
      }
    }
  }, {
    "resource": {
      "resourceType": "Observation",
      "id": "26d896f2-c927-49f9-94c7-70934325c44a",
      "identifier": [ {
        "use": "official",
        "system": "urn:oid:2.16.840.1.113883.3.441.1.50.300011.51.26776.55",
        "value": "2749"
      } ],
      "status": "final",
      "category": [ {
        "coding": [ {
          "system": "http://terminology.hl7.org/CodeSystem/observation-category",
          "code": "vital-signs",
          "display": "Vital Signs"
        } ]
      } ],
      "code": {
        "coding": [ {
          "system": "http://loinc.org",
          "code": "8462-4",
          "display": "BP Diastolic"
        } ]
      },
      "subject": {
        "reference": "Patient/9c7043e9-c3cf-42ee-97f6-b365960e320d",
        "display": "Data 6 Export6"
      },
      "effectivePeriod": {
        "start": "2011-03-12T09:45:00+01:00"
      },
      "valueQuantity": {
        "value": 62,
        "unit": "mm[Hg]",
        "system": "http://unitsofmeasure.org",
        "code": "mm[Hg]"
      }
    }
  }, {
    "resource": {
      "resourceType": "Observation",
      "id": "43e85bfc-2103-49ab-9ed9-ad37d5f70fd9",
      "identifier": [ {
        "use": "official",
        "system": "urn:oid:2.16.840.1.113883.3.441.1.50.300011.51.26776.55",
        "value": "2750"
      } ],
      "status": "final",
      "category": [ {
        "coding": [ {
          "system": "http://terminology.hl7.org/CodeSystem/observation-category",
          "code": "vital-signs",
          "display": "Vital Signs"
        } ]
      } ],
      "code": {
        "coding": [ {
          "system": "http://loinc.org",
          "code": "8480-6",
          "display": "BP Systolic"
        } ]
      },
      "subject": {
        "reference": "Patient/9c7043e9-c3cf-42ee-97f6-b365960e320d",
        "display": "Data 6 Export6"
      },
      "effectivePeriod": {
        "start": "2011-03-12T09:45:00+01:00"
      },
      "valueQuantity": {
        "value": 89,
        "unit": "mm[Hg]",
        "system": "http://unitsofmeasure.org",
        "code": "mm[Hg]"
      }
    }
  }, {
    "resource": {
      "resourceType": "Observation",
      "id": "164349a2-a8ee-407f-b361-a592715fd299",
      "identifier": [ {
        "use": "official",
        "system": "urn:oid:2.16.840.1.113883.3.441.1.50.300011.51.26776.55",
        "value": "2753"
      } ],
      "status": "final",
      "category": [ {
        "coding": [ {
          "system": "http://terminology.hl7.org/CodeSystem/observation-category",
          "code": "vital-signs",
          "display": "Vital Signs"
        } ]
      } ],
      "code": {
        "coding": [ {
          "system": "http://loinc.org",
          "code": "8302-2",
          "display": "Body Height (Measured)"
        } ]
      },
      "subject": {
        "reference": "Patient/9c7043e9-c3cf-42ee-97f6-b365960e320d",
        "display": "Data 6 Export6"
      },
      "effectivePeriod": {
        "start": "2011-03-12T09:45:00+01:00"
      },
      "valueQuantity": {
        "value": 62,
        "unit": "[in_us]",
        "system": "http://unitsofmeasure.org",
        "code": "[in_us]"
      }
    }
  }, {
    "resource": {
      "resourceType": "Observation",
      "id": "f0ddc98d-2e90-4e5d-b1bc-01c7a7e713d6",
      "identifier": [ {
        "use": "official",
        "system": "urn:oid:2.16.840.1.113883.3.441.1.50.300011.51.26776.55",
        "value": "2751"
      } ],
      "status": "final",
      "category": [ {
        "coding": [ {
          "system": "http://terminology.hl7.org/CodeSystem/observation-category",
          "code": "vital-signs",
          "display": "Vital Signs"
        } ]
      } ],
      "code": {
        "coding": [ {
          "system": "http://loinc.org",
          "code": "41909-3",
          "display": "Body Mass Index"
        } ]
      },
      "subject": {
        "reference": "Patient/9c7043e9-c3cf-42ee-97f6-b365960e320d",
        "display": "Data 6 Export6"
      },
      "effectivePeriod": {
        "start": "2011-03-12T09:45:00+01:00"
      },
      "valueQuantity": {
        "value": 26.5206,
        "unit": "kg/m²",
        "system": "http://unitsofmeasure.org",
        "code": "kg/m²"
      }
    }
  }, {
    "resource": {
      "resourceType": "Observation",
      "id": "44f0a175-ed16-4940-ab88-8c6c7140fd45",
      "identifier": [ {
        "use": "official",
        "system": "urn:oid:2.16.840.1.113883.3.441.1.50.300011.51.26776.55",
        "value": "2754"
      } ],
      "status": "final",
      "category": [ {
        "coding": [ {
          "system": "http://terminology.hl7.org/CodeSystem/observation-category",
          "code": "vital-signs",
          "display": "Vital Signs"
        } ]
      } ],
      "code": {
        "coding": [ {
          "system": "http://loinc.org",
          "code": "3141-9",
          "display": "Body Weight (Measured)"
        } ]
      },
      "subject": {
        "reference": "Patient/9c7043e9-c3cf-42ee-97f6-b365960e320d",
        "display": "Data 6 Export6"
      },
      "effectivePeriod": {
        "start": "2011-03-12T09:45:00+01:00"
      },
      "valueQuantity": {
        "value": 145,
        "unit": "[lb_av]",
        "system": "http://unitsofmeasure.org",
        "code": "[lb_av]"
      }
    }
  }, {
    "resource": {
      "resourceType": "Observation",
      "id": "826ea38d-3abb-447d-afb6-e10436799339",
      "identifier": [ {
        "use": "official",
        "system": "urn:oid:2.16.840.1.113883.3.441.1.50.300011.51.26776.68",
        "value": "1293"
      } ],
      "status": "final",
      "code": {
        "coding": [ {
          "system": "urn:oid:2.16.840.1.113883.5.4",
          "code": "ASSERTION"
        } ]
      },
      "subject": {
        "reference": "Patient/9c7043e9-c3cf-42ee-97f6-b365960e320d",
        "display": "Data 6 Export6"
      },
      "effectivePeriod": {
        "start": "1900-01-01T00:00:00+01:00"
      },
      "valueCodeableConcept": {
        "coding": [ {
          "system": "http://snomed.info/sct",
          "code": "266919005",
          "display": "Never smoker"
        } ]
      }
    }
  }, {
    "resource": {
      "resourceType": "AllergyIntolerance",
      "id": "590fbb4e-1138-4b6a-a54b-b6239eea7d54",
      "identifier": [ {
        "use": "official",
        "system": "urn:oid:2.16.840.1.113883.3.441.1.50.300011.51.26776.57",
        "value": "1274"
      } ],
      "clinicalStatus": {
        "coding": [ {
          "system": "http://terminology.hl7.org/CodeSystem/allergyintolerance-clinical",
          "code": "active",
          "display": "Active"
        } ]
      },
      "verificationStatus": {
        "coding": [ {
          "system": "http://terminology.hl7.org/CodeSystem/allergyintolerance-verification",
          "code": "confirmed",
          "display": "Confirmed"
        } ]
      },
      "type": "allergy",
      "category": [ "environment" ],
      "code": {
        "coding": [ {
          "system": "http://www.nlm.nih.gov/research/umls/rxnorm",
          "code": "215674",
          "display": "Bicillin L-A"
        }, {
          "system": "urn:oid:2.16.840.1.113883.6.64",
          "code": "3727",
          "display": "penicillin G benzathine"
        } ],
        "text": "penicillin G benzathine"
      },
      "patient": {
        "reference": "Patient/9c7043e9-c3cf-42ee-97f6-b365960e320d",
        "display": "Data 6 Export6"
      }
    }
  }, {
    "resource": {
      "resourceType": "Observation",
      "id": "b228a864-fab0-4415-b293-2a63de718b1a",
      "identifier": [ {
        "use": "official",
        "system": "urn:oid:2.16.840.1.113883.3.441.1.50.300011.51.26776.53",
        "value": "61315"
      } ],
      "status": "final",
      "code": {
        "coding": [ {
          "system": "http://www.ama-assn.org/go/cpt",
          "code": "90707",
          "display": "MEASLES MUMPS RUBELLA VIRUS VACCINE LIVE SUBQ"
        } ],
        "text": "Measles, mumps and rubella virus vaccine (MMR), live, for subcutaneous use"
      },
      "subject": {
        "reference": "Patient/9c7043e9-c3cf-42ee-97f6-b365960e320d",
        "display": "Data 6 Export6"
      },
      "effectivePeriod": {
        "start": "2011-03-12T00:00:00+01:00"
      },
      "dataAbsentReason": {
        "coding": [ {
          "system": "http://hl7.org/fhir/data-absent-reason",
          "code": "error",
          "display": "Error"
        } ]
      }
    }
  }, {
    "resource": {
      "resourceType": "CarePlan",
      "id": "d4193cff-93d3-483a-94c6-b96379527830",
      "text": {
        "status": "additional",
        "div": "<div xmlns=\"http://www.w3.org/1999/xhtml\">Not available.</div>"
      },
      "status": "active",
      "intent": "plan",
      "category": [ {
        "coding": [ {
          "system": "http://hl7.org/fhir/us/core/CodeSystem/careplan-category",
          "code": "assess-plan"
        } ]
      } ],
      "title": "Plan of Treatment",
      "description": "<div>Not available.</div>",
      "subject": {
        "reference": "Patient/9c7043e9-c3cf-42ee-97f6-b365960e320d",
        "display": "Data 6 Export6"
      }
    }
  }, {
    "resource": {
      "resourceType": "Condition",
      "id": "ab548194-879b-4092-87fa-9825956fb077",
      "identifier": [ {
        "use": "official",
        "system": "urn:oid:2.16.840.1.113883.3.441.1.50.300011.51.26776.61",
        "value": "1406"
      } ],
      "clinicalStatus": {
        "coding": [ {
          "system": "http://terminology.hl7.org/CodeSystem/condition-clinical",
          "code": "active",
          "display": "Active"
        } ]
      },
      "verificationStatus": {
        "coding": [ {
          "system": "http://terminology.hl7.org/CodeSystem/condition-ver-status",
          "code": "confirmed",
          "display": "Confirmed"
        } ]
      },
      "category": [ {
        "coding": [ {
          "system": "http://terminology.hl7.org/CodeSystem/condition-category",
          "code": "problem-list-item",
          "display": "Problem List Item"
        } ]
      } ],
      "subject": {
        "reference": "Patient/9c7043e9-c3cf-42ee-97f6-b365960e320d",
        "display": "Data 6 Export6"
      }
    }
  }, {
    "resource": {
      "resourceType": "Condition",
      "id": "4bfbf724-aa6a-4ba1-aa3f-3d977e617774",
      "identifier": [ {
        "use": "official",
        "system": "urn:oid:2.16.840.1.113883.3.441.1.50.300011.51.26776.61",
        "value": "1408"
      } ],
      "clinicalStatus": {
        "coding": [ {
          "system": "http://terminology.hl7.org/CodeSystem/condition-clinical",
          "code": "active",
          "display": "Active"
        } ]
      },
      "verificationStatus": {
        "coding": [ {
          "system": "http://terminology.hl7.org/CodeSystem/condition-ver-status",
          "code": "confirmed",
          "display": "Confirmed"
        } ]
      },
      "category": [ {
        "coding": [ {
          "system": "http://terminology.hl7.org/CodeSystem/condition-category",
          "code": "problem-list-item",
          "display": "Problem List Item"
        } ]
      } ],
      "subject": {
        "reference": "Patient/9c7043e9-c3cf-42ee-97f6-b365960e320d",
        "display": "Data 6 Export6"
      }
    }
  }, {
    "resource": {
      "resourceType": "DiagnosticReport",
      "id": "99aee19a-4322-477e-9169-d90a96dbb694",
      "identifier": [ {
        "use": "official",
        "system": "urn:oid:2.16.840.1.113883.3.441.1.50.300011.51.26776.54",
        "value": "2766"
      } ],
      "status": "final",
      "category": [ {
        "coding": [ {
          "system": "http://terminology.hl7.org/CodeSystem/v2-0074",
          "code": "LAB",
          "display": "Laboratory"
        } ]
      } ],
      "subject": {
        "reference": "Patient/9c7043e9-c3cf-42ee-97f6-b365960e320d",
        "display": "Data 6 Export6"
      },
      "effectivePeriod": {
        "start": "2013-01-21T10:16:04+01:00"
      },
      "issued": "2013-01-21T10:16:04.000+01:00",
      "result": [ {
        "reference": "Observation/fff675f1-4b73-44de-b509-890f892b8c48",
        "display": "Platelet # Bld Auto"
      } ]
    }
  }, {
    "resource": {
      "resourceType": "Observation",
      "id": "fff675f1-4b73-44de-b509-890f892b8c48",
      "identifier": [ {
        "use": "official",
        "system": "urn:oid:2.16.840.1.113883.3.441.1.50.300011.51.26776.54",
        "value": "2766"
      } ],
      "status": "final",
      "category": [ {
        "coding": [ {
          "system": "http://terminology.hl7.org/CodeSystem/observation-category",
          "code": "laboratory"
        } ]
      } ],
      "code": {
        "coding": [ {
          "system": "http://loinc.org",
          "code": "777-3",
          "display": "Platelet # Bld Auto"
        } ]
      },
      "subject": {
        "reference": "Patient/9c7043e9-c3cf-42ee-97f6-b365960e320d",
        "display": "Data 6 Export6"
      },
      "effectivePeriod": {
        "start": "2013-01-21T10:16:04+01:00"
      },
      "valueQuantity": {
        "value": 246.0,
        "unit": "x10E3/uL",
        "system": "http://unitsofmeasure.org",
        "code": "x10E3/uL"
      }
    }
  }, {
    "resource": {
      "resourceType": "DiagnosticReport",
      "id": "e1a69036-7683-427c-9dfc-c8ba7e6cef9d",
      "identifier": [ {
        "use": "official",
        "system": "urn:oid:2.16.840.1.113883.3.441.1.50.300011.51.26776.54",
        "value": "2764"
      } ],
      "status": "final",
      "category": [ {
        "coding": [ {
          "system": "http://terminology.hl7.org/CodeSystem/v2-0074",
          "code": "LAB",
          "display": "Laboratory"
        } ]
      } ],
      "subject": {
        "reference": "Patient/9c7043e9-c3cf-42ee-97f6-b365960e320d",
        "display": "Data 6 Export6"
      },
      "effectivePeriod": {
        "start": "2013-01-21T10:16:04+01:00"
      },
      "issued": "2013-01-21T10:16:04.000+01:00",
      "result": [ {
        "reference": "Observation/6ec3f605-dbe9-417c-95c1-54505fe99eda",
        "display": "Hct Fr Bld Auto"
      } ]
    }
  }, {
    "resource": {
      "resourceType": "Observation",
      "id": "6ec3f605-dbe9-417c-95c1-54505fe99eda",
      "identifier": [ {
        "use": "official",
        "system": "urn:oid:2.16.840.1.113883.3.441.1.50.300011.51.26776.54",
        "value": "2764"
      } ],
      "status": "final",
      "category": [ {
        "coding": [ {
          "system": "http://terminology.hl7.org/CodeSystem/observation-category",
          "code": "laboratory"
        } ]
      } ],
      "code": {
        "coding": [ {
          "system": "http://loinc.org",
          "code": "4544-3",
          "display": "Hct Fr Bld Auto"
        } ]
      },
      "subject": {
        "reference": "Patient/9c7043e9-c3cf-42ee-97f6-b365960e320d",
        "display": "Data 6 Export6"
      },
      "effectivePeriod": {
        "start": "2013-01-21T10:16:04+01:00"
      },
      "valueQuantity": {
        "value": 46.50,
        "unit": "%",
        "system": "http://unitsofmeasure.org",
        "code": "%"
      }
    }
  }, {
    "resource": {
      "resourceType": "DiagnosticReport",
      "id": "6612cffd-5d88-44cc-ac2f-efe5d3c7c884",
      "identifier": [ {
        "use": "official",
        "system": "urn:oid:2.16.840.1.113883.3.441.1.50.300011.51.26776.54",
        "value": "2763"
      } ],
      "status": "final",
      "category": [ {
        "coding": [ {
          "system": "http://terminology.hl7.org/CodeSystem/v2-0074",
          "code": "LAB",
          "display": "Laboratory"
        } ]
      } ],
      "subject": {
        "reference": "Patient/9c7043e9-c3cf-42ee-97f6-b365960e320d",
        "display": "Data 6 Export6"
      },
      "effectivePeriod": {
        "start": "2013-01-21T10:16:04+01:00"
      },
      "issued": "2013-01-21T10:16:04.000+01:00",
      "result": [ {
        "reference": "Observation/a61fbfa1-6562-442d-b2f9-089ded50136d",
        "display": "Hgb Bld-mCnc"
      } ]
    }
  }, {
    "resource": {
      "resourceType": "Observation",
      "id": "a61fbfa1-6562-442d-b2f9-089ded50136d",
      "identifier": [ {
        "use": "official",
        "system": "urn:oid:2.16.840.1.113883.3.441.1.50.300011.51.26776.54",
        "value": "2763"
      } ],
      "status": "final",
      "category": [ {
        "coding": [ {
          "system": "http://terminology.hl7.org/CodeSystem/observation-category",
          "code": "laboratory"
        } ]
      } ],
      "code": {
        "coding": [ {
          "system": "http://loinc.org",
          "code": "718-7",
          "display": "Hgb Bld-mCnc"
        } ]
      },
      "subject": {
        "reference": "Patient/9c7043e9-c3cf-42ee-97f6-b365960e320d",
        "display": "Data 6 Export6"
      },
      "effectivePeriod": {
        "start": "2013-01-21T10:16:04+01:00"
      },
      "valueQuantity": {
        "value": 13.50,
        "unit": "g/dL",
        "system": "http://unitsofmeasure.org",
        "code": "g/dL"
      }
    }
  }, {
    "resource": {
      "resourceType": "DiagnosticReport",
      "id": "29b43c9b-e3e3-48be-9837-730763142537",
      "identifier": [ {
        "use": "official",
        "system": "urn:oid:2.16.840.1.113883.3.441.1.50.300011.51.26776.54",
        "value": "2765"
      } ],
      "status": "final",
      "category": [ {
        "coding": [ {
          "system": "http://terminology.hl7.org/CodeSystem/v2-0074",
          "code": "LAB",
          "display": "Laboratory"
        } ]
      } ],
      "subject": {
        "reference": "Patient/9c7043e9-c3cf-42ee-97f6-b365960e320d",
        "display": "Data 6 Export6"
      },
      "effectivePeriod": {
        "start": "2013-01-21T10:16:04+01:00"
      },
      "issued": "2013-01-21T10:16:04.000+01:00",
      "result": [ {
        "reference": "Observation/5d796d8c-b47f-4636-a19d-c9946b7d2bc1",
        "display": "WBC # Bld Auto"
      } ]
    }
  }, {
    "resource": {
      "resourceType": "Observation",
      "id": "5d796d8c-b47f-4636-a19d-c9946b7d2bc1",
      "identifier": [ {
        "use": "official",
        "system": "urn:oid:2.16.840.1.113883.3.441.1.50.300011.51.26776.54",
        "value": "2765"
      } ],
      "status": "final",
      "category": [ {
        "coding": [ {
          "system": "http://terminology.hl7.org/CodeSystem/observation-category",
          "code": "laboratory"
        } ]
      } ],
      "code": {
        "coding": [ {
          "system": "http://loinc.org",
          "code": "6690-2",
          "display": "WBC # Bld Auto"
        } ]
      },
      "subject": {
        "reference": "Patient/9c7043e9-c3cf-42ee-97f6-b365960e320d",
        "display": "Data 6 Export6"
      },
      "effectivePeriod": {
        "start": "2013-01-21T10:16:04+01:00"
      },
      "valueQuantity": {
        "value": 8.90,
        "unit": "x10E3/uL",
        "system": "http://unitsofmeasure.org",
        "code": "x10E3/uL"
      }
    }
  }, {
    "resource": {
      "resourceType": "Immunization",
      "id": "43bfeae0-0802-47de-b330-29207197503c",
      "identifier": [ {
        "use": "official",
        "system": "urn:oid:2.16.840.1.113883.3.441.1.50.300011.51.26776.60",
        "value": "1214"
      } ],
      "status": "completed",
      "vaccineCode": {
        "coding": [ {
          "system": "http://www2a.cdc.gov/vaccines/iis/iisstandards/vaccines.asp?rpt=cvx",
          "code": "03",
          "display": "MMR"
        } ],
        "text": "MMR"
      },
      "patient": {
        "reference": "Patient/9c7043e9-c3cf-42ee-97f6-b365960e320d",
        "display": "Data 6 Export6"
      },
      "occurrenceDateTime": "2011-03-12T00:00:00+01:00",
      "primarySource": true,
      "lotNumber": "ABN 9876",
      "doseQuantity": {
        "value": 0.5,
        "unit": "1",
        "system": "http://unitsofmeasure.org/ucum.html"
      },
      "performer": [ {
        "function": {
          "coding": [ {
            "system": "http://hl7.org/fhir/v2/0443",
            "code": "AP",
            "display": "Administering Provider"
          } ]
        },
        "actor": {
          "reference": "Practitioner/823c6b07-d142-4234-9f14-9c6d9fbfb263",
          "display": "Mike Hardy"
        }
      } ]
    }
  }, {
    "resource": {
      "resourceType": "Practitioner",
      "id": "823c6b07-d142-4234-9f14-9c6d9fbfb263",
      "identifier": [ {
        "use": "official",
        "system": "urn:oid:2.16.840.1.113883.3.441",
        "value": "b2711d72b6aa46e88cfd8fb3a3553f04"
      } ],
      "name": [ {
        "family": "Hardy",
        "given": [ "Mike" ]
      } ],
      "telecom": [ {
        "system": "phone",
        "value": "770-888-3333"
      } ],
      "address": [ {
        "line": [ "1234 test" ],
        "city": "Norcross",
        "state": "GA",
        "postalCode": "30091",
        "country": "United States"
      } ]
    }
  }, {
    "resource": {
      "resourceType": "PractitionerRole",
      "id": "45de4334-2c17-4880-a1c2-a76db556f920",
      "practitioner": {
        "reference": "Practitioner/823c6b07-d142-4234-9f14-9c6d9fbfb263",
        "display": "Mike Hardy"
      },
      "organization": {
        "reference": "Organization/3816f861-5fcc-4531-a2e0-43aefc0fe36e"
      }
    }
  }, {
    "resource": {
      "resourceType": "Organization",
      "id": "3816f861-5fcc-4531-a2e0-43aefc0fe36e",
      "identifier": [ {
        "use": "official",
        "system": "urn:oid:2.16.840.1.113883.3.441",
        "value": "7a289b1075e942a4aa7e4da5639cc638"
      } ],
      "telecom": [ {
        "system": "phone",
        "value": "770-888-3333",
        "use": "work"
      } ],
      "address": [ {
        "line": [ "1234 test" ],
        "city": "Norcross",
        "state": "GA",
        "postalCode": "30091",
        "country": "United States"
      } ]
    }
  } ]
}