{
  "resourceType": "Bundle",
  "entry": [ {
    "resource": {
      "resourceType": "Composition",
      "id": "5dcc9854-7152-4ab3-8cf0-1457a52c687f",
      "identifier": {
        "use": "official",
        "system": "urn:oid:2.16.840.1.113883.19",
        "value": "999021"
      },
      "status": "preliminary",
      "type": {
        "coding": [ {
          "system": "http://loinc.org",
          "code": "11488-4",
          "display": "Consultation Note"
        } ]
      },
      "category": [ {
        "coding": [ {
          "system": "http://hl7.org/fhir/ValueSet/doc-classcodes",
          "code": "LP173421-7",
          "display": "Note"
        } ]
      } ],
      "subject": {
        "reference": "Patient/4c938f7f-345f-4008-b6d6-24eff23ba979",
        "display": "Mr. Adam Frankie Everyman"
      },
      "date": "2005-03-29T17:15:04+05:00",
      "author": [ {
        "reference": "Practitioner/33c00785-b9d1-41d6-ab82-43a9b87a460b",
        "display": "Henry Seven"
      } ],
      "title": "Consultation Note",
      "confidentiality": "N",
      "attester": [ {
        "mode": "legal",
        "time": "2005-03-29T22:44:11+05:00",
        "party": {
          "reference": "Practitioner/1c7f7c9f-0e72-4bde-afc6-31473fbfa6db",
          "display": "Henry Seven"
        }
      }, {
        "mode": "professional",
        "time": "2005-03-29T22:44:11+05:00",
        "party": {
          "reference": "Practitioner/1c7f7c9f-0e72-4bde-afc6-31473fbfa6db",
          "display": "Henry Seven"
        }
      } ],
      "custodian": {
        "reference": "Organization/bd023d99-3116-4d19-828e-f10f3b0ac993",
        "display": "Good Health Clinic"
      },
      "section": [ {
        "title": "Plan of Care",
        "code": {
          "coding": [ {
            "system": "http://loinc.org",
            "code": "18776-5",
            "display": "Treatment plan"
          } ]
        },
        "text": {
          "status": "additional",
          "div": "<div xmlns=\"http://www.w3.org/1999/xhtml\"><table border=\"1\" width=\"100%\"><thead><tr><th>Planned Activity</th><th>Planned Date</th></tr></thead><tbody><tr><td>Colonoscopy</td><td>April 21, 2000</td></tr></tbody></table></div>"
        },
        "mode": "snapshot",
        "entry": [ {
          "reference": "CarePlan/73d60b84-600a-4b69-a8d0-848f91772e28"
        } ]
      }, {
        "title": "Family history",
        "code": {
          "coding": [ {
            "system": "http://loinc.org",
            "code": "10157-6"
          } ]
        },
        "text": {
          "status": "additional",
          "div": "<div xmlns=\"http://www.w3.org/1999/xhtml\"><p>Father (deceased)</p><table border=\"1\" width=\"100%\"><thead><tr><th>Diagnosis</th><th>Age At Onset</th></tr></thead><tbody><tr><td>Myocardial Infarction (cause of death)</td><td>57</td></tr><tr><td>Diabetes</td><td>40</td></tr></tbody></table></div>"
        },
        "mode": "snapshot",
        "entry": [ {
          "reference": "FamilyMemberHistory/c7e5589c-2b16-408e-9390-5b610164f7c8"
        } ]
      }, {
        "title": "Vital Signs",
        "code": {
          "coding": [ {
            "system": "http://loinc.org",
            "code": "8716-3",
            "display": "VITAL SIGNS"
          } ]
        },
        "text": {
          "status": "additional",
          "div": "<div xmlns=\"http://www.w3.org/1999/xhtml\"><table border=\"1\" width=\"100%\"><thead><tr><th align=\"right\">Date / Time: </th><th>Nov 14, 1999</th><th>April 7, 2000</th></tr></thead><tbody><tr><th align=\"left\">Height</th><td><span>177 cm</span></td><td><span>177 cm</span></td></tr><tr><th align=\"left\">Weight</th><td><span>86 kg</span></td><td><span>88 kg</span></td></tr><tr><th align=\"left\">Blood Pressure</th><td><span>132/86 mmHg</span></td><td><span>145/88 mmHg</span></td></tr></tbody></table></div>"
        },
        "mode": "snapshot",
        "entry": [ {
          "reference": "Observation/ee575836-15fc-40a1-8824-188d3a0d4c0e",
          "display": "Patient Body Weight - Measured"
        }, {
          "reference": "Observation/328e2205-6507-48e5-a160-d4841add54de",
          "display": "Intravascular Systolic"
        }, {
          "reference": "Observation/f1fb0629-1869-43d3-9272-9ce8b0c3b644",
          "display": "Height"
        }, {
          "reference": "Observation/439b613f-425c-4df5-8372-46e637a83cf6",
          "display": "Height"
        }, {
          "reference": "Observation/c16ffc87-13be-43c9-b7d7-8abd63294a6d",
          "display": "Intravascular Systolic"
        }, {
          "reference": "Observation/7c03cd05-1fc1-41e3-95a0-f1e6eede2ff7",
          "display": "Patient Body Weight - Measured"
        } ]
      }, {
        "title": "Results",
        "code": {
          "coding": [ {
            "system": "http://loinc.org",
            "code": "30954-2",
            "display": "RESULTS"
          } ]
        },
        "text": {
          "status": "additional",
          "div": "<div xmlns=\"http://www.w3.org/1999/xhtml\"><table><tbody><tr><td colspan=\"2\">LABORATORY INFORMATION</td></tr><tr><td colspan=\"2\">Chemistries and drug levels</td></tr><tr><td><span>HGB (M 13-18 g/dl; F 12-16 g/dl)</span></td><td>13.2</td></tr><tr><td><span>WBC (4.3-10.8 10+3/ul)</span></td><td>6.7</td></tr><tr><td><span>PLT (135-145 meq/l)</span></td><td>123 (L)</td></tr><tr><td colspan=\"2\">Liver Functions and Other Laboratory Values</td></tr><tr><td>ALT (SGPT)</td><td>31.0</td></tr><tr><td>AST (SGOT)</td><td>18.0</td></tr><tr><td>GGT</td><td>28.0 Alk</td></tr><tr><td>Phos</td><td>86.0</td></tr><tr><td>Total Bili</td><td>0.1</td></tr><tr><td>Albumin</td><td>3.2</td></tr><tr><td colspan=\"2\">Blood Count</td></tr><tr><td>White Count</td><td>7.7</td></tr><tr><td>Platelets</td><td>187.0</td></tr><tr><td>Hematocrit</td><td>23.7</td></tr><tr><td>Hemoglobin</td><td>8.1</td></tr><tr><td colspan=\"2\">ELECTROCARDIOGRAM (EKG) INFORMATION</td></tr><tr><td>EKG</td><td>Sinus rhythm without acute changes</td></tr></tbody></table></div>"
        },
        "mode": "snapshot",
        "entry": [ {
          "reference": "DiagnosticReport/462747df-26d2-4b76-88dd-9f8540bf6801",
          "display": "CBC WO DIFFERENTIAL"
        } ]
      }, {
        "title": "ASSESSMENT",
        "code": {
          "coding": [ {
            "system": "http://loinc.org",
            "code": "51848-0",
            "display": "ASSESSMENT"
          } ]
        },
        "text": {
          "status": "additional",
          "div": "<div xmlns=\"http://www.w3.org/1999/xhtml\"><ol><li>Recurrent GI bleed of unknown etiology; hypotension perhaps secondary to this but as likely secondary to polypharmacy.</li><li>Acute on chronic anemia secondary to #1.</li><li>Azotemia, acute renal failure with volume loss secondary to #1.</li><li>Hyperkalemia secondary to #3 and on ACE and K+ supplement.</li><li>Other chronic diagnoses as noted above, currently stable.</li></ol></div>"
        },
        "mode": "snapshot",
        "entry": [ {
          "reference": "ClinicalImpression/74ff5290-4b6c-482a-9f80-bdfc7298a53e",
          "display": "ASSESSMENT"
        } ]
      }, {
        "title": "Social History",
        "code": {
          "coding": [ {
            "system": "http://loinc.org",
            "code": "29762-2",
            "display": "Social History"
          } ]
        },
        "text": {
          "status": "additional",
          "div": "<div xmlns=\"http://www.w3.org/1999/xhtml\"><table border=\"1\" width=\"100%\"><thead><tr><th>Social History Element</th><th>Description</th><th>Effective Dates</th></tr></thead><tbody><tr><td><span/> smoking</td><td>1 pack per day</td><td>1947 - 1972</td></tr><tr><td><span/> smoking</td><td>None</td><td>1973 - </td></tr><tr><td><span/>Alcohol consumption</td><td>None</td><td>1973 - </td></tr></tbody></table></div>"
        },
        "mode": "snapshot",
        "entry": [ {
          "reference": "Observation/d72da84f-a8c1-41b1-9ecb-35836e1371dc",
          "display": "Cigarette smoking"
        }, {
          "reference": "Observation/a531f461-4957-44e5-b786-8b28b99dae2e",
          "display": "Alcohol consumption"
        }, {
          "reference": "Observation/cd65ce43-7295-4f20-ba82-a7c95eb3126e",
          "display": "Cigarette smoking"
        } ]
      }, {
        "title": "Allergies, Adverse Reactions, Alerts",
        "code": {
          "coding": [ {
            "system": "http://loinc.org",
            "code": "48765-2"
          } ]
        },
        "text": {
          "status": "additional",
          "div": "<div xmlns=\"http://www.w3.org/1999/xhtml\"><table border=\"1\" width=\"100%\"><thead><tr><th>Substance</th><th>Reaction</th><th>Status</th></tr></thead><tbody><tr><td>Penicillin</td><td><span>Hives</span></td><td>Active</td></tr><tr><td>Aspirin</td><td><span>Wheezing</span></td><td>Active</td></tr><tr><td>Codeine</td><td><span>Nausea</span></td><td>Active</td></tr></tbody></table></div>"
        },
        "mode": "snapshot",
        "entry": [ {
          "reference": "AllergyIntolerance/5a63733f-bbf4-4220-9d85-436ff960f5a3",
          "display": "Penicillin"
        }, {
          "reference": "AllergyIntolerance/2f9b5e55-528e-4bd5-bbb9-4890aece53ac",
          "display": "Aspirin"
        }, {
          "reference": "AllergyIntolerance/de8b1d54-87d5-472e-a18f-ad9abe15a766",
          "display": "Aspirin"
        } ]
      }, {
        "title": "MEDICATIONS",
        "code": {
          "coding": [ {
            "system": "http://loinc.org",
            "code": "10160-0",
            "display": "HISTORY OF MEDICATION USE"
          } ]
        },
        "text": {
          "status": "additional",
          "div": "<div xmlns=\"http://www.w3.org/1999/xhtml\"><table border=\"1\" width=\"100%\"><thead><tr><th>Medication</th><th>Directions</th><th>Start Date</th><th>Status</th><th>Indications</th><th>Fill Instructions</th></tr></thead><tbody><tr><td><span>Proventil 0.09 MG/ACTUAT inhalant solution</span></td><td>2 puffs QID PRN wheezing</td><td>2011-03-01</td><td>Active</td><td>Bronchitis (32398004 SNOMED CT)</td><td>Generic Substitition Allowed</td></tr></tbody></table></div>"
        },
        "mode": "snapshot",
        "entry": [ {
          "reference": "MedicationStatement/cb1a844d-c91b-47bb-b26b-50825757f8fd",
          "display": "Albuterol 0.09 MG/ACTUAT inhalant solution"
        } ]
      } ]
    }
  }, {
    "resource": {
      "resourceType": "Patient",
      "id": "4c938f7f-345f-4008-b6d6-24eff23ba979",
      "extension": [ {
        "url": "http://hl7.org/fhir/StructureDefinition/patient-religion",
        "valueCodeableConcept": {
          "coding": [ {
            "system": "urn:oid:2.16.840.1.113883.1.11.19185",
            "code": "1013",
            "display": "Christian (non-Catholic, non-specific)"
          } ]
        }
      }, {
        "url": "http://hl7.org/fhir/us/core/StructureDefinition/us-core-race",
        "extension": [ {
          "url": "text",
          "valueString": "White"
        }, {
          "url": "ombCategory",
          "valueCoding": {
            "system": "urn:oid:2.16.840.1.113883.6.238",
            "code": "2106-3",
            "display": "White"
          }
        } ]
      }, {
        "url": "http://hl7.org/fhir/us/core/StructureDefinition/us-core-ethnicity",
        "extension": [ {
          "url": "text",
          "valueString": "Not Hispanic or Latino"
        }, {
          "url": "ombCategory",
          "valueCoding": {
            "system": "urn:oid:2.16.840.1.113883.6.238",
            "code": "2186-5",
            "display": "Not Hispanic or Latino"
          }
        } ]
      }, {
        "url": "http://hl7.org/fhir/StructureDefinition/patient-birthPlace",
        "valueAddress": {
          "state": "MA",
          "postalCode": "02368",
          "country": "USA"
        }
      } ],
      "identifier": [ {
        "use": "official",
        "system": "urn:oid:2.16.840.1.113883.19",
        "value": "12345"
      }, {
        "use": "official",
        "system": "urn:oid:2.16.840.1.113883.4.1",
        "value": "111-00-1234"
      } ],
      "name": [ {
        "use": "usual",
        "family": "Everyman",
        "given": [ "Adam", "Frankie" ],
        "prefix": [ "Mr." ]
      } ],
      "telecom": [ {
        "system": "phone",
        "value": "(781)555-1212",
        "use": "home"
      } ],
      "gender": "male",
      "birthDate": "1954-11-25",
      "address": [ {
        "use": "home",
        "line": [ "17 Daws Rd." ],
        "city": "Blue Bell",
        "state": "MA",
        "postalCode": "02368",
        "country": "US"
      } ],
      "maritalStatus": {
        "coding": [ {
          "system": "http://terminology.hl7.org/CodeSystem/v3-MaritalStatus",
          "code": "M",
          "display": "Married"
        } ]
      },
      "contact": [ {
        "relationship": [ {
          "coding": [ {
            "system": "http://terminology.hl7.org/CodeSystem/v2-0131",
            "code": "O",
            "display": "Other"
          } ]
        } ],
        "name": {
          "family": "Relative",
          "given": [ "Ralph" ]
        },
        "telecom": [ {
          "system": "phone",
          "value": "(781)555-1212",
          "use": "home"
        } ],
        "address": {
          "use": "home",
          "line": [ "17 Daws Rd." ],
          "city": "Blue Bell",
          "state": "MA",
          "postalCode": "02368",
          "country": "US"
        }
      } ],
      "communication": [ {
        "language": {
          "coding": [ {
            "system": "urn:ietf:bcp:47",
            "code": "fr-CN"
          } ]
        },
        "preferred": true
      } ],
      "managingOrganization": {
        "reference": "Organization/06d76e29-5625-473e-bcc1-a4851998cd2d",
        "display": "Good Health Clinic"
      }
    }
  }, {
    "resource": {
      "resourceType": "Organization",
      "id": "06d76e29-5625-473e-bcc1-a4851998cd2d",
      "identifier": [ {
        "use": "official",
        "value": "2.16.840.1.113883.19"
      } ],
      "name": "Good Health Clinic",
      "telecom": [ {
        "system": "phone",
        "value": "(781)555-1212",
        "use": "work"
      } ],
      "address": [ {
        "line": [ "21 North Ave" ],
        "city": "Burlington",
        "state": "MA",
        "postalCode": "02368",
        "country": "USA"
      } ]
    }
  }, {
    "resource": {
      "resourceType": "Practitioner",
      "id": "33c00785-b9d1-41d6-ab82-43a9b87a460b",
      "identifier": [ {
        "use": "official",
        "system": "urn:oid:2.16.840.1.113883.19.5",
        "value": "KP00017"
      } ],
      "name": [ {
        "family": "Seven",
        "given": [ "Henry" ]
      } ],
      "telecom": [ {
        "system": "phone",
        "value": "(555)555-1003",
        "use": "work"
      } ],
      "address": [ {
        "line": [ "21 North Ave." ],
        "city": "Burlington",
        "state": "MA",
        "postalCode": "02368",
        "country": "USA"
      } ]
    }
  }, {
    "resource": {
      "resourceType": "Practitioner",
      "id": "1c7f7c9f-0e72-4bde-afc6-31473fbfa6db",
      "identifier": [ {
        "use": "official",
        "system": "urn:oid:2.16.840.1.113883.19",
        "value": "KP00017"
      } ],
      "name": [ {
        "family": "Seven",
        "given": [ "Henry" ]
      } ],
      "telecom": [ {
        "system": "phone",
        "value": "(555)555-1003",
        "use": "work"
      } ],
      "address": [ {
        "line": [ "21 North Ave." ],
        "city": "Burlington",
        "state": "MA",
        "postalCode": "02368",
        "country": "USA"
      } ]
    }
  }, {
    "resource": {
      "resourceType": "Organization",
      "id": "bd023d99-3116-4d19-828e-f10f3b0ac993",
      "identifier": [ {
        "use": "official",
        "value": "2.16.840.1.113883.19.5"
      } ],
      "name": "Good Health Clinic",
      "telecom": [ {
        "system": "phone",
        "value": "(555)555-1212",
        "use": "work"
      } ],
      "address": [ {
        "use": "work",
        "line": [ "17 Daws Rd." ],
        "city": "Blue Bell",
        "state": "MA",
        "postalCode": "02368",
        "country": "USA"
      } ]
    }
  }, {
    "resource": {
      "resourceType": "CarePlan",
      "id": "73d60b84-600a-4b69-a8d0-848f91772e28",
      "text": {
        "status": "additional",
        "div": "<div xmlns=\"http://www.w3.org/1999/xhtml\"><table border=\"1\" width=\"100%\"><thead><tr><th>Planned Activity</th><th>Planned Date</th></tr></thead><tbody><tr><td>Colonoscopy</td><td>April 21, 2000</td></tr></tbody></table></div>"
      },
      "status": "active",
      "intent": "plan",
      "category": [ {
        "coding": [ {
          "system": "http://hl7.org/fhir/us/core/CodeSystem/careplan-category",
          "code": "assess-plan"
        } ]
      } ],
      "title": "Plan of Care",
      "description": "<div><table border=\"1\" width=\"100%\"><thead><tr><th>Planned Activity</th><th>Planned Date</th></tr></thead><tbody><tr><td>Colonoscopy</td><td>April 21, 2000</td></tr></tbody></table></div>",
      "subject": {
        "reference": "Patient/4c938f7f-345f-4008-b6d6-24eff23ba979",
        "display": "Mr. Adam Frankie Everyman"
      },
      "activity": [ {
        "reference": {
          "reference": "ServiceRequest/b30cb756-b652-4933-9728-15357750d8b7",
          "display": "Colonoscopy"
        }
      } ]
    }
  }, {
    "resource": {
      "resourceType": "ServiceRequest",
      "id": "b30cb756-b652-4933-9728-15357750d8b7",
      "identifier": [ {
        "use": "official",
        "value": "9a6d1bac-17d3-4195-89a4-1121bc809a5c"
      } ],
      "status": "active",
      "intent": "plan",
      "code": {
        "coding": [ {
          "system": "http://snomed.info/sct",
          "code": "310634005",
          "display": "Colonoscopy"
        } ]
      },
      "subject": {
        "reference": "Patient/4c938f7f-345f-4008-b6d6-24eff23ba979",
        "display": "Mr. Adam Frankie Everyman"
      }
    }
  }, {
    "resource": {
      "resourceType": "FamilyMemberHistory",
      "id": "c7e5589c-2b16-408e-9390-5b610164f7c8",
      "status": "completed",
      "patient": {
        "reference": "Patient/4c938f7f-345f-4008-b6d6-24eff23ba979",
        "display": "Mr. Adam Frankie Everyman"
      },
      "relationship": {
        "coding": [ {
          "system": "urn:oid:2.16.840.1.113883.5.111",
          "code": "FTH",
          "display": "Father"
        }, {
          "system": "http://snomed.info/sct",
          "code": "9947008",
          "display": "Biological father"
        } ]
      },
      "sex": {
        "coding": [ {
          "system": "http://hl7.org/fhir/administrative-gender",
          "code": "male",
          "display": "Male"
        } ]
      },
      "bornDate": "1912",
      "deceasedBoolean": true,
      "condition": [ {
        "code": {
          "coding": [ {
            "system": "http://snomed.info/sct",
            "code": "22298006",
            "display": "Myocardial infarction"
          } ]
        },
        "outcome": {
          "coding": [ {
            "system": "http://snomed.info/sct",
            "code": "419099009",
            "display": "Dead"
          } ]
        },
        "onsetAge": {
          "value": 57,
          "unit": "a",
          "system": "http://unitsofmeasure.org"
        }
      }, {
        "code": {
          "coding": [ {
            "system": "http://snomed.info/sct",
            "code": "46635009",
            "display": "Diabetes mellitus type 1"
          } ]
        },
        "onsetAge": {
          "value": 40,
          "unit": "a",
          "system": "http://unitsofmeasure.org"
        }
      } ]
    }
  }, {
    "resource": {
      "resourceType": "Observation",
      "id": "ee575836-15fc-40a1-8824-188d3a0d4c0e",
      "identifier": [ {
        "use": "official",
        "value": "c6f88321-67ad-11db-bd13-0800200c9a66"
      } ],
      "status": "final",
      "category": [ {
        "coding": [ {
          "system": "http://terminology.hl7.org/CodeSystem/observation-category",
          "code": "vital-signs",
          "display": "Vital Signs"
        } ]
      } ],
      "code": {
        "coding": [ {
          "system": "http://loinc.org",
          "code": "3141-9",
          "display": "Patient Body Weight - Measured"
        } ]
      },
      "subject": {
        "reference": "Patient/4c938f7f-345f-4008-b6d6-24eff23ba979",
        "display": "Mr. Adam Frankie Everyman"
      },
      "effectivePeriod": {
        "start": "1999-11-14"
      },
      "valueQuantity": {
        "value": 86,
        "unit": "kg",
        "system": "http://unitsofmeasure.org",
        "code": "kg"
      },
      "interpretation": [ {
        "coding": [ {
          "system": "http://terminology.hl7.org/CodeSystem/v3-ObservationInterpretation",
          "code": "N"
        } ]
      } ]
    }
  }, {
    "resource": {
      "resourceType": "Observation",
      "id": "328e2205-6507-48e5-a160-d4841add54de",
      "identifier": [ {
        "use": "official",
        "value": "c6f88321-67ad-11db-bd13-0800200c9a66"
      } ],
      "status": "final",
      "category": [ {
        "coding": [ {
          "system": "http://terminology.hl7.org/CodeSystem/observation-category",
          "code": "vital-signs",
          "display": "Vital Signs"
        } ]
      } ],
      "code": {
        "coding": [ {
          "system": "http://loinc.org",
          "code": "8480-6",
          "display": "Intravascular Systolic"
        } ]
      },
      "subject": {
        "reference": "Patient/4c938f7f-345f-4008-b6d6-24eff23ba979",
        "display": "Mr. Adam Frankie Everyman"
      },
      "effectivePeriod": {
        "start": "1999-11-14"
      },
      "valueQuantity": {
        "value": 132,
        "unit": "mm[Hg]",
        "system": "http://unitsofmeasure.org",
        "code": "mm[Hg]"
      },
      "interpretation": [ {
        "coding": [ {
          "system": "http://terminology.hl7.org/CodeSystem/v3-ObservationInterpretation",
          "code": "N"
        } ]
      } ]
    }
  }, {
    "resource": {
      "resourceType": "Observation",
      "id": "f1fb0629-1869-43d3-9272-9ce8b0c3b644",
      "identifier": [ {
        "use": "official",
        "value": "c6f88321-67ad-11db-bd13-0800200c9a66"
      } ],
      "status": "final",
      "category": [ {
        "coding": [ {
          "system": "http://terminology.hl7.org/CodeSystem/observation-category",
          "code": "vital-signs",
          "display": "Vital Signs"
        } ]
      } ],
      "code": {
        "coding": [ {
          "system": "http://loinc.org",
          "code": "8302-2",
          "display": "Height"
        } ]
      },
      "subject": {
        "reference": "Patient/4c938f7f-345f-4008-b6d6-24eff23ba979",
        "display": "Mr. Adam Frankie Everyman"
      },
      "effectivePeriod": {
        "start": "1999-11-14"
      },
      "valueQuantity": {
        "value": 177,
        "unit": "cm",
        "system": "http://unitsofmeasure.org",
        "code": "cm"
      },
      "interpretation": [ {
        "coding": [ {
          "system": "http://terminology.hl7.org/CodeSystem/v3-ObservationInterpretation",
          "code": "N"
        } ]
      } ]
    }
  }, {
    "resource": {
      "resourceType": "Observation",
      "id": "439b613f-425c-4df5-8372-46e637a83cf6",
      "identifier": [ {
        "use": "official",
        "value": "c6f88321-67ad-11db-bd13-0800200c9a66"
      } ],
      "status": "final",
      "category": [ {
        "coding": [ {
          "system": "http://terminology.hl7.org/CodeSystem/observation-category",
          "code": "vital-signs",
          "display": "Vital Signs"
        } ]
      } ],
      "code": {
        "coding": [ {
          "system": "http://loinc.org",
          "code": "8302-2",
          "display": "Height"
        } ]
      },
      "subject": {
        "reference": "Patient/4c938f7f-345f-4008-b6d6-24eff23ba979",
        "display": "Mr. Adam Frankie Everyman"
      },
      "effectivePeriod": {
        "start": "2000-04-07"
      },
      "valueQuantity": {
        "value": 177,
        "unit": "cm",
        "system": "http://unitsofmeasure.org",
        "code": "cm"
      },
      "interpretation": [ {
        "coding": [ {
          "system": "http://terminology.hl7.org/CodeSystem/v3-ObservationInterpretation",
          "code": "N"
        } ]
      } ]
    }
  }, {
    "resource": {
      "resourceType": "Observation",
      "id": "c16ffc87-13be-43c9-b7d7-8abd63294a6d",
      "identifier": [ {
        "use": "official",
        "value": "c6f88321-67ad-11db-bd13-0800200c9a66"
      } ],
      "status": "final",
      "category": [ {
        "coding": [ {
          "system": "http://terminology.hl7.org/CodeSystem/observation-category",
          "code": "vital-signs",
          "display": "Vital Signs"
        } ]
      } ],
      "code": {
        "coding": [ {
          "system": "http://loinc.org",
          "code": "8480-6",
          "display": "Intravascular Systolic"
        } ]
      },
      "subject": {
        "reference": "Patient/4c938f7f-345f-4008-b6d6-24eff23ba979",
        "display": "Mr. Adam Frankie Everyman"
      },
      "effectivePeriod": {
        "start": "2000-04-07"
      },
      "valueQuantity": {
        "value": 145,
        "unit": "mm[Hg]",
        "system": "http://unitsofmeasure.org",
        "code": "mm[Hg]"
      },
      "interpretation": [ {
        "coding": [ {
          "system": "http://terminology.hl7.org/CodeSystem/v3-ObservationInterpretation",
          "code": "N"
        } ]
      } ]
    }
  }, {
    "resource": {
      "resourceType": "Observation",
      "id": "7c03cd05-1fc1-41e3-95a0-f1e6eede2ff7",
      "identifier": [ {
        "use": "official",
        "value": "c6f88321-67ad-11db-bd13-0800200c9a66"
      } ],
      "status": "final",
      "category": [ {
        "coding": [ {
          "system": "http://terminology.hl7.org/CodeSystem/observation-category",
          "code": "vital-signs",
          "display": "Vital Signs"
        } ]
      } ],
      "code": {
        "coding": [ {
          "system": "http://loinc.org",
          "code": "3141-9",
          "display": "Patient Body Weight - Measured"
        } ]
      },
      "subject": {
        "reference": "Patient/4c938f7f-345f-4008-b6d6-24eff23ba979",
        "display": "Mr. Adam Frankie Everyman"
      },
      "effectivePeriod": {
        "start": "2000-04-07"
      },
      "valueQuantity": {
        "value": 88,
        "unit": "kg",
        "system": "http://unitsofmeasure.org",
        "code": "kg"
      },
      "interpretation": [ {
        "coding": [ {
          "system": "http://terminology.hl7.org/CodeSystem/v3-ObservationInterpretation",
          "code": "N"
        } ]
      } ]
    }
  }, {
    "resource": {
      "resourceType": "DiagnosticReport",
      "id": "462747df-26d2-4b76-88dd-9f8540bf6801",
      "identifier": [ {
        "use": "official",
        "value": "7d5a02b0-67a4-11db-bd13-0800200c9a66"
      } ],
      "status": "final",
      "category": [ {
        "coding": [ {
          "system": "http://terminology.hl7.org/CodeSystem/v2-0074",
          "code": "LAB",
          "display": "Laboratory"
        } ]
      } ],
      "code": {
        "coding": [ {
          "system": "http://snomed.info/sct",
          "code": "43789009",
          "display": "CBC WO DIFFERENTIAL"
        } ]
      },
      "subject": {
        "reference": "Patient/4c938f7f-345f-4008-b6d6-24eff23ba979",
        "display": "Mr. Adam Frankie Everyman"
      },
      "result": [ {
        "reference": "Observation/2762a8eb-00eb-4ad4-8c4d-44cfed073715",
        "display": "HGB (M 13-18 g/dl; F 12-16 g/dl)"
      }, {
        "reference": "Observation/93aee5ce-c9c4-4899-bbf1-b2d6e2717bad",
        "display": "WBC (4.3-10.8 10+3/ul)"
      }, {
        "reference": "Observation/bf7f16ce-e214-47e9-b576-e632bdc8e249",
        "display": "PLT (135-145 meq/l)"
      } ]
    }
  }, {
    "resource": {
      "resourceType": "Observation",
      "id": "2762a8eb-00eb-4ad4-8c4d-44cfed073715",
      "identifier": [ {
        "use": "official",
        "value": "107c2dc0-67a5-11db-bd13-0800200c9a66"
      } ],
      "status": "final",
      "category": [ {
        "coding": [ {
          "system": "http://terminology.hl7.org/CodeSystem/observation-category",
          "code": "laboratory"
        } ]
      } ],
      "code": {
        "coding": [ {
          "system": "http://loinc.org",
          "code": "30313-1",
          "display": "HGB"
        } ],
        "text": "HGB (M 13-18 g/dl; F 12-16 g/dl)"
      },
      "subject": {
        "reference": "Patient/4c938f7f-345f-4008-b6d6-24eff23ba979",
        "display": "Mr. Adam Frankie Everyman"
      },
      "effectivePeriod": {
        "start": "2000-03-23T14:30:00+01:00"
      },
      "performer": [ {
        "reference": "Practitioner/09668601-7feb-4690-a5a1-c13bbdd5747b"
      } ],
      "valueQuantity": {
        "value": 13.2,
        "unit": "g/dl",
        "system": "http://unitsofmeasure.org",
        "code": "g/dl"
      },
      "interpretation": [ {
        "coding": [ {
          "system": "http://terminology.hl7.org/CodeSystem/v3-ObservationInterpretation",
          "code": "N"
        } ]
      } ],
      "referenceRange": [ {
        "text": "M 13-18 g/dl; F 12-16 g/dl"
      } ]
    }
  }, {
    "resource": {
      "resourceType": "Practitioner",
      "id": "09668601-7feb-4690-a5a1-c13bbdd5747b",
      "identifier": [ {
        "use": "official"
      } ]
    }
  }, {
    "resource": {
      "resourceType": "Observation",
      "id": "93aee5ce-c9c4-4899-bbf1-b2d6e2717bad",
      "identifier": [ {
        "use": "official",
        "value": "107c2dc0-67a5-11db-bd13-0800200c9a66"
      } ],
      "status": "final",
      "category": [ {
        "coding": [ {
          "system": "http://terminology.hl7.org/CodeSystem/observation-category",
          "code": "laboratory"
        } ]
      } ],
      "code": {
        "coding": [ {
          "system": "http://loinc.org",
          "code": "33765-9",
          "display": "WBC"
        } ],
        "text": "WBC (4.3-10.8 10+3/ul)"
      },
      "subject": {
        "reference": "Patient/4c938f7f-345f-4008-b6d6-24eff23ba979",
        "display": "Mr. Adam Frankie Everyman"
      },
      "effectivePeriod": {
        "start": "2000-03-23T14:30:00+01:00"
      },
      "performer": [ {
        "reference": "Practitioner/34dd0769-7596-4c1e-b317-f13c6607f2db"
      } ],
      "valueQuantity": {
        "value": 6.7,
        "unit": "10+3/ul",
        "system": "http://unitsofmeasure.org",
        "code": "10+3/ul"
      },
      "interpretation": [ {
        "coding": [ {
          "system": "http://terminology.hl7.org/CodeSystem/v3-ObservationInterpretation",
          "code": "N"
        } ]
      } ],
      "referenceRange": [ {
        "low": {
          "value": 4.3,
          "unit": "10+3/ul",
          "system": "http://unitsofmeasure.org/ucum.html"
        },
        "high": {
          "value": 10.8,
          "unit": "10+3/ul",
          "system": "http://unitsofmeasure.org/ucum.html"
        }
      } ]
    }
  }, {
    "resource": {
      "resourceType": "Practitioner",
      "id": "34dd0769-7596-4c1e-b317-f13c6607f2db",
      "identifier": [ {
        "use": "official"
      } ]
    }
  }, {
    "resource": {
      "resourceType": "Observation",
      "id": "bf7f16ce-e214-47e9-b576-e632bdc8e249",
      "identifier": [ {
        "use": "official",
        "value": "107c2dc0-67a5-11db-bd13-0800200c9a66"
      } ],
      "status": "final",
      "category": [ {
        "coding": [ {
          "system": "http://terminology.hl7.org/CodeSystem/observation-category",
          "code": "laboratory"
        } ]
      } ],
      "code": {
        "coding": [ {
          "system": "http://loinc.org",
          "code": "26515-7",
          "display": "PLT"
        } ],
        "text": "PLT (135-145 meq/l)"
      },
      "subject": {
        "reference": "Patient/4c938f7f-345f-4008-b6d6-24eff23ba979",
        "display": "Mr. Adam Frankie Everyman"
      },
      "effectivePeriod": {
        "start": "2000-03-23T14:30:00+01:00"
      },
      "performer": [ {
        "reference": "Practitioner/5d88d323-5c44-4dc2-8f1f-38849ec6fb03"
      } ],
      "valueQuantity": {
        "value": 123,
        "unit": "10+3/ul",
        "system": "http://unitsofmeasure.org",
        "code": "10+3/ul"
      },
      "interpretation": [ {
        "coding": [ {
          "system": "http://terminology.hl7.org/CodeSystem/v3-ObservationInterpretation",
          "code": "L"
        } ]
      } ],
      "referenceRange": [ {
        "low": {
          "value": 150,
          "unit": "10+3/ul",
          "system": "http://unitsofmeasure.org/ucum.html"
        },
        "high": {
          "value": 350,
          "unit": "10+3/ul",
          "system": "http://unitsofmeasure.org/ucum.html"
        }
      } ]
    }
  }, {
    "resource": {
      "resourceType": "Practitioner",
      "id": "5d88d323-5c44-4dc2-8f1f-38849ec6fb03",
      "identifier": [ {
        "use": "official"
      } ]
    }
  }, {
    "resource": {
      "resourceType": "ClinicalImpression",
      "id": "74ff5290-4b6c-482a-9f80-bdfc7298a53e",
      "status": "completed",
      "code": {
        "coding": [ {
          "system": "http://loinc.org",
          "code": "51848-0",
          "display": "ASSESSMENT"
        } ]
      },
      "subject": {
        "reference": "Patient/4c938f7f-345f-4008-b6d6-24eff23ba979",
        "display": "Mr. Adam Frankie Everyman"
      }
    }
  }, {
    "resource": {
      "resourceType": "Observation",
      "id": "d72da84f-a8c1-41b1-9ecb-35836e1371dc",
      "identifier": [ {
        "use": "official",
        "value": "45efb604-7049-4a2e-ad33-d38556c9636c"
      } ],
      "status": "final",
      "code": {
        "coding": [ {
          "system": "http://snomed.info/sct",
          "code": "230056004",
          "display": "Cigarette smoking"
        } ]
      },
      "subject": {
        "reference": "Patient/4c938f7f-345f-4008-b6d6-24eff23ba979",
        "display": "Mr. Adam Frankie Everyman"
      },
      "effectivePeriod": {
        "start": "1973"
      },
      "valueString": "None"
    }
  }, {
    "resource": {
      "resourceType": "Observation",
      "id": "a531f461-4957-44e5-b786-8b28b99dae2e",
      "identifier": [ {
        "use": "official",
        "value": "37f76c51-6411-4e1d-8a37-957fd49d2cef"
      } ],
      "status": "final",
      "code": {
        "coding": [ {
          "system": "http://snomed.info/sct",
          "code": "160573003",
          "display": "Alcohol consumption"
        } ]
      },
      "subject": {
        "reference": "Patient/4c938f7f-345f-4008-b6d6-24eff23ba979",
        "display": "Mr. Adam Frankie Everyman"
      },
      "effectivePeriod": {
        "start": "1973"
      },
      "valueString": "None"
    }
  }, {
    "resource": {
      "resourceType": "Observation",
      "id": "cd65ce43-7295-4f20-ba82-a7c95eb3126e",
      "identifier": [ {
        "use": "official",
        "value": "9b56c25d-9104-45ee-9fa4-e0f3afaa01c1"
      } ],
      "status": "final",
      "code": {
        "coding": [ {
          "system": "http://snomed.info/sct",
          "code": "230056004",
          "display": "Cigarette smoking"
        } ]
      },
      "subject": {
        "reference": "Patient/4c938f7f-345f-4008-b6d6-24eff23ba979",
        "display": "Mr. Adam Frankie Everyman"
      },
      "effectivePeriod": {
        "start": "1947",
        "end": "1972"
      },
      "valueString": "1 pack per day"
    }
  }, {
    "resource": {
      "resourceType": "AllergyIntolerance",
      "id": "5a63733f-bbf4-4220-9d85-436ff960f5a3",
      "identifier": [ {
        "use": "official",
        "value": "36e3e930-7b14-11db-9fe1-0800200c9a66"
      } ],
      "clinicalStatus": {
        "coding": [ {
          "system": "http://terminology.hl7.org/CodeSystem/allergyintolerance-clinical",
          "code": "active",
          "display": "Active"
        } ]
      },
      "verificationStatus": {
        "coding": [ {
          "system": "http://terminology.hl7.org/CodeSystem/allergyintolerance-verification",
          "code": "confirmed",
          "display": "Confirmed"
        } ]
      },
      "code": {
        "coding": [ {
          "system": "http://www.nlm.nih.gov/research/umls/rxnorm",
          "code": "314422",
          "display": "ALLERGENIC EXTRACT, PENICILLIN"
        } ],
        "text": "Penicillin"
      },
      "patient": {
        "reference": "Patient/4c938f7f-345f-4008-b6d6-24eff23ba979",
        "display": "Mr. Adam Frankie Everyman"
      },
      "onsetDateTime": "2011-02-15",
      "recordedDate": "2009-09-02",
      "reaction": [ {
        "manifestation": [ {
          "coding": [ {
            "system": "http://snomed.info/sct",
            "code": "247472004",
            "display": "Hives"
          } ]
        } ],
        "onset": "2009-07-11"
      } ]
    }
  }, {
    "resource": {
      "resourceType": "AllergyIntolerance",
      "id": "2f9b5e55-528e-4bd5-bbb9-4890aece53ac",
      "identifier": [ {
        "use": "official",
        "value": "36e3e930-7b14-11db-9fe1-0800200c9a66"
      } ],
      "clinicalStatus": {
        "coding": [ {
          "system": "http://terminology.hl7.org/CodeSystem/allergyintolerance-clinical",
          "code": "active",
          "display": "Active"
        } ]
      },
      "verificationStatus": {
        "coding": [ {
          "system": "http://terminology.hl7.org/CodeSystem/allergyintolerance-verification",
          "code": "confirmed",
          "display": "Confirmed"
        } ]
      },
      "code": {
        "coding": [ {
          "system": "http://www.nlm.nih.gov/research/umls/rxnorm",
          "code": "2670",
          "display": "Codeine"
        } ],
        "text": "Aspirin"
      },
      "patient": {
        "reference": "Patient/4c938f7f-345f-4008-b6d6-24eff23ba979",
        "display": "Mr. Adam Frankie Everyman"
      },
      "onsetDateTime": "2011-02-15",
      "recordedDate": "2009-09-02",
      "reaction": [ {
        "manifestation": [ {
          "coding": [ {
            "system": "http://snomed.info/sct",
            "code": "73879007",
            "display": "Nausea"
          } ]
        } ],
        "onset": "2009-07-11"
      } ]
    }
  }, {
    "resource": {
      "resourceType": "AllergyIntolerance",
      "id": "de8b1d54-87d5-472e-a18f-ad9abe15a766",
      "identifier": [ {
        "use": "official",
        "value": "36e3e930-7b14-11db-9fe1-0800200c9a66"
      } ],
      "clinicalStatus": {
        "coding": [ {
          "system": "http://terminology.hl7.org/CodeSystem/allergyintolerance-clinical",
          "code": "active",
          "display": "Active"
        } ]
      },
      "verificationStatus": {
        "coding": [ {
          "system": "http://terminology.hl7.org/CodeSystem/allergyintolerance-verification",
          "code": "confirmed",
          "display": "Confirmed"
        } ]
      },
      "code": {
        "coding": [ {
          "system": "http://www.nlm.nih.gov/research/umls/rxnorm",
          "code": "1191",
          "display": "ASPIRIN"
        } ],
        "text": "Aspirin"
      },
      "patient": {
        "reference": "Patient/4c938f7f-345f-4008-b6d6-24eff23ba979",
        "display": "Mr. Adam Frankie Everyman"
      },
      "onsetDateTime": "2011-02-15",
      "recordedDate": "2009-09-02",
      "reaction": [ {
        "manifestation": [ {
          "coding": [ {
            "system": "http://snomed.info/sct",
            "code": "56018004",
            "display": "Wheezing"
          } ]
        } ],
        "onset": "2009-07-11"
      } ]
    }
  }, {
    "resource": {
      "resourceType": "MedicationStatement",
      "id": "cb1a844d-c91b-47bb-b26b-50825757f8fd",
      "extension": [ {
        "url": "http://hl7.org/fhir/3.0/StructureDefinition/extension-MedicationStatement.status",
        "valueCode": "UNKNOWN"
      } ],
      "identifier": [ {
        "use": "official",
        "value": "cdbd33f0-6cde-11db-9fe1-0800200c9a66"
      } ],
      "status": "completed",
      "medicationReference": {
        "reference": "Medication/dfe0affd-cff7-4cc0-b96d-863fc3666177",
        "display": "Albuterol 0.09 MG/ACTUAT inhalant solution"
      },
      "subject": {
        "reference": "Patient/4c938f7f-345f-4008-b6d6-24eff23ba979",
        "display": "Mr. Adam Frankie Everyman"
      },
      "effectivePeriod": {
        "start": "2011-03-01",
        "end": "2012-03-01"
      },
      "reasonReference": [ {
        "reference": "Condition/3775b5f7-5019-4666-b8bd-4ec156f9c89e",
        "display": "Bronchitis"
      } ],
      "dosage": [ {
        "timing": {
          "repeat": {
            "period": 6,
            "periodUnit": "h"
          }
        },
        "route": {
          "coding": [ {
            "system": "http://www.nlm.nih.gov/research/umls/nci",
            "code": "C38216",
            "display": "RESPIRATORY (INHALATION)"
          } ]
        },
        "doseAndRate": [ {
          "doseQuantity": {
            "value": 1,
            "unit": "1",
            "system": "http://unitsofmeasure.org/ucum.html"
          },
          "rateRange": {
            "low": {
              "value": 90,
              "unit": "ml/min",
              "system": "http://unitsofmeasure.org/ucum.html"
            }
          }
        } ]
      } ]
    }
  }, {
    "resource": {
      "resourceType": "Medication",
      "id": "dfe0affd-cff7-4cc0-b96d-863fc3666177",
      "code": {
        "coding": [ {
          "system": "http://www.nlm.nih.gov/research/umls/rxnorm",
          "code": "329498",
          "display": "Albuterol 0.09 MG/ACTUAT inhalant solution"
        }, {
          "system": "http://www.nlm.nih.gov/research/umls/rxnorm",
          "code": "573621",
          "display": "Proventil 0.09 MG/ACTUAT inhalant solution"
        } ]
      }
    }
  }, {
    "resource": {
      "resourceType": "Condition",
      "id": "3775b5f7-5019-4666-b8bd-4ec156f9c89e",
      "identifier": [ {
        "use": "official",
        "system": "urn:uuid:db734647-fc99-424c-a864-7e3cda82e703",
        "value": "45665"
      } ],
      "category": [ {
        "coding": [ {
          "system": "http://hl7.org/fhir/condition-category",
          "code": "problem-list-item",
          "display": "Problem List Item"
        } ]
      } ],
      "code": {
        "coding": [ {
          "system": "http://snomed.info/sct",
          "code": "32398004",
          "display": "Bronchitis"
        } ]
      },
      "subject": {
        "reference": "Patient/4c938f7f-345f-4008-b6d6-24eff23ba979",
        "display": "Mr. Adam Frankie Everyman"
      }
    }
  }, {
    "resource": {
      "resourceType": "MedicationRequest",
      "id": "2602337b-255b-40bc-b791-fcf3fc046e2f",
      "status": "completed",
      "intent": "instance-order",
      "subject": {
        "reference": "Patient/4c938f7f-345f-4008-b6d6-24eff23ba979",
        "display": "Mr. Adam Frankie Everyman"
      },
      "requester": {
        "reference": "Practitioner/bf403358-0575-4568-b9dc-1e28539cf911",
        "display": "Dr. Robert Michaels"
      },
      "dispenseRequest": {
        "validityPeriod": {
          "start": "2002-01-01"
        },
        "numberOfRepeatsAllowed": 1,
        "quantity": {
          "value": 75,
          "unit": "1"
        }
      }
    }
  }, {
    "resource": {
      "resourceType": "Practitioner",
      "id": "bf403358-0575-4568-b9dc-1e28539cf911",
      "identifier": [ {
        "use": "official"
      } ],
      "name": [ {
        "family": "Michaels",
        "given": [ "Robert" ],
        "prefix": [ "Dr." ]
      } ]
    }
  }, {
    "resource": {
      "resourceType": "MedicationDispense",
      "id": "09674b8d-2171-42fc-b648-ba1107887563",
      "identifier": [ {
        "use": "official",
        "system": "urn:oid:1.2.3.4.56789.1",
        "value": "cb734647-fc99-424c-a864-7e3cda82e704"
      } ],
      "status": "completed",
      "subject": {
        "reference": "Patient/4c938f7f-345f-4008-b6d6-24eff23ba979",
        "display": "Mr. Adam Frankie Everyman"
      },
      "performer": [ {
        "actor": {
          "reference": "Practitioner/2eb4d131-783c-4d3a-b1e5-b432052961a0",
          "display": "Dr. Robert Michaels"
        }
      } ],
      "quantity": {
        "value": 75,
        "unit": "1",
        "system": "http://unitsofmeasure.org/ucum.html"
      },
      "whenPrepared": "2002-01-01",
      "dosageInstruction": [ {
        "timing": {
          "event": [ "2002-01-01" ]
        },
        "doseAndRate": [ {
          "doseQuantity": {
            "value": 75,
            "unit": "1",
            "system": "http://unitsofmeasure.org/ucum.html"
          }
        } ]
      } ]
    }
  }, {
    "resource": {
      "resourceType": "Practitioner",
      "id": "2eb4d131-783c-4d3a-b1e5-b432052961a0",
      "identifier": [ {
        "use": "official"
      } ],
      "name": [ {
        "family": "Michaels",
        "given": [ "Robert" ],
        "prefix": [ "Dr." ]
      } ],
      "address": [ {
        "line": [ "17 Daws Rd." ],
        "city": "Blue Bell",
        "state": "MA",
        "postalCode": "02368",
        "country": "US"
      } ]
    }
  }, {
    "resource": {
      "resourceType": "PractitionerRole",
      "id": "c1b2d655-31f6-4b44-8468-912549a2181f",
      "practitioner": {
        "reference": "Practitioner/2eb4d131-783c-4d3a-b1e5-b432052961a0",
        "display": "Dr. Robert Michaels"
      },
      "organization": {
        "reference": "Organization/bd023d99-3116-4d19-828e-f10f3b0ac993",
        "display": "Good Health Clinic"
      }
    }
  } ]
}