{
  "resourceType": "Bundle",
  "entry": [ {
    "resource": {
      "resourceType": "Composition",
      "id": "75905dc9-5f47-4ce8-a917-a4e4040676e8",
      "identifier": {
        "use": "official",
        "system": "urn:oid:2.16.840.1.113883.19",
        "value": "999021"
      },
      "status": "preliminary",
      "type": {
        "coding": [ {
          "system": "http://loinc.org",
          "code": "34117-2",
          "display": "History and Physical Note"
        } ]
      },
      "category": [ {
        "coding": [ {
          "system": "http://hl7.org/fhir/ValueSet/doc-classcodes",
          "code": "LP173421-7",
          "display": "Note"
        } ]
      } ],
      "subject": {
        "reference": "Patient/fac87565-6805-44b1-8c73-d579e3079c3f",
        "display": "Mr. Adam Frankie Everyman"
      },
      "date": "2005-03-29T17:15:04+05:00",
      "author": [ {
        "reference": "Practitioner/7cb4575e-97ef-48b2-b453-d71c9b3912a1",
        "display": "Henry Seven"
      } ],
      "title": "Good Health History & Physical",
      "confidentiality": "N",
      "attester": [ {
        "mode": "legal",
        "time": "2005-03-29T22:44:11+05:00",
        "party": {
          "reference": "Practitioner/f9a156cc-253f-4684-b774-b809b6c723e8",
          "display": "Henry Seven"
        }
      }, {
        "mode": "professional",
        "time": "2005-03-29T22:44:11+05:00",
        "party": {
          "reference": "Practitioner/f9a156cc-253f-4684-b774-b809b6c723e8",
          "display": "Henry Seven"
        }
      } ],
      "custodian": {
        "reference": "Organization/13350897-6691-4d13-8945-404a5e7a76a6",
        "display": "Good Health Clinic"
      },
      "section": [ {
        "title": "MEDICATIONS",
        "code": {
          "coding": [ {
            "system": "http://loinc.org",
            "code": "10160-0",
            "display": "HISTORY OF MEDICATION USE"
          } ]
        },
        "text": {
          "status": "additional",
          "div": "<div xmlns=\"http://www.w3.org/1999/xhtml\"><table border=\"1\" width=\"100%\"><thead><tr><th>Medication</th><th>Directions</th><th>Start Date</th><th>Status</th><th>Indications</th><th>Fill Instructions</th></tr></thead><tbody><tr><td><span>Proventil 0.09 MG/ACTUAT inhalant solution</span></td><td>2 puffs QID PRN wheezing</td><td>2011-03-01</td><td>Active</td><td>Bronchitis (32398004 SNOMED CT)</td><td>Generic Substitition Allowed</td></tr></tbody></table></div>"
        },
        "mode": "snapshot",
        "entry": [ {
          "reference": "MedicationStatement/8220b5d6-1e76-4684-80fe-285733e6355e",
          "display": "Albuterol 0.09 MG/ACTUAT inhalant solution"
        } ]
      }, {
        "title": "ASSESSMENT",
        "code": {
          "coding": [ {
            "system": "http://loinc.org",
            "code": "51848-0",
            "display": "ASSESSMENT"
          } ]
        },
        "text": {
          "status": "additional",
          "div": "<div xmlns=\"http://www.w3.org/1999/xhtml\"><ol><li>Recurrent GI bleed of unknown etiology; hypotension perhaps secondary to this but as likely secondary to polypharmacy.</li><li>Acute on chronic anemia secondary to #1.</li><li>Azotemia, acute renal failure with volume loss secondary to #1.</li><li>Hyperkalemia secondary to #3 and on ACE and K+ supplement.</li><li>Other chronic diagnoses as noted above, currently stable.</li></ol></div>"
        },
        "mode": "snapshot",
        "entry": [ {
          "reference": "ClinicalImpression/cd130e38-ce50-4327-87d3-b064afb280b2",
          "display": "ASSESSMENT"
        } ]
      }, {
        "title": "PLAN OF CARE",
        "code": {
          "coding": [ {
            "system": "http://loinc.org",
            "code": "18776-5",
            "display": "Treatment plan"
          } ]
        },
        "text": {
          "status": "additional",
          "div": "<div xmlns=\"http://www.w3.org/1999/xhtml\"><table border=\"1\" width=\"100%\"><thead><tr><th>Planned Activity</th><th>Planned Date</th></tr></thead><tbody><tr><td>Colonoscopy</td><td>April 21, 2000</td></tr></tbody></table></div>"
        },
        "mode": "snapshot",
        "entry": [ {
          "reference": "CarePlan/4cacc619-15db-49ae-ab6b-7982bd3a8b3d"
        } ]
      }, {
        "title": "SOCIAL HISTORY",
        "code": {
          "coding": [ {
            "system": "http://loinc.org",
            "code": "29762-2",
            "display": "Social History"
          } ]
        },
        "text": {
          "status": "additional",
          "div": "<div xmlns=\"http://www.w3.org/1999/xhtml\"><table border=\"1\" width=\"100%\"><thead><tr><th>Social History Element</th><th>Description</th><th>Effective Dates</th></tr></thead><tbody><tr><td><span/> smoking</td><td>1 pack per day</td><td>1947 - 1972</td></tr><tr><td><span/> smoking</td><td>None</td><td>1973 - </td></tr><tr><td><span/>Alcohol consumption</td><td>None</td><td>1973 - </td></tr></tbody></table></div>"
        },
        "mode": "snapshot",
        "entry": [ {
          "reference": "Observation/2f6de58a-6c5f-4780-8109-66b2f946897a",
          "display": "Cigarette smoking"
        }, {
          "reference": "Observation/1d1df1f7-fbbc-48ac-8816-5ad8b28c121f",
          "display": "Cigarette smoking"
        }, {
          "reference": "Observation/ceea5644-bde4-48ac-9b4d-42945ad5c962",
          "display": "Alcohol consumption"
        } ]
      }, {
        "title": "ALLERGIES, ADVERSE REACTIONS, ALERTS",
        "code": {
          "coding": [ {
            "system": "http://loinc.org",
            "code": "48765-2"
          } ]
        },
        "text": {
          "status": "additional",
          "div": "<div xmlns=\"http://www.w3.org/1999/xhtml\"><table border=\"1\" width=\"100%\"><thead><tr><th>Substance</th><th>Reaction</th><th>Status</th></tr></thead><tbody><tr><td>Penicillin</td><td><span>Hives</span></td><td>Active</td></tr><tr><td>Aspirin</td><td><span>Wheezing</span></td><td>Active</td></tr><tr><td>Codeine</td><td><span>Nausea</span></td><td>Active</td></tr></tbody></table></div>"
        },
        "mode": "snapshot",
        "entry": [ {
          "reference": "AllergyIntolerance/325fb1d0-d28a-4152-8f3a-65202d0d69e1",
          "display": "Aspirin"
        }, {
          "reference": "AllergyIntolerance/c40f928c-e54f-4b91-b832-c31ac61ea57a",
          "display": "Aspirin"
        }, {
          "reference": "AllergyIntolerance/d4498465-721a-40ac-89a7-eb015e7ad233",
          "display": "Penicillin"
        } ]
      }, {
        "title": "FAMILY HISTORY",
        "code": {
          "coding": [ {
            "system": "http://loinc.org",
            "code": "10157-6"
          } ]
        },
        "text": {
          "status": "additional",
          "div": "<div xmlns=\"http://www.w3.org/1999/xhtml\"><p>Father (deceased)</p><table border=\"1\" width=\"100%\"><thead><tr><th>Diagnosis</th><th>Age At Onset</th></tr></thead><tbody><tr><td>Myocardial Infarction (cause of death)</td><td>57</td></tr><tr><td>Diabetes</td><td>40</td></tr></tbody></table></div>"
        },
        "mode": "snapshot",
        "entry": [ {
          "reference": "FamilyMemberHistory/426a07c5-5982-4a49-a7a9-272efa2557e8"
        } ]
      }, {
        "title": "VITAL SIGNS",
        "code": {
          "coding": [ {
            "system": "http://loinc.org",
            "code": "8716-3",
            "display": "VITAL SIGNS"
          } ]
        },
        "text": {
          "status": "additional",
          "div": "<div xmlns=\"http://www.w3.org/1999/xhtml\"><table border=\"1\" width=\"100%\"><thead><tr><th align=\"right\">Date / Time: </th><th>Nov 14, 1999</th><th>April 7, 2000</th></tr></thead><tbody><tr><th align=\"left\">Height</th><td><span>177 cm</span></td><td><span>177 cm</span></td></tr><tr><th align=\"left\">Weight</th><td><span>86 kg</span></td><td><span>88 kg</span></td></tr><tr><th align=\"left\">Blood Pressure</th><td><span>132/86 mmHg</span></td><td><span>145/88 mmHg</span></td></tr></tbody></table></div>"
        },
        "mode": "snapshot",
        "entry": [ {
          "reference": "Observation/1b8abf52-fa17-460b-af6a-de807205da77",
          "display": "Patient Body Weight - Measured"
        }, {
          "reference": "Observation/e1adddce-05c1-4324-b2b6-733e1c5bc25c",
          "display": "Height"
        }, {
          "reference": "Observation/292e798d-9398-40bd-8be4-53257f6da8db",
          "display": "Intravascular Systolic"
        }, {
          "reference": "Observation/75d32816-c9a8-47c4-9276-c28e9d5766a2",
          "display": "Intravascular Systolic"
        }, {
          "reference": "Observation/c5024bbe-5126-48eb-873a-e9a6f75563d5",
          "display": "Height"
        }, {
          "reference": "Observation/9ba3d619-11b1-4ce1-bf17-1a75732d3e11",
          "display": "Patient Body Weight - Measured"
        } ]
      }, {
        "title": "RESULTS",
        "code": {
          "coding": [ {
            "system": "http://loinc.org",
            "code": "30954-2",
            "display": "RESULTS"
          } ]
        },
        "text": {
          "status": "additional",
          "div": "<div xmlns=\"http://www.w3.org/1999/xhtml\"><table><tbody><tr><td colspan=\"2\">LABORATORY INFORMATION</td></tr><tr><td colspan=\"2\">Chemistries and drug levels</td></tr><tr><td><span>HGB (M 13-18 g/dl; F 12-16 g/dl)</span></td><td>13.2</td></tr><tr><td><span>WBC (4.3-10.8 10+3/ul)</span></td><td>6.7</td></tr><tr><td><span>PLT (135-145 meq/l)</span></td><td>123 (L)</td></tr><tr><td colspan=\"2\">Liver Functions and Other Laboratory Values</td></tr><tr><td>ALT (SGPT)</td><td>31.0</td></tr><tr><td>AST (SGOT)</td><td>18.0</td></tr><tr><td>GGT</td><td>28.0 Alk</td></tr><tr><td>Phos</td><td>86.0</td></tr><tr><td>Total Bili</td><td>0.1</td></tr><tr><td>Albumin</td><td>3.2</td></tr><tr><td colspan=\"2\">Blood Count</td></tr><tr><td>White Count</td><td>7.7</td></tr><tr><td>Platelets</td><td>187.0</td></tr><tr><td>Hematocrit</td><td>23.7</td></tr><tr><td>Hemoglobin</td><td>8.1</td></tr><tr><td colspan=\"2\">ELECTROCARDIOGRAM (EKG) INFORMATION</td></tr><tr><td>EKG</td><td>Sinus rhythm without acute changes</td></tr></tbody></table></div>"
        },
        "mode": "snapshot",
        "entry": [ {
          "reference": "DiagnosticReport/d632bdbf-6fe7-44f5-89cc-99598af17a58",
          "display": "CBC WO DIFFERENTIAL"
        } ]
      } ]
    }
  }, {
    "resource": {
      "resourceType": "Patient",
      "id": "fac87565-6805-44b1-8c73-d579e3079c3f",
      "extension": [ {
        "url": "http://hl7.org/fhir/StructureDefinition/patient-religion",
        "valueCodeableConcept": {
          "coding": [ {
            "system": "urn:oid:2.16.840.1.113883.1.11.19185",
            "code": "1013",
            "display": "Christian (non-Catholic, non-specific)"
          } ]
        }
      }, {
        "url": "http://hl7.org/fhir/us/core/StructureDefinition/us-core-race",
        "extension": [ {
          "url": "text",
          "valueString": "White"
        }, {
          "url": "ombCategory",
          "valueCoding": {
            "system": "urn:oid:2.16.840.1.113883.6.238",
            "code": "2106-3",
            "display": "White"
          }
        } ]
      }, {
        "url": "http://hl7.org/fhir/us/core/StructureDefinition/us-core-ethnicity",
        "extension": [ {
          "url": "text",
          "valueString": "Not Hispanic or Latino"
        }, {
          "url": "ombCategory",
          "valueCoding": {
            "system": "urn:oid:2.16.840.1.113883.6.238",
            "code": "2186-5",
            "display": "Not Hispanic or Latino"
          }
        } ]
      }, {
        "url": "http://hl7.org/fhir/StructureDefinition/patient-birthPlace",
        "valueAddress": {
          "state": "MA",
          "postalCode": "02368",
          "country": "USA"
        }
      } ],
      "identifier": [ {
        "use": "official",
        "system": "urn:oid:2.16.840.1.113883.19",
        "value": "12345"
      }, {
        "use": "official",
        "system": "urn:oid:2.16.840.1.113883.4.1",
        "value": "111-00-1234"
      } ],
      "name": [ {
        "use": "usual",
        "family": "Everyman",
        "given": [ "Adam", "Frankie" ],
        "prefix": [ "Mr." ]
      } ],
      "telecom": [ {
        "system": "phone",
        "value": "(781)555-1212",
        "use": "home"
      } ],
      "gender": "male",
      "birthDate": "1954-11-25",
      "address": [ {
        "use": "home",
        "line": [ "17 Daws Rd." ],
        "city": "Blue Bell",
        "state": "MA",
        "postalCode": "02368",
        "country": "US"
      } ],
      "maritalStatus": {
        "coding": [ {
          "system": "http://terminology.hl7.org/CodeSystem/v3-MaritalStatus",
          "code": "M",
          "display": "Married"
        } ]
      },
      "contact": [ {
        "relationship": [ {
          "coding": [ {
            "system": "http://terminology.hl7.org/CodeSystem/v2-0131",
            "code": "O",
            "display": "Other"
          } ]
        } ],
        "name": {
          "family": "Relative",
          "given": [ "Ralph" ]
        },
        "telecom": [ {
          "system": "phone",
          "value": "(781)555-1212",
          "use": "home"
        } ],
        "address": {
          "use": "home",
          "line": [ "17 Daws Rd." ],
          "city": "Blue Bell",
          "state": "MA",
          "postalCode": "02368",
          "country": "US"
        }
      } ],
      "communication": [ {
        "language": {
          "coding": [ {
            "system": "urn:ietf:bcp:47",
            "code": "fr-CN"
          } ]
        },
        "preferred": true
      } ],
      "managingOrganization": {
        "reference": "Organization/edd5b143-da9d-4995-bceb-e069ae8eab61",
        "display": "Good Health Clinic"
      }
    }
  }, {
    "resource": {
      "resourceType": "Organization",
      "id": "edd5b143-da9d-4995-bceb-e069ae8eab61",
      "identifier": [ {
        "use": "official",
        "value": "2.16.840.1.113883.19"
      } ],
      "name": "Good Health Clinic",
      "telecom": [ {
        "system": "phone",
        "value": "(781)555-1212",
        "use": "work"
      } ],
      "address": [ {
        "line": [ "21 North Ave" ],
        "city": "Burlington",
        "state": "MA",
        "postalCode": "02368",
        "country": "USA"
      } ]
    }
  }, {
    "resource": {
      "resourceType": "Practitioner",
      "id": "7cb4575e-97ef-48b2-b453-d71c9b3912a1",
      "identifier": [ {
        "use": "official",
        "system": "urn:oid:2.16.840.1.113883.19.5",
        "value": "KP00017"
      } ],
      "name": [ {
        "family": "Seven",
        "given": [ "Henry" ]
      } ],
      "telecom": [ {
        "system": "phone",
        "value": "(555)555-1003",
        "use": "work"
      } ],
      "address": [ {
        "line": [ "21 North Ave." ],
        "city": "Burlington",
        "state": "MA",
        "postalCode": "02368",
        "country": "USA"
      } ]
    }
  }, {
    "resource": {
      "resourceType": "Practitioner",
      "id": "f9a156cc-253f-4684-b774-b809b6c723e8",
      "identifier": [ {
        "use": "official",
        "system": "urn:oid:2.16.840.1.113883.19",
        "value": "KP00017"
      } ],
      "name": [ {
        "family": "Seven",
        "given": [ "Henry" ]
      } ],
      "telecom": [ {
        "system": "phone",
        "value": "(555)555-1003",
        "use": "work"
      } ],
      "address": [ {
        "line": [ "21 North Ave." ],
        "city": "Burlington",
        "state": "MA",
        "postalCode": "02368",
        "country": "USA"
      } ]
    }
  }, {
    "resource": {
      "resourceType": "Organization",
      "id": "13350897-6691-4d13-8945-404a5e7a76a6",
      "identifier": [ {
        "use": "official",
        "value": "2.16.840.1.113883.19.5"
      } ],
      "name": "Good Health Clinic",
      "telecom": [ {
        "system": "phone",
        "value": "(555)555-1212",
        "use": "work"
      } ],
      "address": [ {
        "use": "work",
        "line": [ "17 Daws Rd." ],
        "city": "Blue Bell",
        "state": "MA",
        "postalCode": "02368",
        "country": "USA"
      } ]
    }
  }, {
    "resource": {
      "resourceType": "MedicationStatement",
      "id": "8220b5d6-1e76-4684-80fe-285733e6355e",
      "extension": [ {
        "url": "http://hl7.org/fhir/3.0/StructureDefinition/extension-MedicationStatement.status",
        "valueCode": "UNKNOWN"
      } ],
      "identifier": [ {
        "use": "official",
        "value": "cdbd33f0-6cde-11db-9fe1-0800200c9a66"
      } ],
      "status": "completed",
      "medicationReference": {
        "reference": "Medication/a23efca1-66c3-4677-8fb8-9eb21817870c",
        "display": "Albuterol 0.09 MG/ACTUAT inhalant solution"
      },
      "subject": {
        "reference": "Patient/fac87565-6805-44b1-8c73-d579e3079c3f",
        "display": "Mr. Adam Frankie Everyman"
      },
      "effectivePeriod": {
        "start": "2011-03-01",
        "end": "2012-03-01"
      },
      "reasonReference": [ {
        "reference": "Condition/350c6f5d-50aa-4788-b179-13a2cbc23810",
        "display": "Bronchitis"
      } ],
      "dosage": [ {
        "timing": {
          "repeat": {
            "period": 6,
            "periodUnit": "h"
          }
        },
        "route": {
          "coding": [ {
            "system": "http://www.nlm.nih.gov/research/umls/nci",
            "code": "C38216",
            "display": "RESPIRATORY (INHALATION)"
          } ]
        },
        "doseAndRate": [ {
          "doseQuantity": {
            "value": 1,
            "unit": "1",
            "system": "http://unitsofmeasure.org/ucum.html"
          },
          "rateRange": {
            "low": {
              "value": 90,
              "unit": "ml/min",
              "system": "http://unitsofmeasure.org/ucum.html"
            }
          }
        } ]
      } ]
    }
  }, {
    "resource": {
      "resourceType": "Medication",
      "id": "a23efca1-66c3-4677-8fb8-9eb21817870c",
      "code": {
        "coding": [ {
          "system": "http://www.nlm.nih.gov/research/umls/rxnorm",
          "code": "329498",
          "display": "Albuterol 0.09 MG/ACTUAT inhalant solution"
        }, {
          "system": "http://www.nlm.nih.gov/research/umls/rxnorm",
          "code": "573621",
          "display": "Proventil 0.09 MG/ACTUAT inhalant solution"
        } ]
      }
    }
  }, {
    "resource": {
      "resourceType": "Condition",
      "id": "350c6f5d-50aa-4788-b179-13a2cbc23810",
      "identifier": [ {
        "use": "official",
        "system": "urn:uuid:db734647-fc99-424c-a864-7e3cda82e703",
        "value": "45665"
      } ],
      "category": [ {
        "coding": [ {
          "system": "http://hl7.org/fhir/condition-category",
          "code": "problem-list-item",
          "display": "Problem List Item"
        } ]
      } ],
      "code": {
        "coding": [ {
          "system": "http://snomed.info/sct",
          "code": "32398004",
          "display": "Bronchitis"
        } ]
      },
      "subject": {
        "reference": "Patient/fac87565-6805-44b1-8c73-d579e3079c3f",
        "display": "Mr. Adam Frankie Everyman"
      }
    }
  }, {
    "resource": {
      "resourceType": "MedicationRequest",
      "id": "6608cc42-a728-4924-8dd9-b7fbd9dd6184",
      "status": "completed",
      "intent": "instance-order",
      "subject": {
        "reference": "Patient/fac87565-6805-44b1-8c73-d579e3079c3f",
        "display": "Mr. Adam Frankie Everyman"
      },
      "requester": {
        "reference": "Practitioner/d1fde621-c52a-40fc-b1f0-8dce29dd2d86",
        "display": "Dr. Robert Michaels"
      },
      "dispenseRequest": {
        "validityPeriod": {
          "start": "2002-01-01"
        },
        "numberOfRepeatsAllowed": 1,
        "quantity": {
          "value": 75,
          "unit": "1"
        }
      }
    }
  }, {
    "resource": {
      "resourceType": "Practitioner",
      "id": "d1fde621-c52a-40fc-b1f0-8dce29dd2d86",
      "identifier": [ {
        "use": "official"
      } ],
      "name": [ {
        "family": "Michaels",
        "given": [ "Robert" ],
        "prefix": [ "Dr." ]
      } ]
    }
  }, {
    "resource": {
      "resourceType": "MedicationDispense",
      "id": "50018421-a239-4a43-a1a2-0eaa3fa69877",
      "identifier": [ {
        "use": "official",
        "system": "urn:oid:1.2.3.4.56789.1",
        "value": "cb734647-fc99-424c-a864-7e3cda82e704"
      } ],
      "status": "completed",
      "subject": {
        "reference": "Patient/fac87565-6805-44b1-8c73-d579e3079c3f",
        "display": "Mr. Adam Frankie Everyman"
      },
      "performer": [ {
        "actor": {
          "reference": "Practitioner/2bd08f3e-08e3-43f6-94c1-f5d128d58593",
          "display": "Dr. Robert Michaels"
        }
      } ],
      "quantity": {
        "value": 75,
        "unit": "1",
        "system": "http://unitsofmeasure.org/ucum.html"
      },
      "whenPrepared": "2002-01-01",
      "dosageInstruction": [ {
        "timing": {
          "event": [ "2002-01-01" ]
        },
        "doseAndRate": [ {
          "doseQuantity": {
            "value": 75,
            "unit": "1",
            "system": "http://unitsofmeasure.org/ucum.html"
          }
        } ]
      } ]
    }
  }, {
    "resource": {
      "resourceType": "Practitioner",
      "id": "2bd08f3e-08e3-43f6-94c1-f5d128d58593",
      "identifier": [ {
        "use": "official"
      } ],
      "name": [ {
        "family": "Michaels",
        "given": [ "Robert" ],
        "prefix": [ "Dr." ]
      } ],
      "address": [ {
        "line": [ "17 Daws Rd." ],
        "city": "Blue Bell",
        "state": "MA",
        "postalCode": "02368",
        "country": "US"
      } ]
    }
  }, {
    "resource": {
      "resourceType": "PractitionerRole",
      "id": "1e42353c-e19c-4725-b53c-5efbe54084c8",
      "practitioner": {
        "reference": "Practitioner/2bd08f3e-08e3-43f6-94c1-f5d128d58593",
        "display": "Dr. Robert Michaels"
      },
      "organization": {
        "reference": "Organization/13350897-6691-4d13-8945-404a5e7a76a6",
        "display": "Good Health Clinic"
      }
    }
  }, {
    "resource": {
      "resourceType": "ClinicalImpression",
      "id": "cd130e38-ce50-4327-87d3-b064afb280b2",
      "status": "completed",
      "code": {
        "coding": [ {
          "system": "http://loinc.org",
          "code": "51848-0",
          "display": "ASSESSMENT"
        } ]
      },
      "subject": {
        "reference": "Patient/fac87565-6805-44b1-8c73-d579e3079c3f",
        "display": "Mr. Adam Frankie Everyman"
      }
    }
  }, {
    "resource": {
      "resourceType": "CarePlan",
      "id": "4cacc619-15db-49ae-ab6b-7982bd3a8b3d",
      "text": {
        "status": "additional",
        "div": "<div xmlns=\"http://www.w3.org/1999/xhtml\"><table border=\"1\" width=\"100%\"><thead><tr><th>Planned Activity</th><th>Planned Date</th></tr></thead><tbody><tr><td>Colonoscopy</td><td>April 21, 2000</td></tr></tbody></table></div>"
      },
      "status": "active",
      "intent": "plan",
      "category": [ {
        "coding": [ {
          "system": "http://hl7.org/fhir/us/core/CodeSystem/careplan-category",
          "code": "assess-plan"
        } ]
      } ],
      "title": "PLAN OF CARE",
      "description": "<div><table border=\"1\" width=\"100%\"><thead><tr><th>Planned Activity</th><th>Planned Date</th></tr></thead><tbody><tr><td>Colonoscopy</td><td>April 21, 2000</td></tr></tbody></table></div>",
      "subject": {
        "reference": "Patient/fac87565-6805-44b1-8c73-d579e3079c3f",
        "display": "Mr. Adam Frankie Everyman"
      },
      "activity": [ {
        "reference": {
          "reference": "ServiceRequest/e32f0fac-1a21-4427-b847-5052e1b7d1d0",
          "display": "Colonoscopy"
        }
      } ]
    }
  }, {
    "resource": {
      "resourceType": "ServiceRequest",
      "id": "e32f0fac-1a21-4427-b847-5052e1b7d1d0",
      "identifier": [ {
        "use": "official",
        "value": "9a6d1bac-17d3-4195-89a4-1121bc809a5c"
      } ],
      "status": "active",
      "intent": "plan",
      "code": {
        "coding": [ {
          "system": "http://snomed.info/sct",
          "code": "310634005",
          "display": "Colonoscopy"
        } ]
      },
      "subject": {
        "reference": "Patient/fac87565-6805-44b1-8c73-d579e3079c3f",
        "display": "Mr. Adam Frankie Everyman"
      }
    }
  }, {
    "resource": {
      "resourceType": "Observation",
      "id": "2f6de58a-6c5f-4780-8109-66b2f946897a",
      "identifier": [ {
        "use": "official",
        "value": "45efb604-7049-4a2e-ad33-d38556c9636c"
      } ],
      "status": "final",
      "code": {
        "coding": [ {
          "system": "http://snomed.info/sct",
          "code": "230056004",
          "display": "Cigarette smoking"
        } ]
      },
      "subject": {
        "reference": "Patient/fac87565-6805-44b1-8c73-d579e3079c3f",
        "display": "Mr. Adam Frankie Everyman"
      },
      "effectivePeriod": {
        "start": "1973"
      },
      "valueString": "None"
    }
  }, {
    "resource": {
      "resourceType": "Observation",
      "id": "1d1df1f7-fbbc-48ac-8816-5ad8b28c121f",
      "identifier": [ {
        "use": "official",
        "value": "9b56c25d-9104-45ee-9fa4-e0f3afaa01c1"
      } ],
      "status": "final",
      "code": {
        "coding": [ {
          "system": "http://snomed.info/sct",
          "code": "230056004",
          "display": "Cigarette smoking"
        } ]
      },
      "subject": {
        "reference": "Patient/fac87565-6805-44b1-8c73-d579e3079c3f",
        "display": "Mr. Adam Frankie Everyman"
      },
      "effectivePeriod": {
        "start": "1947",
        "end": "1972"
      },
      "valueString": "1 pack per day"
    }
  }, {
    "resource": {
      "resourceType": "Observation",
      "id": "ceea5644-bde4-48ac-9b4d-42945ad5c962",
      "identifier": [ {
        "use": "official",
        "value": "37f76c51-6411-4e1d-8a37-957fd49d2cef"
      } ],
      "status": "final",
      "code": {
        "coding": [ {
          "system": "http://snomed.info/sct",
          "code": "160573003",
          "display": "Alcohol consumption"
        } ]
      },
      "subject": {
        "reference": "Patient/fac87565-6805-44b1-8c73-d579e3079c3f",
        "display": "Mr. Adam Frankie Everyman"
      },
      "effectivePeriod": {
        "start": "1973"
      },
      "valueString": "None"
    }
  }, {
    "resource": {
      "resourceType": "AllergyIntolerance",
      "id": "325fb1d0-d28a-4152-8f3a-65202d0d69e1",
      "identifier": [ {
        "use": "official",
        "value": "36e3e930-7b14-11db-9fe1-0800200c9a66"
      } ],
      "clinicalStatus": {
        "coding": [ {
          "system": "http://terminology.hl7.org/CodeSystem/allergyintolerance-clinical",
          "code": "active",
          "display": "Active"
        } ]
      },
      "verificationStatus": {
        "coding": [ {
          "system": "http://terminology.hl7.org/CodeSystem/allergyintolerance-verification",
          "code": "confirmed",
          "display": "Confirmed"
        } ]
      },
      "code": {
        "coding": [ {
          "system": "http://www.nlm.nih.gov/research/umls/rxnorm",
          "code": "2670",
          "display": "Codeine"
        } ],
        "text": "Aspirin"
      },
      "patient": {
        "reference": "Patient/fac87565-6805-44b1-8c73-d579e3079c3f",
        "display": "Mr. Adam Frankie Everyman"
      },
      "onsetDateTime": "2011-02-15",
      "recordedDate": "2009-09-02",
      "reaction": [ {
        "manifestation": [ {
          "coding": [ {
            "system": "http://snomed.info/sct",
            "code": "73879007",
            "display": "Nausea"
          } ]
        } ],
        "onset": "2009-07-11"
      } ]
    }
  }, {
    "resource": {
      "resourceType": "AllergyIntolerance",
      "id": "c40f928c-e54f-4b91-b832-c31ac61ea57a",
      "identifier": [ {
        "use": "official",
        "value": "36e3e930-7b14-11db-9fe1-0800200c9a66"
      } ],
      "clinicalStatus": {
        "coding": [ {
          "system": "http://terminology.hl7.org/CodeSystem/allergyintolerance-clinical",
          "code": "active",
          "display": "Active"
        } ]
      },
      "verificationStatus": {
        "coding": [ {
          "system": "http://terminology.hl7.org/CodeSystem/allergyintolerance-verification",
          "code": "confirmed",
          "display": "Confirmed"
        } ]
      },
      "code": {
        "coding": [ {
          "system": "http://www.nlm.nih.gov/research/umls/rxnorm",
          "code": "1191",
          "display": "ASPIRIN"
        } ],
        "text": "Aspirin"
      },
      "patient": {
        "reference": "Patient/fac87565-6805-44b1-8c73-d579e3079c3f",
        "display": "Mr. Adam Frankie Everyman"
      },
      "onsetDateTime": "2011-02-15",
      "recordedDate": "2009-09-02",
      "reaction": [ {
        "manifestation": [ {
          "coding": [ {
            "system": "http://snomed.info/sct",
            "code": "56018004",
            "display": "Wheezing"
          } ]
        } ],
        "onset": "2009-07-11"
      } ]
    }
  }, {
    "resource": {
      "resourceType": "AllergyIntolerance",
      "id": "d4498465-721a-40ac-89a7-eb015e7ad233",
      "identifier": [ {
        "use": "official",
        "value": "36e3e930-7b14-11db-9fe1-0800200c9a66"
      } ],
      "clinicalStatus": {
        "coding": [ {
          "system": "http://terminology.hl7.org/CodeSystem/allergyintolerance-clinical",
          "code": "active",
          "display": "Active"
        } ]
      },
      "verificationStatus": {
        "coding": [ {
          "system": "http://terminology.hl7.org/CodeSystem/allergyintolerance-verification",
          "code": "confirmed",
          "display": "Confirmed"
        } ]
      },
      "code": {
        "coding": [ {
          "system": "http://www.nlm.nih.gov/research/umls/rxnorm",
          "code": "314422",
          "display": "ALLERGENIC EXTRACT, PENICILLIN"
        } ],
        "text": "Penicillin"
      },
      "patient": {
        "reference": "Patient/fac87565-6805-44b1-8c73-d579e3079c3f",
        "display": "Mr. Adam Frankie Everyman"
      },
      "onsetDateTime": "2011-02-15",
      "recordedDate": "2009-09-02",
      "reaction": [ {
        "manifestation": [ {
          "coding": [ {
            "system": "http://snomed.info/sct",
            "code": "247472004",
            "display": "Hives"
          } ]
        } ],
        "onset": "2009-07-11"
      } ]
    }
  }, {
    "resource": {
      "resourceType": "FamilyMemberHistory",
      "id": "426a07c5-5982-4a49-a7a9-272efa2557e8",
      "status": "completed",
      "patient": {
        "reference": "Patient/fac87565-6805-44b1-8c73-d579e3079c3f",
        "display": "Mr. Adam Frankie Everyman"
      },
      "relationship": {
        "coding": [ {
          "system": "urn:oid:2.16.840.1.113883.5.111",
          "code": "FTH",
          "display": "Father"
        }, {
          "system": "http://snomed.info/sct",
          "code": "9947008",
          "display": "Biological father"
        } ]
      },
      "sex": {
        "coding": [ {
          "system": "http://hl7.org/fhir/administrative-gender",
          "code": "male",
          "display": "Male"
        } ]
      },
      "bornDate": "1912",
      "deceasedBoolean": true,
      "condition": [ {
        "code": {
          "coding": [ {
            "system": "http://snomed.info/sct",
            "code": "22298006",
            "display": "Myocardial infarction"
          } ]
        },
        "outcome": {
          "coding": [ {
            "system": "http://snomed.info/sct",
            "code": "419099009",
            "display": "Dead"
          } ]
        },
        "onsetAge": {
          "value": 57,
          "unit": "a",
          "system": "http://unitsofmeasure.org"
        }
      }, {
        "code": {
          "coding": [ {
            "system": "http://snomed.info/sct",
            "code": "46635009",
            "display": "Diabetes mellitus type 1"
          } ]
        },
        "onsetAge": {
          "value": 40,
          "unit": "a",
          "system": "http://unitsofmeasure.org"
        }
      } ]
    }
  }, {
    "resource": {
      "resourceType": "Observation",
      "id": "1b8abf52-fa17-460b-af6a-de807205da77",
      "identifier": [ {
        "use": "official",
        "value": "c6f88321-67ad-11db-bd13-0800200c9a66"
      } ],
      "status": "final",
      "category": [ {
        "coding": [ {
          "system": "http://terminology.hl7.org/CodeSystem/observation-category",
          "code": "vital-signs",
          "display": "Vital Signs"
        } ]
      } ],
      "code": {
        "coding": [ {
          "system": "http://loinc.org",
          "code": "3141-9",
          "display": "Patient Body Weight - Measured"
        } ]
      },
      "subject": {
        "reference": "Patient/fac87565-6805-44b1-8c73-d579e3079c3f",
        "display": "Mr. Adam Frankie Everyman"
      },
      "effectivePeriod": {
        "start": "1999-11-14"
      },
      "valueQuantity": {
        "value": 86,
        "unit": "kg",
        "system": "http://unitsofmeasure.org",
        "code": "kg"
      },
      "interpretation": [ {
        "coding": [ {
          "system": "http://terminology.hl7.org/CodeSystem/v3-ObservationInterpretation",
          "code": "N"
        } ]
      } ]
    }
  }, {
    "resource": {
      "resourceType": "Observation",
      "id": "e1adddce-05c1-4324-b2b6-733e1c5bc25c",
      "identifier": [ {
        "use": "official",
        "value": "c6f88321-67ad-11db-bd13-0800200c9a66"
      } ],
      "status": "final",
      "category": [ {
        "coding": [ {
          "system": "http://terminology.hl7.org/CodeSystem/observation-category",
          "code": "vital-signs",
          "display": "Vital Signs"
        } ]
      } ],
      "code": {
        "coding": [ {
          "system": "http://loinc.org",
          "code": "8302-2",
          "display": "Height"
        } ]
      },
      "subject": {
        "reference": "Patient/fac87565-6805-44b1-8c73-d579e3079c3f",
        "display": "Mr. Adam Frankie Everyman"
      },
      "effectivePeriod": {
        "start": "1999-11-14"
      },
      "valueQuantity": {
        "value": 177,
        "unit": "cm",
        "system": "http://unitsofmeasure.org",
        "code": "cm"
      },
      "interpretation": [ {
        "coding": [ {
          "system": "http://terminology.hl7.org/CodeSystem/v3-ObservationInterpretation",
          "code": "N"
        } ]
      } ]
    }
  }, {
    "resource": {
      "resourceType": "Observation",
      "id": "292e798d-9398-40bd-8be4-53257f6da8db",
      "identifier": [ {
        "use": "official",
        "value": "c6f88321-67ad-11db-bd13-0800200c9a66"
      } ],
      "status": "final",
      "category": [ {
        "coding": [ {
          "system": "http://terminology.hl7.org/CodeSystem/observation-category",
          "code": "vital-signs",
          "display": "Vital Signs"
        } ]
      } ],
      "code": {
        "coding": [ {
          "system": "http://loinc.org",
          "code": "8480-6",
          "display": "Intravascular Systolic"
        } ]
      },
      "subject": {
        "reference": "Patient/fac87565-6805-44b1-8c73-d579e3079c3f",
        "display": "Mr. Adam Frankie Everyman"
      },
      "effectivePeriod": {
        "start": "1999-11-14"
      },
      "valueQuantity": {
        "value": 132,
        "unit": "mm[Hg]",
        "system": "http://unitsofmeasure.org",
        "code": "mm[Hg]"
      },
      "interpretation": [ {
        "coding": [ {
          "system": "http://terminology.hl7.org/CodeSystem/v3-ObservationInterpretation",
          "code": "N"
        } ]
      } ]
    }
  }, {
    "resource": {
      "resourceType": "Observation",
      "id": "75d32816-c9a8-47c4-9276-c28e9d5766a2",
      "identifier": [ {
        "use": "official",
        "value": "c6f88321-67ad-11db-bd13-0800200c9a66"
      } ],
      "status": "final",
      "category": [ {
        "coding": [ {
          "system": "http://terminology.hl7.org/CodeSystem/observation-category",
          "code": "vital-signs",
          "display": "Vital Signs"
        } ]
      } ],
      "code": {
        "coding": [ {
          "system": "http://loinc.org",
          "code": "8480-6",
          "display": "Intravascular Systolic"
        } ]
      },
      "subject": {
        "reference": "Patient/fac87565-6805-44b1-8c73-d579e3079c3f",
        "display": "Mr. Adam Frankie Everyman"
      },
      "effectivePeriod": {
        "start": "2000-04-07"
      },
      "valueQuantity": {
        "value": 145,
        "unit": "mm[Hg]",
        "system": "http://unitsofmeasure.org",
        "code": "mm[Hg]"
      },
      "interpretation": [ {
        "coding": [ {
          "system": "http://terminology.hl7.org/CodeSystem/v3-ObservationInterpretation",
          "code": "N"
        } ]
      } ]
    }
  }, {
    "resource": {
      "resourceType": "Observation",
      "id": "c5024bbe-5126-48eb-873a-e9a6f75563d5",
      "identifier": [ {
        "use": "official",
        "value": "c6f88321-67ad-11db-bd13-0800200c9a66"
      } ],
      "status": "final",
      "category": [ {
        "coding": [ {
          "system": "http://terminology.hl7.org/CodeSystem/observation-category",
          "code": "vital-signs",
          "display": "Vital Signs"
        } ]
      } ],
      "code": {
        "coding": [ {
          "system": "http://loinc.org",
          "code": "8302-2",
          "display": "Height"
        } ]
      },
      "subject": {
        "reference": "Patient/fac87565-6805-44b1-8c73-d579e3079c3f",
        "display": "Mr. Adam Frankie Everyman"
      },
      "effectivePeriod": {
        "start": "2000-04-07"
      },
      "valueQuantity": {
        "value": 177,
        "unit": "cm",
        "system": "http://unitsofmeasure.org",
        "code": "cm"
      },
      "interpretation": [ {
        "coding": [ {
          "system": "http://terminology.hl7.org/CodeSystem/v3-ObservationInterpretation",
          "code": "N"
        } ]
      } ]
    }
  }, {
    "resource": {
      "resourceType": "Observation",
      "id": "9ba3d619-11b1-4ce1-bf17-1a75732d3e11",
      "identifier": [ {
        "use": "official",
        "value": "c6f88321-67ad-11db-bd13-0800200c9a66"
      } ],
      "status": "final",
      "category": [ {
        "coding": [ {
          "system": "http://terminology.hl7.org/CodeSystem/observation-category",
          "code": "vital-signs",
          "display": "Vital Signs"
        } ]
      } ],
      "code": {
        "coding": [ {
          "system": "http://loinc.org",
          "code": "3141-9",
          "display": "Patient Body Weight - Measured"
        } ]
      },
      "subject": {
        "reference": "Patient/fac87565-6805-44b1-8c73-d579e3079c3f",
        "display": "Mr. Adam Frankie Everyman"
      },
      "effectivePeriod": {
        "start": "2000-04-07"
      },
      "valueQuantity": {
        "value": 88,
        "unit": "kg",
        "system": "http://unitsofmeasure.org",
        "code": "kg"
      },
      "interpretation": [ {
        "coding": [ {
          "system": "http://terminology.hl7.org/CodeSystem/v3-ObservationInterpretation",
          "code": "N"
        } ]
      } ]
    }
  }, {
    "resource": {
      "resourceType": "DiagnosticReport",
      "id": "d632bdbf-6fe7-44f5-89cc-99598af17a58",
      "identifier": [ {
        "use": "official",
        "value": "7d5a02b0-67a4-11db-bd13-0800200c9a66"
      } ],
      "status": "final",
      "category": [ {
        "coding": [ {
          "system": "http://terminology.hl7.org/CodeSystem/v2-0074",
          "code": "LAB",
          "display": "Laboratory"
        } ]
      } ],
      "code": {
        "coding": [ {
          "system": "http://snomed.info/sct",
          "code": "43789009",
          "display": "CBC WO DIFFERENTIAL"
        } ]
      },
      "subject": {
        "reference": "Patient/fac87565-6805-44b1-8c73-d579e3079c3f",
        "display": "Mr. Adam Frankie Everyman"
      },
      "result": [ {
        "reference": "Observation/85b7dd38-75bb-45cf-beba-a02ba35b8f6c",
        "display": "PLT (135-145 meq/l)"
      }, {
        "reference": "Observation/0b8de705-e6e7-43fc-9092-7801e72d3daa",
        "display": "HGB (M 13-18 g/dl; F 12-16 g/dl)"
      }, {
        "reference": "Observation/94192a85-39f3-4f4b-8cc1-eee22bd5f99a",
        "display": "WBC (4.3-10.8 10+3/ul)"
      } ]
    }
  }, {
    "resource": {
      "resourceType": "Observation",
      "id": "85b7dd38-75bb-45cf-beba-a02ba35b8f6c",
      "identifier": [ {
        "use": "official",
        "value": "107c2dc0-67a5-11db-bd13-0800200c9a66"
      } ],
      "status": "final",
      "category": [ {
        "coding": [ {
          "system": "http://terminology.hl7.org/CodeSystem/observation-category",
          "code": "laboratory"
        } ]
      } ],
      "code": {
        "coding": [ {
          "system": "http://loinc.org",
          "code": "26515-7",
          "display": "PLT"
        } ],
        "text": "PLT (135-145 meq/l)"
      },
      "subject": {
        "reference": "Patient/fac87565-6805-44b1-8c73-d579e3079c3f",
        "display": "Mr. Adam Frankie Everyman"
      },
      "effectivePeriod": {
        "start": "2000-03-23T14:30:00+01:00"
      },
      "performer": [ {
        "reference": "Practitioner/3a3f20b9-2067-48dd-baaa-f904399f0bbc"
      } ],
      "valueQuantity": {
        "value": 123,
        "unit": "10+3/ul",
        "system": "http://unitsofmeasure.org",
        "code": "10+3/ul"
      },
      "interpretation": [ {
        "coding": [ {
          "system": "http://terminology.hl7.org/CodeSystem/v3-ObservationInterpretation",
          "code": "L"
        } ]
      } ],
      "referenceRange": [ {
        "low": {
          "value": 150,
          "unit": "10+3/ul",
          "system": "http://unitsofmeasure.org/ucum.html"
        },
        "high": {
          "value": 350,
          "unit": "10+3/ul",
          "system": "http://unitsofmeasure.org/ucum.html"
        }
      } ]
    }
  }, {
    "resource": {
      "resourceType": "Practitioner",
      "id": "3a3f20b9-2067-48dd-baaa-f904399f0bbc",
      "identifier": [ {
        "use": "official"
      } ]
    }
  }, {
    "resource": {
      "resourceType": "Observation",
      "id": "0b8de705-e6e7-43fc-9092-7801e72d3daa",
      "identifier": [ {
        "use": "official",
        "value": "107c2dc0-67a5-11db-bd13-0800200c9a66"
      } ],
      "status": "final",
      "category": [ {
        "coding": [ {
          "system": "http://terminology.hl7.org/CodeSystem/observation-category",
          "code": "laboratory"
        } ]
      } ],
      "code": {
        "coding": [ {
          "system": "http://loinc.org",
          "code": "30313-1",
          "display": "HGB"
        } ],
        "text": "HGB (M 13-18 g/dl; F 12-16 g/dl)"
      },
      "subject": {
        "reference": "Patient/fac87565-6805-44b1-8c73-d579e3079c3f",
        "display": "Mr. Adam Frankie Everyman"
      },
      "effectivePeriod": {
        "start": "2000-03-23T14:30:00+01:00"
      },
      "performer": [ {
        "reference": "Practitioner/4c6212c1-7e49-4024-89c0-1c20642b0a20"
      } ],
      "valueQuantity": {
        "value": 13.2,
        "unit": "g/dl",
        "system": "http://unitsofmeasure.org",
        "code": "g/dl"
      },
      "interpretation": [ {
        "coding": [ {
          "system": "http://terminology.hl7.org/CodeSystem/v3-ObservationInterpretation",
          "code": "N"
        } ]
      } ],
      "referenceRange": [ {
        "text": "M 13-18 g/dl; F 12-16 g/dl"
      } ]
    }
  }, {
    "resource": {
      "resourceType": "Practitioner",
      "id": "4c6212c1-7e49-4024-89c0-1c20642b0a20",
      "identifier": [ {
        "use": "official"
      } ]
    }
  }, {
    "resource": {
      "resourceType": "Observation",
      "id": "94192a85-39f3-4f4b-8cc1-eee22bd5f99a",
      "identifier": [ {
        "use": "official",
        "value": "107c2dc0-67a5-11db-bd13-0800200c9a66"
      } ],
      "status": "final",
      "category": [ {
        "coding": [ {
          "system": "http://terminology.hl7.org/CodeSystem/observation-category",
          "code": "laboratory"
        } ]
      } ],
      "code": {
        "coding": [ {
          "system": "http://loinc.org",
          "code": "33765-9",
          "display": "WBC"
        } ],
        "text": "WBC (4.3-10.8 10+3/ul)"
      },
      "subject": {
        "reference": "Patient/fac87565-6805-44b1-8c73-d579e3079c3f",
        "display": "Mr. Adam Frankie Everyman"
      },
      "effectivePeriod": {
        "start": "2000-03-23T14:30:00+01:00"
      },
      "performer": [ {
        "reference": "Practitioner/728aec23-7b24-4c59-ae9a-abe0c28c1f22"
      } ],
      "valueQuantity": {
        "value": 6.7,
        "unit": "10+3/ul",
        "system": "http://unitsofmeasure.org",
        "code": "10+3/ul"
      },
      "interpretation": [ {
        "coding": [ {
          "system": "http://terminology.hl7.org/CodeSystem/v3-ObservationInterpretation",
          "code": "N"
        } ]
      } ],
      "referenceRange": [ {
        "low": {
          "value": 4.3,
          "unit": "10+3/ul",
          "system": "http://unitsofmeasure.org/ucum.html"
        },
        "high": {
          "value": 10.8,
          "unit": "10+3/ul",
          "system": "http://unitsofmeasure.org/ucum.html"
        }
      } ]
    }
  }, {
    "resource": {
      "resourceType": "Practitioner",
      "id": "728aec23-7b24-4c59-ae9a-abe0c28c1f22",
      "identifier": [ {
        "use": "official"
      } ]
    }
  } ]
}