{
  "resourceType": "Bundle",
  "entry": [ {
    "resource": {
      "resourceType": "Composition",
      "id": "fb04bb0a-d8b9-49e7-bcf5-fce8b9c932fa",
      "identifier": {
        "use": "official",
        "system": "urn:oid:2.16.840.1.113883.19",
        "value": "999021"
      },
      "status": "preliminary",
      "type": {
        "coding": [ {
          "system": "http://loinc.org",
          "code": "18842-5",
          "display": "Discharge summarization note"
        } ]
      },
      "category": [ {
        "coding": [ {
          "system": "http://hl7.org/fhir/ValueSet/doc-classcodes",
          "code": "LP173421-7",
          "display": "Note"
        } ]
      } ],
      "subject": {
        "reference": "Patient/b7479b7e-1a57-4d05-bc6d-6d1c749ce5d1",
        "display": "Mr. Adam Frankie Everyman"
      },
      "date": "2005-03-29T17:15:04+05:00",
      "author": [ {
        "reference": "Practitioner/908ac232-4734-4872-ab6e-680cf688ccdd",
        "display": "Henry Seven"
      } ],
      "title": "Good Health Discharge Summary",
      "confidentiality": "N",
      "attester": [ {
        "mode": "legal",
        "time": "2005-03-29T22:44:11+05:00",
        "party": {
          "reference": "Practitioner/c7cfdf9e-6879-46f5-8b35-bbb9531b806d",
          "display": "Henry Seven"
        }
      }, {
        "mode": "professional",
        "time": "2005-03-29T22:44:11+05:00",
        "party": {
          "reference": "Practitioner/c7cfdf9e-6879-46f5-8b35-bbb9531b806d",
          "display": "Henry Seven"
        }
      } ],
      "custodian": {
        "reference": "Organization/cca3a3be-cc61-4b52-9661-3d324dfb02cc",
        "display": "Good Health Clinic"
      },
      "section": [ {
        "title": "Functional Status",
        "code": {
          "coding": [ {
            "system": "http://loinc.org",
            "code": "47420-5"
          } ]
        },
        "text": {
          "status": "additional",
          "div": "<div xmlns=\"http://www.w3.org/1999/xhtml\"><table border=\"1\" width=\"100%\"><thead><tr><th>Functional Condition</th><th>Effective Dates</th><th>Condition Status</th></tr></thead><tbody><tr><td>Dependence on cane</td><td>1999</td><td>Active</td></tr><tr><td>Memory impairment</td><td>1998</td><td>Active</td></tr></tbody></table></div>"
        },
        "mode": "snapshot"
      }, {
        "title": "Plan of Care",
        "code": {
          "coding": [ {
            "system": "http://loinc.org",
            "code": "18776-5",
            "display": "Treatment plan"
          } ]
        },
        "text": {
          "status": "additional",
          "div": "<div xmlns=\"http://www.w3.org/1999/xhtml\"><table border=\"1\" width=\"100%\"><thead><tr><th>Planned Activity</th><th>Planned Date</th></tr></thead><tbody><tr><td>Colonoscopy</td><td>April 21, 2000</td></tr></tbody></table></div>"
        },
        "mode": "snapshot",
        "entry": [ {
          "reference": "CarePlan/1b488a01-7c52-496a-b2d6-cbf69fb549e1"
        } ]
      }, {
        "title": "Allergies, Adverse Reactions, Alerts",
        "code": {
          "coding": [ {
            "system": "http://loinc.org",
            "code": "48765-2"
          } ]
        },
        "text": {
          "status": "additional",
          "div": "<div xmlns=\"http://www.w3.org/1999/xhtml\"><table border=\"1\" width=\"100%\"><thead><tr><th>Substance</th><th>Reaction</th><th>Status</th></tr></thead><tbody><tr><td>Penicillin</td><td><span>Hives</span></td><td>Active</td></tr><tr><td>Aspirin</td><td><span>Wheezing</span></td><td>Active</td></tr><tr><td>Codeine</td><td><span>Nausea</span></td><td>Active</td></tr></tbody></table></div>"
        },
        "mode": "snapshot",
        "entry": [ {
          "reference": "AllergyIntolerance/20ba44b7-be57-430e-8800-bbf65261f4ec",
          "display": "Aspirin"
        }, {
          "reference": "AllergyIntolerance/1c551cb2-5198-4de2-add8-1ad648c88a11",
          "display": "Penicillin"
        }, {
          "reference": "AllergyIntolerance/281436dd-e6f6-47a3-a572-4c6faaeb0e72",
          "display": "Aspirin"
        } ]
      }, {
        "title": "Vital Signs",
        "code": {
          "coding": [ {
            "system": "http://loinc.org",
            "code": "8716-3",
            "display": "VITAL SIGNS"
          } ]
        },
        "text": {
          "status": "additional",
          "div": "<div xmlns=\"http://www.w3.org/1999/xhtml\"><table border=\"1\" width=\"100%\"><thead><tr><th align=\"right\">Date / Time: </th><th>Nov 14, 1999</th><th>April 7, 2000</th></tr></thead><tbody><tr><th align=\"left\">Height</th><td><span>177 cm</span></td><td><span>177 cm</span></td></tr><tr><th align=\"left\">Weight</th><td><span>86 kg</span></td><td><span>88 kg</span></td></tr><tr><th align=\"left\">Blood Pressure</th><td><span>132/86 mmHg</span></td><td><span>145/88 mmHg</span></td></tr></tbody></table></div>"
        },
        "mode": "snapshot",
        "entry": [ {
          "reference": "Observation/c242ac20-6dde-4701-bf29-22ed22fd806b",
          "display": "Height"
        }, {
          "reference": "Observation/fc1e7e30-a45d-46ff-b7a7-4c7636c4dd1f",
          "display": "Intravascular Systolic"
        }, {
          "reference": "Observation/30464821-e79c-4388-bfa0-948ab31725d3",
          "display": "Patient Body Weight - Measured"
        }, {
          "reference": "Observation/879183c3-cbd0-497c-9236-96c4a8344da7",
          "display": "Height"
        }, {
          "reference": "Observation/2e0f7774-c6bc-442f-badd-f6a7c76073bf",
          "display": "Patient Body Weight - Measured"
        }, {
          "reference": "Observation/5fde58a0-a326-40ca-a9d6-c5f8670912d4",
          "display": "Intravascular Systolic"
        } ]
      }, {
        "title": "Family history",
        "code": {
          "coding": [ {
            "system": "http://loinc.org",
            "code": "10157-6"
          } ]
        },
        "text": {
          "status": "additional",
          "div": "<div xmlns=\"http://www.w3.org/1999/xhtml\"><p>Father (deceased)</p><table border=\"1\" width=\"100%\"><thead><tr><th>Diagnosis</th><th>Age At Onset</th></tr></thead><tbody><tr><td>Myocardial Infarction (cause of death)</td><td>57</td></tr><tr><td>Diabetes</td><td>40</td></tr></tbody></table></div>"
        },
        "mode": "snapshot",
        "entry": [ {
          "reference": "FamilyMemberHistory/ead985ea-bec9-43e5-b377-12e8ef2191d2"
        } ]
      }, {
        "title": "Social History",
        "code": {
          "coding": [ {
            "system": "http://loinc.org",
            "code": "29762-2",
            "display": "Social History"
          } ]
        },
        "text": {
          "status": "additional",
          "div": "<div xmlns=\"http://www.w3.org/1999/xhtml\"><table border=\"1\" width=\"100%\"><thead><tr><th>Social History Element</th><th>Description</th><th>Effective Dates</th></tr></thead><tbody><tr><td><span/> smoking</td><td>1 pack per day</td><td>1947 - 1972</td></tr><tr><td><span/> smoking</td><td>None</td><td>1973 - </td></tr><tr><td><span/>Alcohol consumption</td><td>None</td><td>1973 - </td></tr></tbody></table></div>"
        },
        "mode": "snapshot",
        "entry": [ {
          "reference": "Observation/4efaed77-e9b3-47e9-8304-de05cac897bc",
          "display": "Alcohol consumption"
        }, {
          "reference": "Observation/efdf63bf-33fa-42f9-ab27-d67020f0f615",
          "display": "Cigarette smoking"
        }, {
          "reference": "Observation/8ecff46a-759a-4206-a644-e717e64ff638",
          "display": "Cigarette smoking"
        } ]
      } ]
    }
  }, {
    "resource": {
      "resourceType": "Patient",
      "id": "b7479b7e-1a57-4d05-bc6d-6d1c749ce5d1",
      "extension": [ {
        "url": "http://hl7.org/fhir/StructureDefinition/patient-religion",
        "valueCodeableConcept": {
          "coding": [ {
            "system": "urn:oid:2.16.840.1.113883.1.11.19185",
            "code": "1013",
            "display": "Christian (non-Catholic, non-specific)"
          } ]
        }
      }, {
        "url": "http://hl7.org/fhir/us/core/StructureDefinition/us-core-race",
        "extension": [ {
          "url": "text",
          "valueString": "White"
        }, {
          "url": "ombCategory",
          "valueCoding": {
            "system": "urn:oid:2.16.840.1.113883.6.238",
            "code": "2106-3",
            "display": "White"
          }
        } ]
      }, {
        "url": "http://hl7.org/fhir/us/core/StructureDefinition/us-core-ethnicity",
        "extension": [ {
          "url": "text",
          "valueString": "Not Hispanic or Latino"
        }, {
          "url": "ombCategory",
          "valueCoding": {
            "system": "urn:oid:2.16.840.1.113883.6.238",
            "code": "2186-5",
            "display": "Not Hispanic or Latino"
          }
        } ]
      }, {
        "url": "http://hl7.org/fhir/StructureDefinition/patient-birthPlace",
        "valueAddress": {
          "state": "MA",
          "postalCode": "02368",
          "country": "USA"
        }
      } ],
      "identifier": [ {
        "use": "official",
        "system": "urn:oid:2.16.840.1.113883.19",
        "value": "12345"
      }, {
        "use": "official",
        "system": "urn:oid:2.16.840.1.113883.4.1",
        "value": "111-00-1234"
      } ],
      "name": [ {
        "use": "usual",
        "family": "Everyman",
        "given": [ "Adam", "Frankie" ],
        "prefix": [ "Mr." ]
      } ],
      "telecom": [ {
        "system": "phone",
        "value": "(781)555-1212",
        "use": "home"
      } ],
      "gender": "male",
      "birthDate": "1954-11-25",
      "address": [ {
        "use": "home",
        "line": [ "17 Daws Rd." ],
        "city": "Blue Bell",
        "state": "MA",
        "postalCode": "02368",
        "country": "US"
      } ],
      "maritalStatus": {
        "coding": [ {
          "system": "http://terminology.hl7.org/CodeSystem/v3-MaritalStatus",
          "code": "M",
          "display": "Married"
        } ]
      },
      "contact": [ {
        "relationship": [ {
          "coding": [ {
            "system": "http://terminology.hl7.org/CodeSystem/v2-0131",
            "code": "O",
            "display": "Other"
          } ]
        } ],
        "name": {
          "family": "Relative",
          "given": [ "Ralph" ]
        },
        "telecom": [ {
          "system": "phone",
          "value": "(781)555-1212",
          "use": "home"
        } ],
        "address": {
          "use": "home",
          "line": [ "17 Daws Rd." ],
          "city": "Blue Bell",
          "state": "MA",
          "postalCode": "02368",
          "country": "US"
        }
      } ],
      "communication": [ {
        "language": {
          "coding": [ {
            "system": "urn:ietf:bcp:47",
            "code": "fr-CN"
          } ]
        },
        "preferred": true
      } ],
      "managingOrganization": {
        "reference": "Organization/1a3e1e2e-e434-49cc-8a7d-3a927c73c555",
        "display": "Good Health Clinic"
      }
    }
  }, {
    "resource": {
      "resourceType": "Organization",
      "id": "1a3e1e2e-e434-49cc-8a7d-3a927c73c555",
      "identifier": [ {
        "use": "official",
        "value": "2.16.840.1.113883.19"
      } ],
      "name": "Good Health Clinic",
      "telecom": [ {
        "system": "phone",
        "value": "(781)555-1212",
        "use": "work"
      } ],
      "address": [ {
        "line": [ "21 North Ave" ],
        "city": "Burlington",
        "state": "MA",
        "postalCode": "02368",
        "country": "USA"
      } ]
    }
  }, {
    "resource": {
      "resourceType": "Practitioner",
      "id": "908ac232-4734-4872-ab6e-680cf688ccdd",
      "identifier": [ {
        "use": "official",
        "system": "urn:oid:2.16.840.1.113883.19.5",
        "value": "KP00017"
      } ],
      "name": [ {
        "family": "Seven",
        "given": [ "Henry" ]
      } ],
      "telecom": [ {
        "system": "phone",
        "value": "(555)555-1003",
        "use": "work"
      } ],
      "address": [ {
        "line": [ "21 North Ave." ],
        "city": "Burlington",
        "state": "MA",
        "postalCode": "02368",
        "country": "USA"
      } ]
    }
  }, {
    "resource": {
      "resourceType": "Practitioner",
      "id": "c7cfdf9e-6879-46f5-8b35-bbb9531b806d",
      "identifier": [ {
        "use": "official",
        "system": "urn:oid:2.16.840.1.113883.19",
        "value": "KP00017"
      } ],
      "name": [ {
        "family": "Seven",
        "given": [ "Henry" ]
      } ],
      "telecom": [ {
        "system": "phone",
        "value": "(555)555-1003",
        "use": "work"
      } ],
      "address": [ {
        "line": [ "21 North Ave." ],
        "city": "Burlington",
        "state": "MA",
        "postalCode": "02368",
        "country": "USA"
      } ]
    }
  }, {
    "resource": {
      "resourceType": "Organization",
      "id": "cca3a3be-cc61-4b52-9661-3d324dfb02cc",
      "identifier": [ {
        "use": "official",
        "value": "2.16.840.1.113883.19.5"
      } ],
      "name": "Good Health Clinic",
      "telecom": [ {
        "system": "phone",
        "value": "(555)555-1212",
        "use": "work"
      } ],
      "address": [ {
        "use": "work",
        "line": [ "17 Daws Rd." ],
        "city": "Blue Bell",
        "state": "MA",
        "postalCode": "02368",
        "country": "USA"
      } ]
    }
  }, {
    "resource": {
      "resourceType": "CarePlan",
      "id": "1b488a01-7c52-496a-b2d6-cbf69fb549e1",
      "text": {
        "status": "additional",
        "div": "<div xmlns=\"http://www.w3.org/1999/xhtml\"><table border=\"1\" width=\"100%\"><thead><tr><th>Planned Activity</th><th>Planned Date</th></tr></thead><tbody><tr><td>Colonoscopy</td><td>April 21, 2000</td></tr></tbody></table></div>"
      },
      "status": "active",
      "intent": "plan",
      "category": [ {
        "coding": [ {
          "system": "http://hl7.org/fhir/us/core/CodeSystem/careplan-category",
          "code": "assess-plan"
        } ]
      } ],
      "title": "Plan of Care",
      "description": "<div><table border=\"1\" width=\"100%\"><thead><tr><th>Planned Activity</th><th>Planned Date</th></tr></thead><tbody><tr><td>Colonoscopy</td><td>April 21, 2000</td></tr></tbody></table></div>",
      "subject": {
        "reference": "Patient/b7479b7e-1a57-4d05-bc6d-6d1c749ce5d1",
        "display": "Mr. Adam Frankie Everyman"
      },
      "activity": [ {
        "reference": {
          "reference": "ServiceRequest/b47b6c08-7467-483f-830f-f7a292a58e59",
          "display": "Colonoscopy"
        }
      } ]
    }
  }, {
    "resource": {
      "resourceType": "ServiceRequest",
      "id": "b47b6c08-7467-483f-830f-f7a292a58e59",
      "identifier": [ {
        "use": "official",
        "value": "9a6d1bac-17d3-4195-89a4-1121bc809a5c"
      } ],
      "status": "active",
      "intent": "plan",
      "code": {
        "coding": [ {
          "system": "http://snomed.info/sct",
          "code": "310634005",
          "display": "Colonoscopy"
        } ]
      },
      "subject": {
        "reference": "Patient/b7479b7e-1a57-4d05-bc6d-6d1c749ce5d1",
        "display": "Mr. Adam Frankie Everyman"
      }
    }
  }, {
    "resource": {
      "resourceType": "AllergyIntolerance",
      "id": "20ba44b7-be57-430e-8800-bbf65261f4ec",
      "identifier": [ {
        "use": "official",
        "value": "36e3e930-7b14-11db-9fe1-0800200c9a66"
      } ],
      "clinicalStatus": {
        "coding": [ {
          "system": "http://terminology.hl7.org/CodeSystem/allergyintolerance-clinical",
          "code": "active",
          "display": "Active"
        } ]
      },
      "verificationStatus": {
        "coding": [ {
          "system": "http://terminology.hl7.org/CodeSystem/allergyintolerance-verification",
          "code": "confirmed",
          "display": "Confirmed"
        } ]
      },
      "code": {
        "coding": [ {
          "system": "http://www.nlm.nih.gov/research/umls/rxnorm",
          "code": "1191",
          "display": "ASPIRIN"
        } ],
        "text": "Aspirin"
      },
      "patient": {
        "reference": "Patient/b7479b7e-1a57-4d05-bc6d-6d1c749ce5d1",
        "display": "Mr. Adam Frankie Everyman"
      },
      "onsetDateTime": "2011-02-15",
      "recordedDate": "2009-09-02",
      "reaction": [ {
        "manifestation": [ {
          "coding": [ {
            "system": "http://snomed.info/sct",
            "code": "56018004",
            "display": "Wheezing"
          } ]
        } ],
        "onset": "2009-07-11"
      } ]
    }
  }, {
    "resource": {
      "resourceType": "AllergyIntolerance",
      "id": "1c551cb2-5198-4de2-add8-1ad648c88a11",
      "identifier": [ {
        "use": "official",
        "value": "36e3e930-7b14-11db-9fe1-0800200c9a66"
      } ],
      "clinicalStatus": {
        "coding": [ {
          "system": "http://terminology.hl7.org/CodeSystem/allergyintolerance-clinical",
          "code": "active",
          "display": "Active"
        } ]
      },
      "verificationStatus": {
        "coding": [ {
          "system": "http://terminology.hl7.org/CodeSystem/allergyintolerance-verification",
          "code": "confirmed",
          "display": "Confirmed"
        } ]
      },
      "code": {
        "coding": [ {
          "system": "http://www.nlm.nih.gov/research/umls/rxnorm",
          "code": "314422",
          "display": "ALLERGENIC EXTRACT, PENICILLIN"
        } ],
        "text": "Penicillin"
      },
      "patient": {
        "reference": "Patient/b7479b7e-1a57-4d05-bc6d-6d1c749ce5d1",
        "display": "Mr. Adam Frankie Everyman"
      },
      "onsetDateTime": "2011-02-15",
      "recordedDate": "2009-09-02",
      "reaction": [ {
        "manifestation": [ {
          "coding": [ {
            "system": "http://snomed.info/sct",
            "code": "247472004",
            "display": "Hives"
          } ]
        } ],
        "onset": "2009-07-11"
      } ]
    }
  }, {
    "resource": {
      "resourceType": "AllergyIntolerance",
      "id": "281436dd-e6f6-47a3-a572-4c6faaeb0e72",
      "identifier": [ {
        "use": "official",
        "value": "36e3e930-7b14-11db-9fe1-0800200c9a66"
      } ],
      "clinicalStatus": {
        "coding": [ {
          "system": "http://terminology.hl7.org/CodeSystem/allergyintolerance-clinical",
          "code": "active",
          "display": "Active"
        } ]
      },
      "verificationStatus": {
        "coding": [ {
          "system": "http://terminology.hl7.org/CodeSystem/allergyintolerance-verification",
          "code": "confirmed",
          "display": "Confirmed"
        } ]
      },
      "code": {
        "coding": [ {
          "system": "http://www.nlm.nih.gov/research/umls/rxnorm",
          "code": "2670",
          "display": "Codeine"
        } ],
        "text": "Aspirin"
      },
      "patient": {
        "reference": "Patient/b7479b7e-1a57-4d05-bc6d-6d1c749ce5d1",
        "display": "Mr. Adam Frankie Everyman"
      },
      "onsetDateTime": "2011-02-15",
      "recordedDate": "2009-09-02",
      "reaction": [ {
        "manifestation": [ {
          "coding": [ {
            "system": "http://snomed.info/sct",
            "code": "73879007",
            "display": "Nausea"
          } ]
        } ],
        "onset": "2009-07-11"
      } ]
    }
  }, {
    "resource": {
      "resourceType": "Observation",
      "id": "c242ac20-6dde-4701-bf29-22ed22fd806b",
      "identifier": [ {
        "use": "official",
        "value": "c6f88321-67ad-11db-bd13-0800200c9a66"
      } ],
      "status": "final",
      "category": [ {
        "coding": [ {
          "system": "http://terminology.hl7.org/CodeSystem/observation-category",
          "code": "vital-signs",
          "display": "Vital Signs"
        } ]
      } ],
      "code": {
        "coding": [ {
          "system": "http://loinc.org",
          "code": "8302-2",
          "display": "Height"
        } ]
      },
      "subject": {
        "reference": "Patient/b7479b7e-1a57-4d05-bc6d-6d1c749ce5d1",
        "display": "Mr. Adam Frankie Everyman"
      },
      "effectivePeriod": {
        "start": "1999-11-14"
      },
      "valueQuantity": {
        "value": 177,
        "unit": "cm",
        "system": "http://unitsofmeasure.org",
        "code": "cm"
      },
      "interpretation": [ {
        "coding": [ {
          "system": "http://terminology.hl7.org/CodeSystem/v3-ObservationInterpretation",
          "code": "N"
        } ]
      } ]
    }
  }, {
    "resource": {
      "resourceType": "Observation",
      "id": "fc1e7e30-a45d-46ff-b7a7-4c7636c4dd1f",
      "identifier": [ {
        "use": "official",
        "value": "c6f88321-67ad-11db-bd13-0800200c9a66"
      } ],
      "status": "final",
      "category": [ {
        "coding": [ {
          "system": "http://terminology.hl7.org/CodeSystem/observation-category",
          "code": "vital-signs",
          "display": "Vital Signs"
        } ]
      } ],
      "code": {
        "coding": [ {
          "system": "http://loinc.org",
          "code": "8480-6",
          "display": "Intravascular Systolic"
        } ]
      },
      "subject": {
        "reference": "Patient/b7479b7e-1a57-4d05-bc6d-6d1c749ce5d1",
        "display": "Mr. Adam Frankie Everyman"
      },
      "effectivePeriod": {
        "start": "1999-11-14"
      },
      "valueQuantity": {
        "value": 132,
        "unit": "mm[Hg]",
        "system": "http://unitsofmeasure.org",
        "code": "mm[Hg]"
      },
      "interpretation": [ {
        "coding": [ {
          "system": "http://terminology.hl7.org/CodeSystem/v3-ObservationInterpretation",
          "code": "N"
        } ]
      } ]
    }
  }, {
    "resource": {
      "resourceType": "Observation",
      "id": "30464821-e79c-4388-bfa0-948ab31725d3",
      "identifier": [ {
        "use": "official",
        "value": "c6f88321-67ad-11db-bd13-0800200c9a66"
      } ],
      "status": "final",
      "category": [ {
        "coding": [ {
          "system": "http://terminology.hl7.org/CodeSystem/observation-category",
          "code": "vital-signs",
          "display": "Vital Signs"
        } ]
      } ],
      "code": {
        "coding": [ {
          "system": "http://loinc.org",
          "code": "3141-9",
          "display": "Patient Body Weight - Measured"
        } ]
      },
      "subject": {
        "reference": "Patient/b7479b7e-1a57-4d05-bc6d-6d1c749ce5d1",
        "display": "Mr. Adam Frankie Everyman"
      },
      "effectivePeriod": {
        "start": "1999-11-14"
      },
      "valueQuantity": {
        "value": 86,
        "unit": "kg",
        "system": "http://unitsofmeasure.org",
        "code": "kg"
      },
      "interpretation": [ {
        "coding": [ {
          "system": "http://terminology.hl7.org/CodeSystem/v3-ObservationInterpretation",
          "code": "N"
        } ]
      } ]
    }
  }, {
    "resource": {
      "resourceType": "Observation",
      "id": "879183c3-cbd0-497c-9236-96c4a8344da7",
      "identifier": [ {
        "use": "official",
        "value": "c6f88321-67ad-11db-bd13-0800200c9a66"
      } ],
      "status": "final",
      "category": [ {
        "coding": [ {
          "system": "http://terminology.hl7.org/CodeSystem/observation-category",
          "code": "vital-signs",
          "display": "Vital Signs"
        } ]
      } ],
      "code": {
        "coding": [ {
          "system": "http://loinc.org",
          "code": "8302-2",
          "display": "Height"
        } ]
      },
      "subject": {
        "reference": "Patient/b7479b7e-1a57-4d05-bc6d-6d1c749ce5d1",
        "display": "Mr. Adam Frankie Everyman"
      },
      "effectivePeriod": {
        "start": "2000-04-07"
      },
      "valueQuantity": {
        "value": 177,
        "unit": "cm",
        "system": "http://unitsofmeasure.org",
        "code": "cm"
      },
      "interpretation": [ {
        "coding": [ {
          "system": "http://terminology.hl7.org/CodeSystem/v3-ObservationInterpretation",
          "code": "N"
        } ]
      } ]
    }
  }, {
    "resource": {
      "resourceType": "Observation",
      "id": "2e0f7774-c6bc-442f-badd-f6a7c76073bf",
      "identifier": [ {
        "use": "official",
        "value": "c6f88321-67ad-11db-bd13-0800200c9a66"
      } ],
      "status": "final",
      "category": [ {
        "coding": [ {
          "system": "http://terminology.hl7.org/CodeSystem/observation-category",
          "code": "vital-signs",
          "display": "Vital Signs"
        } ]
      } ],
      "code": {
        "coding": [ {
          "system": "http://loinc.org",
          "code": "3141-9",
          "display": "Patient Body Weight - Measured"
        } ]
      },
      "subject": {
        "reference": "Patient/b7479b7e-1a57-4d05-bc6d-6d1c749ce5d1",
        "display": "Mr. Adam Frankie Everyman"
      },
      "effectivePeriod": {
        "start": "2000-04-07"
      },
      "valueQuantity": {
        "value": 88,
        "unit": "kg",
        "system": "http://unitsofmeasure.org",
        "code": "kg"
      },
      "interpretation": [ {
        "coding": [ {
          "system": "http://terminology.hl7.org/CodeSystem/v3-ObservationInterpretation",
          "code": "N"
        } ]
      } ]
    }
  }, {
    "resource": {
      "resourceType": "Observation",
      "id": "5fde58a0-a326-40ca-a9d6-c5f8670912d4",
      "identifier": [ {
        "use": "official",
        "value": "c6f88321-67ad-11db-bd13-0800200c9a66"
      } ],
      "status": "final",
      "category": [ {
        "coding": [ {
          "system": "http://terminology.hl7.org/CodeSystem/observation-category",
          "code": "vital-signs",
          "display": "Vital Signs"
        } ]
      } ],
      "code": {
        "coding": [ {
          "system": "http://loinc.org",
          "code": "8480-6",
          "display": "Intravascular Systolic"
        } ]
      },
      "subject": {
        "reference": "Patient/b7479b7e-1a57-4d05-bc6d-6d1c749ce5d1",
        "display": "Mr. Adam Frankie Everyman"
      },
      "effectivePeriod": {
        "start": "2000-04-07"
      },
      "valueQuantity": {
        "value": 145,
        "unit": "mm[Hg]",
        "system": "http://unitsofmeasure.org",
        "code": "mm[Hg]"
      },
      "interpretation": [ {
        "coding": [ {
          "system": "http://terminology.hl7.org/CodeSystem/v3-ObservationInterpretation",
          "code": "N"
        } ]
      } ]
    }
  }, {
    "resource": {
      "resourceType": "FamilyMemberHistory",
      "id": "ead985ea-bec9-43e5-b377-12e8ef2191d2",
      "status": "completed",
      "patient": {
        "reference": "Patient/b7479b7e-1a57-4d05-bc6d-6d1c749ce5d1",
        "display": "Mr. Adam Frankie Everyman"
      },
      "relationship": {
        "coding": [ {
          "system": "urn:oid:2.16.840.1.113883.5.111",
          "code": "FTH",
          "display": "Father"
        }, {
          "system": "http://snomed.info/sct",
          "code": "9947008",
          "display": "Biological father"
        } ]
      },
      "sex": {
        "coding": [ {
          "system": "http://hl7.org/fhir/administrative-gender",
          "code": "male",
          "display": "Male"
        } ]
      },
      "bornDate": "1912",
      "deceasedBoolean": true,
      "condition": [ {
        "code": {
          "coding": [ {
            "system": "http://snomed.info/sct",
            "code": "46635009",
            "display": "Diabetes mellitus type 1"
          } ]
        },
        "onsetAge": {
          "value": 40,
          "unit": "a",
          "system": "http://unitsofmeasure.org"
        }
      }, {
        "code": {
          "coding": [ {
            "system": "http://snomed.info/sct",
            "code": "22298006",
            "display": "Myocardial infarction"
          } ]
        },
        "outcome": {
          "coding": [ {
            "system": "http://snomed.info/sct",
            "code": "419099009",
            "display": "Dead"
          } ]
        },
        "onsetAge": {
          "value": 57,
          "unit": "a",
          "system": "http://unitsofmeasure.org"
        }
      } ]
    }
  }, {
    "resource": {
      "resourceType": "Observation",
      "id": "4efaed77-e9b3-47e9-8304-de05cac897bc",
      "identifier": [ {
        "use": "official",
        "value": "37f76c51-6411-4e1d-8a37-957fd49d2cef"
      } ],
      "status": "final",
      "code": {
        "coding": [ {
          "system": "http://snomed.info/sct",
          "code": "160573003",
          "display": "Alcohol consumption"
        } ]
      },
      "subject": {
        "reference": "Patient/b7479b7e-1a57-4d05-bc6d-6d1c749ce5d1",
        "display": "Mr. Adam Frankie Everyman"
      },
      "effectivePeriod": {
        "start": "1973"
      },
      "valueString": "None"
    }
  }, {
    "resource": {
      "resourceType": "Observation",
      "id": "efdf63bf-33fa-42f9-ab27-d67020f0f615",
      "identifier": [ {
        "use": "official",
        "value": "45efb604-7049-4a2e-ad33-d38556c9636c"
      } ],
      "status": "final",
      "code": {
        "coding": [ {
          "system": "http://snomed.info/sct",
          "code": "230056004",
          "display": "Cigarette smoking"
        } ]
      },
      "subject": {
        "reference": "Patient/b7479b7e-1a57-4d05-bc6d-6d1c749ce5d1",
        "display": "Mr. Adam Frankie Everyman"
      },
      "effectivePeriod": {
        "start": "1973"
      },
      "valueString": "None"
    }
  }, {
    "resource": {
      "resourceType": "Observation",
      "id": "8ecff46a-759a-4206-a644-e717e64ff638",
      "identifier": [ {
        "use": "official",
        "value": "9b56c25d-9104-45ee-9fa4-e0f3afaa01c1"
      } ],
      "status": "final",
      "code": {
        "coding": [ {
          "system": "http://snomed.info/sct",
          "code": "230056004",
          "display": "Cigarette smoking"
        } ]
      },
      "subject": {
        "reference": "Patient/b7479b7e-1a57-4d05-bc6d-6d1c749ce5d1",
        "display": "Mr. Adam Frankie Everyman"
      },
      "effectivePeriod": {
        "start": "1947",
        "end": "1972"
      },
      "valueString": "1 pack per day"
    }
  } ]
}