{
  "resourceType": "Bundle",
  "entry": [ {
    "resource": {
      "resourceType": "Composition",
      "id": "125b98d1-c3d2-4b9f-98b0-9b748f66e299",
      "identifier": {
        "use": "official",
        "system": "urn:oid:1.3.6.1.4.1.22812.4.111.0.1",
        "value": "20130530175210"
      },
      "status": "preliminary",
      "type": {
        "coding": [ {
          "system": "http://loinc.org",
          "code": "34133-9",
          "display": "SUMMARIZATION OF EPISODE NOTE"
        } ]
      },
      "category": [ {
        "coding": [ {
          "system": "http://hl7.org/fhir/ValueSet/doc-classcodes",
          "code": "LP173421-7",
          "display": "Note"
        } ]
      } ],
      "subject": {
        "reference": "Patient/56a636a3-5c7a-4692-a25a-658bec7cd1c9",
        "display": "Maria Hernandez"
      },
      "date": "2013-05-30T17:52:10-04:00",
      "author": [ {
        "reference": "Practitioner/f271df56-ac86-4c10-a325-fe30feb63d50",
        "display": "Terry A Manning MD"
      }, {
        "reference": "Device/2aab2b14-10d8-4a48-973b-cf0c5d4c3201"
      } ],
      "title": "Summary of Care",
      "confidentiality": "N",
      "attester": [ {
        "mode": "legal",
        "time": "2013-05-30T17:52:10-04:00",
        "party": {
          "reference": "Practitioner/4f3dad40-a34d-474e-b3c0-3a28aaa45c21",
          "display": "Dr. Data Portable"
        }
      }, {
        "mode": "professional",
        "time": "2013-05-30T17:52:10-04:00",
        "party": {
          "reference": "Practitioner/4f3dad40-a34d-474e-b3c0-3a28aaa45c21",
          "display": "Dr. Data Portable"
        }
      } ],
      "custodian": {
        "reference": "Organization/757a22c9-15c2-467c-8b1a-1b8081f3f926",
        "display": "Clinic One"
      },
      "event": [ {
        "period": {
          "start": "2013-05-29T20:46:33+02:00",
          "end": "2013-05-30T17:52:10-04:00"
        },
        "detail": [ {
          "reference": "Practitioner/756b6501-b941-46ab-a103-4bab56080cae",
          "display": "Dr. James Getwell"
        }, {
          "reference": "Practitioner/9580827d-6ecc-4e00-b84c-2daea77a7ab9",
          "display": "Dr. Patricia Primary"
        }, {
          "reference": "Practitioner/f9d39b5c-4296-43f4-b126-42a830be4076",
          "display": "Dr. George Lung"
        }, {
          "reference": "Practitioner/4f3dad40-a34d-474e-b3c0-3a28aaa45c21",
          "display": "Dr. Data Portable"
        }, {
          "reference": "Practitioner/f271df56-ac86-4c10-a325-fe30feb63d50",
          "display": "Terry A Manning MD"
        } ]
      } ],
      "section": [ {
        "title": "Plan of Care",
        "code": {
          "coding": [ {
            "system": "http://loinc.org",
            "code": "18776-5",
            "display": "Plan of Care"
          } ]
        },
        "text": {
          "status": "additional",
          "div": "<div xmlns=\"http://www.w3.org/1999/xhtml\"><ul><caption>Instructions</caption><li><span><span>No Known Instructions</span></span></li></ul><ul><caption>Planned Observations</caption><li><table><thead><tr><th>Name</th><th>Dates</th><th>Details</th></tr></thead><tbody><tr><td><span><span><span>Goal: Smoking Cessation; Status: Started; Patient Engagement: -; Plan: Instructions: recources and instructions provided during visit; Progress: Started</span></span></span><span><span>Reason: </span><span><span>Essential hypertension</span></span></span></td><td><span><span>On </span><span>28-May-2013</span></span><span><br/></span><span><span>10:02</span></span></td><td><span><span>Goal</span></span></td></tr><tr><td><span><span><span>Goal: Weight Loss; Status: Started; Patient Engagement: -; Plan: Instructions: Diet and exercise counseling provided during visit; Progress: Started</span></span></span><span><span>Reason: </span><span><span>Essential hypertension</span></span></span></td><td><span><span>On </span><span>28-May-2013</span></span><span><br/></span><span><span>10:04</span></span></td><td><span><span>Goal</span></span></td></tr><tr><td><span><span><span>Goal: Preventative Health; Status: Started; Patient Engagement: -; Plan: Annual pap smear, biennial screening mammogram, and annual clinical breat exam; Progress: Started</span></span></span><span><span>Reason: </span><span><span>Essential hypertension</span></span></span></td><td><span><span>On </span><span>28-May-2013</span></span><span><br/></span><span><span>10:05</span></span></td><td><span><span>Goal</span></span></td></tr></tbody></table></li></ul></div>"
        },
        "mode": "snapshot",
        "entry": [ {
          "reference": "CarePlan/6a629405-7367-4da5-a4a4-25d228f73c87"
        } ]
      }, {
        "title": "Procedures",
        "code": {
          "coding": [ {
            "system": "http://loinc.org",
            "code": "47519-4",
            "display": "History of Procedures"
          } ]
        },
        "text": {
          "status": "additional",
          "div": "<div xmlns=\"http://www.w3.org/1999/xhtml\"><table><thead><tr><th>Procedure</th><th>Dates</th><th>Details</th></tr></thead><tbody><tr><td><span>CHEST X-RAY, PA AND LATERAL (71020)</span></td><td/><td><span><span>Completed<span>:</span></span><span>30-May-2013</span></span></td></tr></tbody></table></div>"
        },
        "mode": "snapshot",
        "entry": [ {
          "reference": "Procedure/a1c2037d-c795-4714-8b18-d4e07c6b7962",
          "display": "CHEST X-RAY, PA AND LATERAL (71020)"
        } ]
      }, {
        "title": "Results",
        "code": {
          "coding": [ {
            "system": "http://loinc.org",
            "code": "30954-2",
            "display": "Relevant diagnostic tests and/or laboratory data"
          } ]
        },
        "text": {
          "status": "additional",
          "div": "<div xmlns=\"http://www.w3.org/1999/xhtml\"><table><thead><tr><th>Date</th><th>Description</th><th>Value</th><th>Details</th></tr></thead><tbody><tr><td><span><span>Resulted on:</span></span><span><br/></span><span>30-May-2013 17:48</span></td><td><span>CHEST X-RAY, PA AND LATERAL (71020)</span></td><td><span>Abdominal Circumference: 45 </span></td><td><span>Abnormal</span><span><br/></span></td></tr><tr><td/><td/><td/><td/></tr></tbody><tbody><tr><td><span><br/></span><span>17:25</span></td><td colspan=\"2\"><span>Copy of BLOOD COUNT, PLATELET, AUTOMATED (85049)</span></td><td/><td/></tr><tr><td/><td><span>Copy of BLOOD COUNT, PLATELET, AUTOMATED</span></td><td><span>170 </span></td><td><span>Normal</span><span><br/></span></td></tr></tbody><tbody><tr><td><span><br/></span><span>17:25</span></td><td colspan=\"2\"><span>WBC (85048)</span></td><td/><td/></tr><tr><td/><td><span>WBC</span></td><td><span>5  10X9cells/L</span></td><td><span>Range: 4.5 - 11.0 = Normal</span><span><br/></span></td></tr></tbody><tbody><tr><td><span><br/></span><span>17:25</span></td><td colspan=\"2\"><span>HGB (HEMOGLOBIN) (85018)</span></td><td/><td/></tr><tr><td/><td><span>HGB (HEMOGLOBIN)</span></td><td><span>15  g/dL</span></td><td><span>Range: 14.4 - 16.6 = Normal</span><span><br/></span></td></tr></tbody><tbody><tr><td><span><br/></span><span>17:25</span></td><td colspan=\"2\"><span>HCT (HEMATOCRIT) (85014)</span></td><td/><td/></tr><tr><td/><td><span>HCT (HEMATOCRIT)</span></td><td><span>44  %</span></td><td><span>Range: 42.9 - 49.1 = Normal</span><span><br/></span></td></tr></tbody></table></div>"
        },
        "mode": "snapshot",
        "entry": [ {
          "reference": "DiagnosticReport/bbf03cfc-1c56-468d-9b53-c3cf37c05968",
          "display": "HCT (HEMATOCRIT) (85014)"
        }, {
          "reference": "DiagnosticReport/61f42955-87b1-419e-96b6-d1b29537b411",
          "display": "WBC (85048)"
        }, {
          "reference": "DiagnosticReport/6a3c94a5-d768-477e-bbcb-0f8127908f14",
          "display": "HGB (HEMOGLOBIN) (85018)"
        }, {
          "reference": "DiagnosticReport/954c39dd-0909-430d-be24-71aadb33b526",
          "display": "Copy of BLOOD COUNT, PLATELET, AUTOMATED (85049)"
        }, {
          "reference": "DiagnosticReport/34054c37-575c-4637-b4bf-2dabd3abffd6",
          "display": "CHEST X-RAY, PA AND LATERAL (71020)"
        } ]
      }, {
        "title": "Problems",
        "code": {
          "coding": [ {
            "system": "http://loinc.org",
            "code": "11450-4",
            "display": "Problem List"
          } ]
        },
        "text": {
          "status": "additional",
          "div": "<div xmlns=\"http://www.w3.org/1999/xhtml\"><table><thead><tr><th>Name</th><th>Dates</th><th>Details</th></tr></thead><tbody><tr><td><span><span>Acute pharyngitis</span></span><span> (462, J02.9) </span><span><span/></span><span><br/></span></td><td><span><span>Onset<span>:</span></span><span>28-Oct-2011</span></span></td><td><span><span><span>Status: </span><span>Active</span></span></span></td></tr><tr><td><span><span>Essential hypertension</span></span><span> (401.9, I10) </span><span><span/></span><span><br/></span></td><td><span><span>Onset<span>:</span></span><span>25-Sep-2012</span></span></td><td><span><span><span>Status: </span><span>Active</span></span></span></td></tr><tr><td><span><span>Pneumonia</span></span><span> (486, J18.9) </span><span><span/></span><span><br/></span></td><td><span><span>Onset<span>:</span></span><span>30-May-2013</span></span></td><td><span><span><span>Status: </span><span>Active</span></span></span></td></tr></tbody></table></div>"
        },
        "mode": "snapshot",
        "entry": [ {
          "reference": "Condition/adf5ad75-3bae-4c39-859c-d7998b623320",
          "display": "Pneumonia"
        }, {
          "reference": "Condition/86407e69-93fb-46a2-b324-2a6f7e79b280",
          "display": "Acute pharyngitis"
        }, {
          "reference": "Condition/4e682ef3-4fa3-49f4-9546-f7b9b1ef7ba9",
          "display": "Essential hypertension"
        } ]
      }, {
        "title": "Allergies and Adverse Reactions",
        "code": {
          "coding": [ {
            "system": "http://loinc.org",
            "code": "48765-2",
            "display": "Allergies, adverse reactions, alerts"
          } ]
        },
        "text": {
          "status": "additional",
          "div": "<div xmlns=\"http://www.w3.org/1999/xhtml\"><table><thead><tr><th>Name</th><th>Dates</th><th>Details</th></tr></thead><tbody><tr><td><span><span>Aspirin *ANALGESICS - NonNarcotic*</span></span></td><td><span/></td><td><span><span><span>Reaction: </span><span>Hives</span></span></span><span><br/></span><span><span>Status: </span><span>Active</span></span></td></tr><tr><td><span><span>Codeine Sulfate *ANALGESICS - OPIOID*</span></span></td><td><span/></td><td><span><span><span>Reaction: </span><span>Anaphylaxis</span></span></span><span><br/></span><span><span>Status: </span><span>Active</span></span></td></tr><tr><td><span><span>Penicillin G Benzathine &amp; Proc *PENICILLINS*</span></span></td><td><span/></td><td><span><span><span>Reaction: </span><span>Hives</span>, <span>Swelling</span>, <span>Shortness of breath</span></span></span><span><br/></span><span><span>Status: </span><span>Active</span></span></td></tr></tbody></table></div>"
        },
        "mode": "snapshot",
        "entry": [ {
          "reference": "AllergyIntolerance/0d0ba8fc-b03c-469f-8c50-2eb2f9a2b009",
          "display": "Penicillin G Benzathine & Proc *PENICILLINS*"
        }, {
          "reference": "AllergyIntolerance/4db73727-6f4d-45ed-9e26-4585db0f02f2",
          "display": "Aspirin *ANALGESICS - NonNarcotic*"
        }, {
          "reference": "AllergyIntolerance/823fb37d-44e2-485a-80cb-d3eb5e132355",
          "display": "Codeine Sulfate *ANALGESICS - OPIOID*"
        } ]
      }, {
        "title": "Social History",
        "code": {
          "coding": [ {
            "system": "http://loinc.org",
            "code": "29762-2",
            "display": "Social History"
          } ]
        },
        "text": {
          "status": "additional",
          "div": "<div xmlns=\"http://www.w3.org/1999/xhtml\"><table><thead><tr><th>Name</th><th>Dates</th><th>Details</th></tr></thead><tbody><tr><td><span><span>No Known Social History</span></span><span><span/></span><span><br/></span></td><td/><td><span><span><span>Status: </span><span/></span></span></td></tr></tbody></table><ul><caption>Smoking Status</caption><li><span>Smoker. current stants unknown</span></li><li><span>Never smoker</span></li></ul></div>"
        },
        "mode": "snapshot",
        "entry": [ {
          "reference": "Observation/580429ad-857b-4f06-9094-d0401afc279a",
          "display": "Assertion"
        }, {
          "reference": "Observation/d227cc8c-7f8d-4b42-b60d-69c088d45f40",
          "display": "No Known Social History"
        }, {
          "reference": "Observation/15a645a4-ffc6-449e-aa26-e71d12e4d70f",
          "display": "Assertion"
        } ]
      }, {
        "title": "Immunization",
        "code": {
          "coding": [ {
            "system": "http://loinc.org",
            "code": "11369-6",
            "display": "Immunizations"
          } ]
        },
        "text": {
          "status": "additional",
          "div": "<div xmlns=\"http://www.w3.org/1999/xhtml\"><table><thead><tr><th>Name</th><th>Dates</th><th>Details</th></tr></thead><tbody><tr><td><span><span>Influenza (3 years and up)</span></span><span><br/></span></td><td><span><span>Administered on<span>:</span></span><span>25-Sep-2012</span></span></td><td/></tr></tbody></table></div>"
        },
        "mode": "snapshot",
        "entry": [ {
          "reference": "Immunization/a0c11e6e-ab13-46dd-84b0-32bf97383e3e",
          "display": "Influenza (3 years and up)"
        } ]
      }, {
        "title": "Functional Status",
        "code": {
          "coding": [ {
            "system": "http://loinc.org",
            "code": "47420-5",
            "display": "Functional Status"
          } ]
        },
        "text": {
          "status": "additional",
          "div": "<div xmlns=\"http://www.w3.org/1999/xhtml\"><ul><caption>Functional Status Health Issues</caption><li><table><thead><tr><th>Name</th><th>Dates</th><th>Details</th></tr></thead><tbody><tr><td><span><span>No Known Impairments</span></span><span><span/></span><span><br/></span></td><td><span><span>Onset<span>:</span></span><span>30-May-2013</span></span></td><td><span><span><span>Status: </span><span>Active</span></span></span></td></tr></tbody></table></li></ul></div>"
        },
        "mode": "snapshot"
      }, {
        "title": "Medications",
        "code": {
          "coding": [ {
            "system": "http://loinc.org",
            "code": "10160-0",
            "display": "History of medication use"
          } ]
        },
        "text": {
          "status": "additional",
          "div": "<div xmlns=\"http://www.w3.org/1999/xhtml\"><table><thead><tr><th>Name</th><th>Dates</th><th>Details</th></tr></thead><tbody><tr><td><span><span>AZITHROMYCIN, 500MG (Oral Tablet)</span></span><span><br/></span><span><span><span> 1 (one) Tablet daily for 5 days</span></span></span><span><br/></span><ul><li><table><tbody><tr><td><span> Quantity: </span><span><span>5</span></span></td><td><span> Refills: </span><span><span>0</span></span></td></tr></tbody></table></li></ul><span><br/></span><span><span/></span></td><td><span><span> Ordered <span>:</span></span><span>30-May-2013</span></span><span><br/></span><span><span> Manning</span>, Terry MD</span></td><td><ul><li><table><tbody><tr><td><span> Started </span>30-May-2013</td></tr></tbody></table></li></ul><span><span/><span>Active</span></span><span><span> Comments: </span><span>500 on day one, then 250 for 4 days</span></span><span><br/></span></td></tr><tr><td><span><span>METOPROLOL TARTRATE, 50MG (Oral Tablet)</span></span><span><br/></span><span><span><span> 1 (one) Tablet daily for 30 days</span></span></span><span><br/></span><ul><li><table><tbody><tr><td><span> Quantity: </span><span><span>30</span></span></td><td><span> Refills: </span><span><span>0</span></span></td></tr></tbody></table></li></ul><span><br/></span><span><span/></span></td><td><span><span> Ordered <span>:</span></span><span>30-May-2013</span></span><span><br/></span><span><span> Manning</span>, Terry MD</span></td><td><ul><li><table><tbody><tr><td><span> Started </span>30-May-2013</td></tr></tbody></table></li></ul><span><span/><span>Active</span></span></td></tr><tr><td><span><span>PROVENTIL HFA, 108 (90 Base)MCG/ACT (Inhalation Aerosol Solution)</span></span><span><br/></span><span><span><span> 2 (two) Puff four times daily, as needed for 30 days</span></span></span><span><br/></span><ul><li><table><tbody><tr><td><span> Quantity: </span><span><span>1</span></span></td><td><span> Refills: </span><span><span>0</span></span></td></tr></tbody></table></li></ul><span><br/></span><span><span/></span></td><td><span><span> Ordered <span>:</span></span><span>30-May-2013</span></span><span><br/></span><span><span> Manning</span>, Terry MD</span></td><td><ul><li><table><tbody><tr><td><span> Started </span>30-May-2013</td></tr></tbody></table></li></ul><span><span/><span>Active</span></span><span><span> Comments: </span><span>Medication taken as needed. </span></span><span><br/></span></td></tr></tbody></table></div>"
        },
        "mode": "snapshot"
      }, {
        "title": "Encounters",
        "code": {
          "coding": [ {
            "system": "http://loinc.org",
            "code": "46240-8",
            "display": "Encounters"
          } ]
        },
        "text": {
          "status": "additional",
          "div": "<div xmlns=\"http://www.w3.org/1999/xhtml\"><table><tbody><tr><td><span><span>Office Visit</span></span><span><br/></span></td><td><span><span>On </span><span>29-May-2013</span></span><span><br/></span><span><span>20:46</span></span></td></tr><tr><td><span><span>Office Visit</span></span><span><br/></span><span><span>Encounter Diagnosis: </span><span>Essential hypertension</span></span><span/></td><td><span><span>On </span><span>28-May-2013</span></span><span><br/></span><span><span>08:34</span></span></td></tr><tr><td><span><span>Office Visit</span></span><span><br/></span><span><span>Encounter Diagnosis: </span><span>Acute pharyngitis</span></span><span/></td><td><span><span>On </span><span>1-May-2013</span></span><span><br/></span><span><span>15:05</span></span></td></tr></tbody></table></div>"
        },
        "mode": "snapshot",
        "entry": [ {
          "reference": "Encounter/fc1b8a51-0bfe-4641-b695-88ef5a46b3ef",
          "display": "Office Visit"
        }, {
          "reference": "Encounter/71633ffe-ff29-4886-bc82-f3d4077cc5c2",
          "display": "Office Visit"
        }, {
          "reference": "Encounter/0c10f553-2ee8-4295-8f4e-181053110c0a",
          "display": "Office Visit"
        } ]
      } ]
    }
  }, {
    "resource": {
      "resourceType": "Patient",
      "id": "56a636a3-5c7a-4692-a25a-658bec7cd1c9",
      "extension": [ {
        "url": "http://hl7.org/fhir/us/core/StructureDefinition/us-core-race",
        "extension": [ {
          "url": "text",
          "valueString": "White"
        }, {
          "url": "ombCategory",
          "valueCoding": {
            "system": "urn:oid:2.16.840.1.113883.6.238",
            "code": "2106-3",
            "display": "White"
          }
        } ]
      }, {
        "url": "http://hl7.org/fhir/us/core/StructureDefinition/us-core-ethnicity",
        "extension": [ {
          "url": "text",
          "valueString": "Hispanic or Latino"
        }, {
          "url": "ombCategory",
          "valueCoding": {
            "system": "urn:oid:2.16.840.1.113883.6.238",
            "code": "2135-2",
            "display": "Hispanic or Latino"
          }
        } ]
      } ],
      "identifier": [ {
        "use": "official",
        "system": "urn:oid:1.3.6.1.4.1.22812.4.111.0",
        "value": "dataport4"
      } ],
      "name": [ {
        "family": "Hernandez",
        "given": [ "Maria" ]
      } ],
      "gender": "female",
      "birthDate": "1966-02-18",
      "address": [ {
        "use": "home",
        "line": [ "Unknown" ]
      } ],
      "communication": [ {
        "language": {
          "coding": [ {
            "system": "urn:ietf:bcp:47",
            "code": "spa"
          } ]
        },
        "preferred": false
      } ],
      "managingOrganization": {
        "reference": "Organization/757a22c9-15c2-467c-8b1a-1b8081f3f926",
        "display": "Clinic One"
      }
    }
  }, {
    "resource": {
      "resourceType": "Organization",
      "id": "757a22c9-15c2-467c-8b1a-1b8081f3f926",
      "identifier": [ {
        "use": "official",
        "system": "urn:oid:1.3.6.1.4.1.22812.4.111.0",
        "value": "0"
      } ],
      "name": "Clinic One",
      "telecom": [ {
        "system": "phone",
        "value": "+1-(202)555-1212",
        "use": "work"
      } ],
      "address": [ {
        "line": [ "90001 1ST AVE STE 100" ],
        "city": "Washington",
        "state": "DC",
        "postalCode": "20000",
        "country": "US"
      } ]
    }
  }, {
    "resource": {
      "resourceType": "Practitioner",
      "id": "f271df56-ac86-4c10-a325-fe30feb63d50",
      "identifier": [ {
        "use": "official",
        "system": "urn:oid:2.16.840.1.113883.4.6",
        "value": "5860476014"
      }, {
        "use": "official",
        "system": "urn:oid:1.3.6.1.4.1.22812.4.111.0",
        "value": "68"
      } ],
      "name": [ {
        "family": "Manning",
        "given": [ "Terry", "A" ],
        "suffix": [ "MD" ]
      } ],
      "telecom": [ {
        "system": "phone",
        "value": "+1-(555)123-4567",
        "use": "work"
      } ],
      "address": [ {
        "line": [ "5555 Waverly Way" ],
        "city": "Cary",
        "state": "NC",
        "postalCode": "27511",
        "country": "US"
      } ]
    }
  }, {
    "resource": {
      "resourceType": "Device",
      "id": "2aab2b14-10d8-4a48-973b-cf0c5d4c3201",
      "identifier": [ {
        "use": "official",
        "system": "urn:oid:1.3.6.1.4.1.22812.4.111.0.3.3",
        "value": "0"
      } ],
      "manufacturer": "Professional EHR 13.0.0.161",
      "type": {
        "coding": [ {
          "display": "Professional EHR 13.0.0.161"
        } ]
      },
      "version": [ {
        "value": "Professional EHR 13.0.0.161; Transform 4.1.1.17"
      } ],
      "owner": {
        "reference": "Organization/757a22c9-15c2-467c-8b1a-1b8081f3f926"
      }
    }
  }, {
    "resource": {
      "resourceType": "Practitioner",
      "id": "4f3dad40-a34d-474e-b3c0-3a28aaa45c21",
      "identifier": [ {
        "use": "official",
        "system": "urn:oid:1.3.6.1.4.1.22812.4.111.0",
        "value": "10099"
      } ],
      "name": [ {
        "family": "Portable",
        "given": [ "Data" ],
        "prefix": [ "Dr." ]
      } ]
    }
  }, {
    "resource": {
      "resourceType": "Practitioner",
      "id": "756b6501-b941-46ab-a103-4bab56080cae",
      "identifier": [ {
        "use": "official",
        "system": "urn:oid:1.3.6.1.4.1.22812.4.111.0",
        "value": "10086"
      } ],
      "name": [ {
        "family": "Getwell",
        "given": [ "James" ],
        "prefix": [ "Dr." ]
      } ],
      "telecom": [ {
        "system": "phone",
        "value": "+1-(555)555-1009",
        "use": "work"
      } ],
      "address": [ {
        "line": [ "Get Well Clinic 1002 Healthcare Dr." ],
        "city": "Portland",
        "state": "OR",
        "postalCode": "97005",
        "country": "US"
      } ]
    }
  }, {
    "resource": {
      "resourceType": "Practitioner",
      "id": "9580827d-6ecc-4e00-b84c-2daea77a7ab9",
      "identifier": [ {
        "use": "official",
        "system": "urn:oid:1.3.6.1.4.1.22812.4.111.0",
        "value": "10087"
      } ],
      "name": [ {
        "family": "Primary",
        "given": [ "Patricia" ],
        "prefix": [ "Dr." ]
      } ],
      "telecom": [ {
        "system": "phone",
        "value": "+1-(555)555-1004",
        "use": "work"
      } ],
      "address": [ {
        "line": [ "Get Well Clinic, 1002 Healthcare Dr" ],
        "city": "Portland",
        "state": "OR",
        "postalCode": "97005",
        "country": "US"
      } ]
    }
  }, {
    "resource": {
      "resourceType": "Practitioner",
      "id": "f9d39b5c-4296-43f4-b126-42a830be4076",
      "identifier": [ {
        "use": "official",
        "system": "urn:oid:1.3.6.1.4.1.22812.4.111.0",
        "value": "10089"
      } ],
      "name": [ {
        "family": "Lung",
        "given": [ "George" ],
        "prefix": [ "Dr." ]
      } ],
      "telecom": [ {
        "system": "phone",
        "value": "+1-(555)555-1049",
        "use": "work"
      } ],
      "address": [ {
        "line": [ "987 Anymed Way" ],
        "city": "Portland",
        "state": "OR",
        "postalCode": "97005",
        "country": "US"
      } ]
    }
  }, {
    "resource": {
      "resourceType": "CarePlan",
      "id": "6a629405-7367-4da5-a4a4-25d228f73c87",
      "text": {
        "status": "additional",
        "div": "<div xmlns=\"http://www.w3.org/1999/xhtml\"><ul><caption>Instructions</caption><li><span><span>No Known Instructions</span></span></li></ul><ul><caption>Planned Observations</caption><li><table><thead><tr><th>Name</th><th>Dates</th><th>Details</th></tr></thead><tbody><tr><td><span><span><span>Goal: Smoking Cessation; Status: Started; Patient Engagement: -; Plan: Instructions: recources and instructions provided during visit; Progress: Started</span></span></span><span><span>Reason: </span><span><span>Essential hypertension</span></span></span></td><td><span><span>On </span><span>28-May-2013</span></span><span><br/></span><span><span>10:02</span></span></td><td><span><span>Goal</span></span></td></tr><tr><td><span><span><span>Goal: Weight Loss; Status: Started; Patient Engagement: -; Plan: Instructions: Diet and exercise counseling provided during visit; Progress: Started</span></span></span><span><span>Reason: </span><span><span>Essential hypertension</span></span></span></td><td><span><span>On </span><span>28-May-2013</span></span><span><br/></span><span><span>10:04</span></span></td><td><span><span>Goal</span></span></td></tr><tr><td><span><span><span>Goal: Preventative Health; Status: Started; Patient Engagement: -; Plan: Annual pap smear, biennial screening mammogram, and annual clinical breat exam; Progress: Started</span></span></span><span><span>Reason: </span><span><span>Essential hypertension</span></span></span></td><td><span><span>On </span><span>28-May-2013</span></span><span><br/></span><span><span>10:05</span></span></td><td><span><span>Goal</span></span></td></tr></tbody></table></li></ul></div>"
      },
      "status": "active",
      "intent": "plan",
      "category": [ {
        "coding": [ {
          "system": "http://hl7.org/fhir/us/core/CodeSystem/careplan-category",
          "code": "assess-plan"
        } ]
      } ],
      "title": "Plan of Care",
      "description": "<div><ul><caption>Instructions</caption><li><span><span>No Known Instructions</span></span></li></ul><ul><caption>Planned Observations</caption><li><table><thead><tr><th>Name</th><th>Dates</th><th>Details</th></tr></thead><tbody><tr><td><span><span><span>Goal: Smoking Cessation; Status: Started; Patient Engagement: -; Plan: Instructions: recources and instructions provided during visit; Progress: Started</span></span></span><span><span>Reason: </span><span><span>Essential hypertension</span></span></span></td><td><span><span>On </span><span>28-May-2013</span></span><span><br></br></span><span><span>10:02</span></span></td><td><span><span>Goal</span></span></td></tr><tr><td><span><span><span>Goal: Weight Loss; Status: Started; Patient Engagement: -; Plan: Instructions: Diet and exercise counseling provided during visit; Progress: Started</span></span></span><span><span>Reason: </span><span><span>Essential hypertension</span></span></span></td><td><span><span>On </span><span>28-May-2013</span></span><span><br></br></span><span><span>10:04</span></span></td><td><span><span>Goal</span></span></td></tr><tr><td><span><span><span>Goal: Preventative Health; Status: Started; Patient Engagement: -; Plan: Annual pap smear, biennial screening mammogram, and annual clinical breat exam; Progress: Started</span></span></span><span><span>Reason: </span><span><span>Essential hypertension</span></span></span></td><td><span><span>On </span><span>28-May-2013</span></span><span><br></br></span><span><span>10:05</span></span></td><td><span><span>Goal</span></span></td></tr></tbody></table></li></ul></div>",
      "subject": {
        "reference": "Patient/56a636a3-5c7a-4692-a25a-658bec7cd1c9",
        "display": "Maria Hernandez"
      }
    }
  }, {
    "resource": {
      "resourceType": "Procedure",
      "id": "a1c2037d-c795-4714-8b18-d4e07c6b7962",
      "identifier": [ {
        "use": "official",
        "system": "urn:oid:1.3.6.1.4.1.22812.4.111.0.4.7",
        "value": "10171670"
      } ],
      "status": "completed",
      "code": {
        "coding": [ {
          "system": "http://www.ama-assn.org/go/cpt",
          "code": "71020",
          "display": "CHEST X-RAY, PA AND LATERAL (71020)"
        } ],
        "text": "CHEST X-RAY, PA AND LATERAL (71020)"
      },
      "subject": {
        "reference": "Patient/56a636a3-5c7a-4692-a25a-658bec7cd1c9",
        "display": "Maria Hernandez"
      },
      "performedPeriod": {
        "start": "2013-05-30",
        "end": "2013-05-30"
      },
      "performer": [ {
        "actor": {
          "reference": "Practitioner/f271df56-ac86-4c10-a325-fe30feb63d50",
          "display": "Terry A Manning MD"
        }
      } ]
    }
  }, {
    "resource": {
      "resourceType": "DiagnosticReport",
      "id": "bbf03cfc-1c56-468d-9b53-c3cf37c05968",
      "identifier": [ {
        "use": "official",
        "system": "urn:oid:1.3.6.1.4.1.22812.4.111.0.4.5",
        "value": "10031369"
      } ],
      "status": "final",
      "category": [ {
        "coding": [ {
          "system": "http://terminology.hl7.org/CodeSystem/v2-0074",
          "code": "LAB",
          "display": "Laboratory"
        } ]
      } ],
      "code": {
        "coding": [ {
          "system": "http://www.ama-assn.org/go/cpt",
          "code": "85014",
          "display": "HCT (HEMATOCRIT) (85014)"
        } ]
      },
      "subject": {
        "reference": "Patient/56a636a3-5c7a-4692-a25a-658bec7cd1c9",
        "display": "Maria Hernandez"
      },
      "effectivePeriod": {
        "start": "2013-05-30T17:25:55-04:00"
      },
      "issued": "2013-05-30T23:25:55.000+02:00",
      "performer": [ {
        "reference": "Practitioner/f271df56-ac86-4c10-a325-fe30feb63d50",
        "display": "Terry A Manning MD"
      } ],
      "result": [ {
        "reference": "Observation/2df44c34-e172-4358-a2d0-3a4133b20578",
        "display": "HCT (HEMATOCRIT)"
      } ]
    }
  }, {
    "resource": {
      "resourceType": "Observation",
      "id": "2df44c34-e172-4358-a2d0-3a4133b20578",
      "identifier": [ {
        "use": "official",
        "system": "urn:oid:1.3.6.1.4.1.22812.4.111.0.4.5",
        "value": "10194109"
      } ],
      "status": "final",
      "category": [ {
        "coding": [ {
          "system": "http://terminology.hl7.org/CodeSystem/observation-category",
          "code": "laboratory"
        } ]
      } ],
      "code": {
        "coding": [ {
          "system": "http://loinc.org",
          "code": "4544-3",
          "display": "HCT (HEMATOCRIT)"
        } ]
      },
      "subject": {
        "reference": "Patient/56a636a3-5c7a-4692-a25a-658bec7cd1c9",
        "display": "Maria Hernandez"
      },
      "effectivePeriod": {
        "start": "2013-05-30T17:25:55-04:00"
      },
      "issued": "2013-05-30T17:25:57-04:00",
      "performer": [ {
        "reference": "Practitioner/353946d9-8f30-431b-8ea6-9d345c5a6391"
      } ],
      "valueQuantity": {
        "value": 44,
        "unit": "%",
        "system": "http://unitsofmeasure.org",
        "code": "%"
      },
      "interpretation": [ {
        "coding": [ {
          "system": "http://terminology.hl7.org/CodeSystem/v3-ObservationInterpretation",
          "code": "N"
        } ]
      } ],
      "referenceRange": [ {
        "text": "42.9 - 49.1"
      } ]
    }
  }, {
    "resource": {
      "resourceType": "Practitioner",
      "id": "353946d9-8f30-431b-8ea6-9d345c5a6391"
    }
  }, {
    "resource": {
      "resourceType": "DiagnosticReport",
      "id": "61f42955-87b1-419e-96b6-d1b29537b411",
      "identifier": [ {
        "use": "official",
        "system": "urn:oid:1.3.6.1.4.1.22812.4.111.0.4.5",
        "value": "10031371"
      } ],
      "status": "final",
      "category": [ {
        "coding": [ {
          "system": "http://terminology.hl7.org/CodeSystem/v2-0074",
          "code": "LAB",
          "display": "Laboratory"
        } ]
      } ],
      "code": {
        "coding": [ {
          "system": "http://www.ama-assn.org/go/cpt",
          "code": "85048",
          "display": "WBC (85048)"
        } ]
      },
      "subject": {
        "reference": "Patient/56a636a3-5c7a-4692-a25a-658bec7cd1c9",
        "display": "Maria Hernandez"
      },
      "effectivePeriod": {
        "start": "2013-05-30T17:25:34-04:00"
      },
      "issued": "2013-05-30T23:25:34.000+02:00",
      "performer": [ {
        "reference": "Practitioner/f271df56-ac86-4c10-a325-fe30feb63d50",
        "display": "Terry A Manning MD"
      } ],
      "result": [ {
        "reference": "Observation/1358911f-94da-4a09-ac99-8469d78e9817",
        "display": "WBC"
      } ]
    }
  }, {
    "resource": {
      "resourceType": "Observation",
      "id": "1358911f-94da-4a09-ac99-8469d78e9817",
      "identifier": [ {
        "use": "official",
        "system": "urn:oid:1.3.6.1.4.1.22812.4.111.0.4.5",
        "value": "10194107"
      } ],
      "status": "final",
      "category": [ {
        "coding": [ {
          "system": "http://terminology.hl7.org/CodeSystem/observation-category",
          "code": "laboratory"
        } ]
      } ],
      "code": {
        "coding": [ {
          "system": "http://loinc.org",
          "code": "6690-2",
          "display": "WBC"
        } ]
      },
      "subject": {
        "reference": "Patient/56a636a3-5c7a-4692-a25a-658bec7cd1c9",
        "display": "Maria Hernandez"
      },
      "effectivePeriod": {
        "start": "2013-05-30T17:25:34-04:00"
      },
      "issued": "2013-05-30T17:25:57-04:00",
      "performer": [ {
        "reference": "Practitioner/a65d6084-218f-4345-ab57-98b35ae89031"
      } ],
      "valueQuantity": {
        "value": 5,
        "unit": "10X9cells/L",
        "system": "http://unitsofmeasure.org",
        "code": "10X9cells/L"
      },
      "interpretation": [ {
        "coding": [ {
          "system": "http://terminology.hl7.org/CodeSystem/v3-ObservationInterpretation",
          "code": "N"
        } ]
      } ],
      "referenceRange": [ {
        "text": "4.5 - 11.0"
      } ]
    }
  }, {
    "resource": {
      "resourceType": "Practitioner",
      "id": "a65d6084-218f-4345-ab57-98b35ae89031"
    }
  }, {
    "resource": {
      "resourceType": "DiagnosticReport",
      "id": "6a3c94a5-d768-477e-bbcb-0f8127908f14",
      "identifier": [ {
        "use": "official",
        "system": "urn:oid:1.3.6.1.4.1.22812.4.111.0.4.5",
        "value": "10031370"
      } ],
      "status": "final",
      "category": [ {
        "coding": [ {
          "system": "http://terminology.hl7.org/CodeSystem/v2-0074",
          "code": "LAB",
          "display": "Laboratory"
        } ]
      } ],
      "code": {
        "coding": [ {
          "system": "http://www.ama-assn.org/go/cpt",
          "code": "85018",
          "display": "HGB (HEMOGLOBIN) (85018)"
        } ]
      },
      "subject": {
        "reference": "Patient/56a636a3-5c7a-4692-a25a-658bec7cd1c9",
        "display": "Maria Hernandez"
      },
      "effectivePeriod": {
        "start": "2013-05-30T17:25:44-04:00"
      },
      "issued": "2013-05-30T23:25:44.000+02:00",
      "performer": [ {
        "reference": "Practitioner/f271df56-ac86-4c10-a325-fe30feb63d50",
        "display": "Terry A Manning MD"
      } ],
      "result": [ {
        "reference": "Observation/6ed3d9ed-42b1-43f5-bf94-e9ac1086a7e6",
        "display": "HGB (HEMOGLOBIN)"
      } ]
    }
  }, {
    "resource": {
      "resourceType": "Observation",
      "id": "6ed3d9ed-42b1-43f5-bf94-e9ac1086a7e6",
      "identifier": [ {
        "use": "official",
        "system": "urn:oid:1.3.6.1.4.1.22812.4.111.0.4.5",
        "value": "10194108"
      } ],
      "status": "final",
      "category": [ {
        "coding": [ {
          "system": "http://terminology.hl7.org/CodeSystem/observation-category",
          "code": "laboratory"
        } ]
      } ],
      "code": {
        "coding": [ {
          "system": "http://loinc.org",
          "code": "718-7",
          "display": "HGB (HEMOGLOBIN)"
        } ]
      },
      "subject": {
        "reference": "Patient/56a636a3-5c7a-4692-a25a-658bec7cd1c9",
        "display": "Maria Hernandez"
      },
      "effectivePeriod": {
        "start": "2013-05-30T17:25:44-04:00"
      },
      "issued": "2013-05-30T17:25:57-04:00",
      "performer": [ {
        "reference": "Practitioner/ce235b4f-4e4a-47ad-a58a-d4ede51931d2"
      } ],
      "valueQuantity": {
        "value": 15,
        "unit": "g/dL",
        "system": "http://unitsofmeasure.org",
        "code": "g/dL"
      },
      "interpretation": [ {
        "coding": [ {
          "system": "http://terminology.hl7.org/CodeSystem/v3-ObservationInterpretation",
          "code": "N"
        } ]
      } ],
      "referenceRange": [ {
        "text": "14.4 - 16.6"
      } ]
    }
  }, {
    "resource": {
      "resourceType": "Practitioner",
      "id": "ce235b4f-4e4a-47ad-a58a-d4ede51931d2"
    }
  }, {
    "resource": {
      "resourceType": "DiagnosticReport",
      "id": "954c39dd-0909-430d-be24-71aadb33b526",
      "identifier": [ {
        "use": "official",
        "system": "urn:oid:1.3.6.1.4.1.22812.4.111.0.4.5",
        "value": "10031373"
      } ],
      "status": "final",
      "category": [ {
        "coding": [ {
          "system": "http://terminology.hl7.org/CodeSystem/v2-0074",
          "code": "LAB",
          "display": "Laboratory"
        } ]
      } ],
      "code": {
        "coding": [ {
          "system": "http://www.ama-assn.org/go/cpt",
          "code": "85049",
          "display": "Copy of BLOOD COUNT, PLATELET, AUTOMATED (85049)"
        } ]
      },
      "subject": {
        "reference": "Patient/56a636a3-5c7a-4692-a25a-658bec7cd1c9",
        "display": "Maria Hernandez"
      },
      "effectivePeriod": {
        "start": "2013-05-30T17:25:23-04:00"
      },
      "issued": "2013-05-30T23:25:23.000+02:00",
      "performer": [ {
        "reference": "Practitioner/f271df56-ac86-4c10-a325-fe30feb63d50",
        "display": "Terry A Manning MD"
      } ],
      "result": [ {
        "reference": "Observation/29efd96a-59ee-4b23-ac0b-e82203abe6a0",
        "display": "Copy of BLOOD COUNT, PLATELET, AUTOMATED"
      } ]
    }
  }, {
    "resource": {
      "resourceType": "Observation",
      "id": "29efd96a-59ee-4b23-ac0b-e82203abe6a0",
      "identifier": [ {
        "use": "official",
        "system": "urn:oid:1.3.6.1.4.1.22812.4.111.0.4.5",
        "value": "10194106"
      } ],
      "status": "final",
      "category": [ {
        "coding": [ {
          "system": "http://terminology.hl7.org/CodeSystem/observation-category",
          "code": "laboratory"
        } ]
      } ],
      "code": {
        "coding": [ {
          "system": "http://loinc.org",
          "code": "26515-7",
          "display": "Copy of BLOOD COUNT, PLATELET, AUTOMATED"
        } ]
      },
      "subject": {
        "reference": "Patient/56a636a3-5c7a-4692-a25a-658bec7cd1c9",
        "display": "Maria Hernandez"
      },
      "effectivePeriod": {
        "start": "2013-05-30T17:25:23-04:00"
      },
      "issued": "2013-05-30T17:25:57-04:00",
      "performer": [ {
        "reference": "Practitioner/ff5d233d-0e8c-491b-b16c-6103bc2566bc"
      } ],
      "valueQuantity": {
        "value": 170,
        "unit": "1",
        "system": "http://unitsofmeasure.org",
        "code": "1"
      },
      "interpretation": [ {
        "coding": [ {
          "system": "http://terminology.hl7.org/CodeSystem/v3-ObservationInterpretation",
          "code": "N"
        } ]
      } ]
    }
  }, {
    "resource": {
      "resourceType": "Practitioner",
      "id": "ff5d233d-0e8c-491b-b16c-6103bc2566bc"
    }
  }, {
    "resource": {
      "resourceType": "DiagnosticReport",
      "id": "34054c37-575c-4637-b4bf-2dabd3abffd6",
      "identifier": [ {
        "use": "official",
        "system": "urn:oid:1.3.6.1.4.1.22812.4.111.0.4.5",
        "value": "10171670"
      } ],
      "status": "final",
      "category": [ {
        "coding": [ {
          "system": "http://terminology.hl7.org/CodeSystem/v2-0074",
          "code": "LAB",
          "display": "Laboratory"
        } ]
      } ],
      "code": {
        "coding": [ {
          "system": "http://www.ama-assn.org/go/cpt",
          "code": "71020",
          "display": "CHEST X-RAY, PA AND LATERAL (71020)"
        } ]
      },
      "subject": {
        "reference": "Patient/56a636a3-5c7a-4692-a25a-658bec7cd1c9",
        "display": "Maria Hernandez"
      },
      "effectivePeriod": {
        "start": "2013-05-30T17:48:24-04:00"
      },
      "issued": "2013-05-30T23:48:24.000+02:00",
      "performer": [ {
        "reference": "Practitioner/afd09e9c-d78e-46f5-9e50-c77a3fe686aa"
      } ],
      "result": [ {
        "reference": "Observation/a0bbad9d-d361-4713-9e3d-a3671d0f5898"
      } ]
    }
  }, {
    "resource": {
      "resourceType": "Practitioner",
      "id": "afd09e9c-d78e-46f5-9e50-c77a3fe686aa"
    }
  }, {
    "resource": {
      "resourceType": "Observation",
      "id": "a0bbad9d-d361-4713-9e3d-a3671d0f5898",
      "identifier": [ {
        "use": "official",
        "system": "urn:oid:1.3.6.1.4.1.22812.4.111.0.4.5",
        "value": "10194110"
      } ],
      "status": "final",
      "category": [ {
        "coding": [ {
          "system": "http://terminology.hl7.org/CodeSystem/observation-category",
          "code": "laboratory"
        } ]
      } ],
      "subject": {
        "reference": "Patient/56a636a3-5c7a-4692-a25a-658bec7cd1c9",
        "display": "Maria Hernandez"
      },
      "effectivePeriod": {
        "start": "2013-05-30T17:48:24-04:00"
      },
      "issued": "2013-05-30T17:48:24-04:00",
      "performer": [ {
        "reference": "Practitioner/d7096bfb-d4f2-4bc0-a13a-f6a2b88a8861"
      } ],
      "valueString": "Abdominal Circumference: 45",
      "interpretation": [ {
        "coding": [ {
          "system": "http://terminology.hl7.org/CodeSystem/v3-ObservationInterpretation",
          "code": "A"
        } ]
      } ]
    }
  }, {
    "resource": {
      "resourceType": "Practitioner",
      "id": "d7096bfb-d4f2-4bc0-a13a-f6a2b88a8861"
    }
  }, {
    "resource": {
      "resourceType": "Condition",
      "id": "adf5ad75-3bae-4c39-859c-d7998b623320",
      "identifier": [ {
        "use": "official",
        "system": "urn:oid:1.3.6.1.4.1.22812.4.111.0.4.1.2.1",
        "value": "10241201"
      } ],
      "clinicalStatus": {
        "coding": [ {
          "system": "http://terminology.hl7.org/CodeSystem/condition-clinical",
          "code": "active",
          "display": "Active"
        } ]
      },
      "verificationStatus": {
        "coding": [ {
          "system": "http://terminology.hl7.org/CodeSystem/condition-ver-status",
          "code": "refuted",
          "display": "Refuted"
        } ]
      },
      "category": [ {
        "coding": [ {
          "system": "http://terminology.hl7.org/CodeSystem/condition-category",
          "code": "problem-list-item",
          "display": "Problem List Item"
        } ]
      } ],
      "code": {
        "coding": [ {
          "system": "http://snomed.info/sct",
          "code": "233604007",
          "display": "Pneumonia"
        }, {
          "system": "urn:oid:2.16.840.1.113883.6.103",
          "code": "486",
          "display": "Pneumonia"
        }, {
          "system": "urn:oid:2.16.840.1.113883.6.90",
          "code": "J18.9",
          "display": "Pneumonia"
        }, {
          "system": "urn:oid:2.16.840.1.113883.3.247.1.1",
          "code": "87580",
          "display": "Pneumonia"
        } ],
        "text": "Pneumonia"
      },
      "subject": {
        "reference": "Patient/56a636a3-5c7a-4692-a25a-658bec7cd1c9",
        "display": "Maria Hernandez"
      },
      "onsetDateTime": "2013-05-30",
      "recordedDate": "2013-05-30T17:14:16-04:00",
      "asserter": {
        "reference": "Practitioner/f271df56-ac86-4c10-a325-fe30feb63d50",
        "display": "Terry A Manning MD"
      }
    }
  }, {
    "resource": {
      "resourceType": "Condition",
      "id": "86407e69-93fb-46a2-b324-2a6f7e79b280",
      "identifier": [ {
        "use": "official",
        "system": "urn:oid:1.3.6.1.4.1.22812.4.111.0.4.1.2.1",
        "value": "10241108"
      } ],
      "clinicalStatus": {
        "coding": [ {
          "system": "http://terminology.hl7.org/CodeSystem/condition-clinical",
          "code": "active",
          "display": "Active"
        } ]
      },
      "verificationStatus": {
        "coding": [ {
          "system": "http://terminology.hl7.org/CodeSystem/condition-ver-status",
          "code": "refuted",
          "display": "Refuted"
        } ]
      },
      "category": [ {
        "coding": [ {
          "system": "http://terminology.hl7.org/CodeSystem/condition-category",
          "code": "problem-list-item",
          "display": "Problem List Item"
        } ]
      } ],
      "code": {
        "coding": [ {
          "system": "http://snomed.info/sct",
          "code": "363746003",
          "display": "Acute pharyngitis"
        }, {
          "system": "urn:oid:2.16.840.1.113883.6.103",
          "code": "462",
          "display": "Acute pharyngitis"
        }, {
          "system": "urn:oid:2.16.840.1.113883.6.90",
          "code": "J02.9",
          "display": "Acute pharyngitis"
        }, {
          "system": "urn:oid:2.16.840.1.113883.3.247.1.1",
          "code": "76313",
          "display": "Acute pharyngitis"
        } ],
        "text": "Acute pharyngitis"
      },
      "subject": {
        "reference": "Patient/56a636a3-5c7a-4692-a25a-658bec7cd1c9",
        "display": "Maria Hernandez"
      },
      "onsetDateTime": "2011-10-28",
      "recordedDate": "2013-05-01T15:07:36-04:00",
      "asserter": {
        "reference": "Practitioner/f271df56-ac86-4c10-a325-fe30feb63d50",
        "display": "Terry A Manning MD"
      }
    }
  }, {
    "resource": {
      "resourceType": "Condition",
      "id": "4e682ef3-4fa3-49f4-9546-f7b9b1ef7ba9",
      "identifier": [ {
        "use": "official",
        "system": "urn:oid:1.3.6.1.4.1.22812.4.111.0.4.1.2.1",
        "value": "10241115"
      } ],
      "clinicalStatus": {
        "coding": [ {
          "system": "http://terminology.hl7.org/CodeSystem/condition-clinical",
          "code": "active",
          "display": "Active"
        } ]
      },
      "verificationStatus": {
        "coding": [ {
          "system": "http://terminology.hl7.org/CodeSystem/condition-ver-status",
          "code": "refuted",
          "display": "Refuted"
        } ]
      },
      "category": [ {
        "coding": [ {
          "system": "http://terminology.hl7.org/CodeSystem/condition-category",
          "code": "problem-list-item",
          "display": "Problem List Item"
        } ]
      } ],
      "code": {
        "coding": [ {
          "system": "http://snomed.info/sct",
          "code": "59621000",
          "display": "Essential hypertension"
        }, {
          "system": "urn:oid:2.16.840.1.113883.6.103",
          "code": "401.9",
          "display": "Essential hypertension"
        }, {
          "system": "urn:oid:2.16.840.1.113883.6.90",
          "code": "I10",
          "display": "Essential hypertension"
        }, {
          "system": "urn:oid:2.16.840.1.113883.3.247.1.1",
          "code": "30422",
          "display": "Essential hypertension"
        } ],
        "text": "Essential hypertension"
      },
      "subject": {
        "reference": "Patient/56a636a3-5c7a-4692-a25a-658bec7cd1c9",
        "display": "Maria Hernandez"
      },
      "onsetDateTime": "2012-09-25",
      "recordedDate": "2013-05-28T08:35:31-04:00",
      "asserter": {
        "reference": "Practitioner/f271df56-ac86-4c10-a325-fe30feb63d50",
        "display": "Terry A Manning MD"
      }
    }
  }, {
    "resource": {
      "resourceType": "AllergyIntolerance",
      "id": "0d0ba8fc-b03c-469f-8c50-2eb2f9a2b009",
      "identifier": [ {
        "use": "official",
        "system": "urn:oid:1.3.6.1.4.1.22812.4.111.0.4.10",
        "value": "10381864"
      } ],
      "clinicalStatus": {
        "coding": [ {
          "system": "http://terminology.hl7.org/CodeSystem/allergyintolerance-clinical",
          "code": "active",
          "display": "Active"
        } ]
      },
      "verificationStatus": {
        "coding": [ {
          "system": "http://terminology.hl7.org/CodeSystem/allergyintolerance-verification",
          "code": "confirmed",
          "display": "Confirmed"
        } ]
      },
      "type": "allergy",
      "category": [ "medication" ],
      "code": {
        "coding": [ {
          "system": "http://www.nlm.nih.gov/research/umls/rxnorm",
          "code": "731590",
          "display": "Penicillin G Benzathine & Proc *PENICILLINS*"
        }, {
          "system": "urn:oid:2.16.840.1.113883.6.253",
          "code": "029572",
          "display": "Penicillin G Benzathine & Proc *PENICILLINS*"
        } ],
        "text": "Penicillin G Benzathine & Proc *PENICILLINS*"
      },
      "patient": {
        "reference": "Patient/56a636a3-5c7a-4692-a25a-658bec7cd1c9",
        "display": "Maria Hernandez"
      },
      "recorder": {
        "reference": "Practitioner/f271df56-ac86-4c10-a325-fe30feb63d50",
        "display": "Terry A Manning MD"
      },
      "reaction": [ {
        "manifestation": [ {
          "text": "Hives"
        } ]
      }, {
        "manifestation": [ {
          "text": "Swelling"
        } ]
      }, {
        "manifestation": [ {
          "text": "Shortness of breath"
        } ]
      } ]
    }
  }, {
    "resource": {
      "resourceType": "AllergyIntolerance",
      "id": "4db73727-6f4d-45ed-9e26-4585db0f02f2",
      "identifier": [ {
        "use": "official",
        "system": "urn:oid:1.3.6.1.4.1.22812.4.111.0.4.10",
        "value": "10381866"
      } ],
      "clinicalStatus": {
        "coding": [ {
          "system": "http://terminology.hl7.org/CodeSystem/allergyintolerance-clinical",
          "code": "active",
          "display": "Active"
        } ]
      },
      "verificationStatus": {
        "coding": [ {
          "system": "http://terminology.hl7.org/CodeSystem/allergyintolerance-verification",
          "code": "confirmed",
          "display": "Confirmed"
        } ]
      },
      "type": "allergy",
      "category": [ "medication" ],
      "code": {
        "coding": [ {
          "system": "http://www.nlm.nih.gov/research/umls/rxnorm",
          "code": "318272",
          "display": "Aspirin *ANALGESICS - NonNarcotic*"
        }, {
          "system": "urn:oid:2.16.840.1.113883.6.253",
          "code": "001922",
          "display": "Aspirin *ANALGESICS - NonNarcotic*"
        } ],
        "text": "Aspirin *ANALGESICS - NonNarcotic*"
      },
      "patient": {
        "reference": "Patient/56a636a3-5c7a-4692-a25a-658bec7cd1c9",
        "display": "Maria Hernandez"
      },
      "recorder": {
        "reference": "Practitioner/f271df56-ac86-4c10-a325-fe30feb63d50",
        "display": "Terry A Manning MD"
      },
      "reaction": [ {
        "manifestation": [ {
          "text": "Hives"
        } ]
      } ]
    }
  }, {
    "resource": {
      "resourceType": "AllergyIntolerance",
      "id": "823fb37d-44e2-485a-80cb-d3eb5e132355",
      "identifier": [ {
        "use": "official",
        "system": "urn:oid:1.3.6.1.4.1.22812.4.111.0.4.10",
        "value": "10381865"
      } ],
      "clinicalStatus": {
        "coding": [ {
          "system": "http://terminology.hl7.org/CodeSystem/allergyintolerance-clinical",
          "code": "active",
          "display": "Active"
        } ]
      },
      "verificationStatus": {
        "coding": [ {
          "system": "http://terminology.hl7.org/CodeSystem/allergyintolerance-verification",
          "code": "confirmed",
          "display": "Confirmed"
        } ]
      },
      "type": "allergy",
      "category": [ "medication" ],
      "code": {
        "coding": [ {
          "system": "http://www.nlm.nih.gov/research/umls/rxnorm",
          "code": "997170",
          "display": "Codeine Sulfate *ANALGESICS - OPIOID*"
        }, {
          "system": "urn:oid:2.16.840.1.113883.6.253",
          "code": "004873",
          "display": "Codeine Sulfate *ANALGESICS - OPIOID*"
        } ],
        "text": "Codeine Sulfate *ANALGESICS - OPIOID*"
      },
      "patient": {
        "reference": "Patient/56a636a3-5c7a-4692-a25a-658bec7cd1c9",
        "display": "Maria Hernandez"
      },
      "recorder": {
        "reference": "Practitioner/f271df56-ac86-4c10-a325-fe30feb63d50",
        "display": "Terry A Manning MD"
      },
      "reaction": [ {
        "manifestation": [ {
          "text": "Anaphylaxis"
        } ]
      } ]
    }
  }, {
    "resource": {
      "resourceType": "Observation",
      "id": "580429ad-857b-4f06-9094-d0401afc279a",
      "status": "final",
      "code": {
        "coding": [ {
          "system": "urn:oid:2.16.840.1.113883.5.4",
          "code": "ASSERTION",
          "display": "Assertion"
        } ]
      },
      "subject": {
        "reference": "Patient/56a636a3-5c7a-4692-a25a-658bec7cd1c9",
        "display": "Maria Hernandez"
      },
      "valueCodeableConcept": {
        "coding": [ {
          "system": "http://snomed.info/sct",
          "code": "266919005",
          "display": "Never smoker"
        } ]
      }
    }
  }, {
    "resource": {
      "resourceType": "Observation",
      "id": "d227cc8c-7f8d-4b42-b60d-69c088d45f40",
      "identifier": [ {
        "use": "official",
        "system": "urn:oid:1.3.6.1.4.1.22812.4.111.0.4.12",
        "value": "999999"
      } ],
      "status": "final",
      "code": {
        "coding": [ {
          "system": "http://snomed.info/sct",
          "code": "228272008"
        } ],
        "text": "No Known Social History"
      },
      "subject": {
        "reference": "Patient/56a636a3-5c7a-4692-a25a-658bec7cd1c9",
        "display": "Maria Hernandez"
      }
    }
  }, {
    "resource": {
      "resourceType": "Observation",
      "id": "15a645a4-ffc6-449e-aa26-e71d12e4d70f",
      "status": "final",
      "code": {
        "coding": [ {
          "system": "urn:oid:2.16.840.1.113883.5.4",
          "code": "ASSERTION",
          "display": "Assertion"
        } ]
      },
      "subject": {
        "reference": "Patient/56a636a3-5c7a-4692-a25a-658bec7cd1c9",
        "display": "Maria Hernandez"
      },
      "valueCodeableConcept": {
        "coding": [ {
          "system": "http://snomed.info/sct",
          "code": "77176002",
          "display": "Smoker. current stants unknown"
        } ]
      }
    }
  }, {
    "resource": {
      "resourceType": "Immunization",
      "id": "a0c11e6e-ab13-46dd-84b0-32bf97383e3e",
      "identifier": [ {
        "use": "official",
        "system": "urn:oid:1.3.6.1.4.1.22812.4.111.0.4.4",
        "value": "1049252"
      } ],
      "status": "completed",
      "vaccineCode": {
        "coding": [ {
          "system": "http://www2a.cdc.gov/vaccines/iis/iisstandards/vaccines.asp?rpt=cvx",
          "code": "141",
          "display": "Influenza (3 years and up)"
        } ],
        "text": "Influenza (3 years and up)"
      },
      "patient": {
        "reference": "Patient/56a636a3-5c7a-4692-a25a-658bec7cd1c9",
        "display": "Maria Hernandez"
      },
      "occurrenceDateTime": "2012-09-25T10:00:00-04:00",
      "primarySource": false,
      "doseQuantity": {
        "value": 0,
        "unit": "1",
        "system": "http://unitsofmeasure.org/ucum.html"
      }
    }
  }, {
    "resource": {
      "resourceType": "Encounter",
      "id": "fc1b8a51-0bfe-4641-b695-88ef5a46b3ef",
      "identifier": [ {
        "use": "official",
        "system": "urn:oid:1.3.6.1.4.1.22812.4.111.0.3.4",
        "value": "3324"
      } ],
      "status": "finished",
      "type": [ {
        "coding": [ {
          "system": "urn:oid:2.16.840.1.113883.5.4"
        } ],
        "text": "Office Visit"
      } ],
      "subject": {
        "reference": "Patient/56a636a3-5c7a-4692-a25a-658bec7cd1c9",
        "display": "Maria Hernandez"
      },
      "period": {
        "start": "2013-05-28T08:34:28+02:00"
      },
      "diagnosis": [ {
        "condition": {
          "reference": "Condition/348a07af-18f3-47f3-848d-d2876e05fb67",
          "display": "Essential hypertension"
        }
      } ]
    }
  }, {
    "resource": {
      "resourceType": "Condition",
      "id": "348a07af-18f3-47f3-848d-d2876e05fb67",
      "identifier": [ {
        "use": "official",
        "system": "urn:oid:1.3.6.1.4.1.22812.4.111.0.4.1.2.1",
        "value": "3324"
      } ],
      "clinicalStatus": {
        "coding": [ {
          "system": "http://terminology.hl7.org/CodeSystem/condition-clinical",
          "code": "active",
          "display": "Active"
        } ]
      },
      "verificationStatus": {
        "coding": [ {
          "system": "http://terminology.hl7.org/CodeSystem/condition-ver-status",
          "code": "confirmed",
          "display": "Confirmed"
        } ]
      },
      "category": [ {
        "coding": [ {
          "system": "http://terminology.hl7.org/CodeSystem/condition-category",
          "code": "problem-list-item",
          "display": "Problem List Item"
        } ]
      } ],
      "code": {
        "text": "Essential hypertension"
      },
      "subject": {
        "reference": "Patient/56a636a3-5c7a-4692-a25a-658bec7cd1c9",
        "display": "Maria Hernandez"
      }
    }
  }, {
    "resource": {
      "resourceType": "Encounter",
      "id": "71633ffe-ff29-4886-bc82-f3d4077cc5c2",
      "identifier": [ {
        "use": "official",
        "system": "urn:oid:1.3.6.1.4.1.22812.4.111.0.3.4",
        "value": "3318"
      } ],
      "status": "finished",
      "type": [ {
        "coding": [ {
          "system": "urn:oid:2.16.840.1.113883.5.4"
        } ],
        "text": "Office Visit"
      } ],
      "subject": {
        "reference": "Patient/56a636a3-5c7a-4692-a25a-658bec7cd1c9",
        "display": "Maria Hernandez"
      },
      "period": {
        "start": "2013-05-01T15:05:57+02:00"
      },
      "diagnosis": [ {
        "condition": {
          "reference": "Condition/0ffa5429-602d-4025-9a7e-835477f4eefd",
          "display": "Acute pharyngitis"
        }
      } ]
    }
  }, {
    "resource": {
      "resourceType": "Condition",
      "id": "0ffa5429-602d-4025-9a7e-835477f4eefd",
      "identifier": [ {
        "use": "official",
        "system": "urn:oid:1.3.6.1.4.1.22812.4.111.0.4.1.2.1",
        "value": "3318"
      } ],
      "clinicalStatus": {
        "coding": [ {
          "system": "http://terminology.hl7.org/CodeSystem/condition-clinical",
          "code": "active",
          "display": "Active"
        } ]
      },
      "verificationStatus": {
        "coding": [ {
          "system": "http://terminology.hl7.org/CodeSystem/condition-ver-status",
          "code": "confirmed",
          "display": "Confirmed"
        } ]
      },
      "category": [ {
        "coding": [ {
          "system": "http://terminology.hl7.org/CodeSystem/condition-category",
          "code": "problem-list-item",
          "display": "Problem List Item"
        } ]
      } ],
      "code": {
        "text": "Acute pharyngitis"
      },
      "subject": {
        "reference": "Patient/56a636a3-5c7a-4692-a25a-658bec7cd1c9",
        "display": "Maria Hernandez"
      }
    }
  }, {
    "resource": {
      "resourceType": "Encounter",
      "id": "0c10f553-2ee8-4295-8f4e-181053110c0a",
      "identifier": [ {
        "use": "official",
        "system": "urn:oid:1.3.6.1.4.1.22812.4.111.0.3.4",
        "value": "3397"
      } ],
      "status": "finished",
      "type": [ {
        "coding": [ {
          "system": "urn:oid:2.16.840.1.113883.5.4"
        } ],
        "text": "Office Visit"
      } ],
      "subject": {
        "reference": "Patient/56a636a3-5c7a-4692-a25a-658bec7cd1c9",
        "display": "Maria Hernandez"
      },
      "period": {
        "start": "2013-05-29T20:46:33+02:00"
      }
    }
  } ]
}