{
  "resourceType": "Bundle",
  "entry": [ {
    "resource": {
      "resourceType": "Composition",
      "id": "3ff36180-837b-4f3c-b62c-3b941443b970",
      "identifier": {
        "use": "official",
        "system": "urn:oid:1.3.6.1.4.1.22812.4.111.0.1",
        "value": "20130718161754"
      },
      "status": "preliminary",
      "type": {
        "coding": [ {
          "system": "http://loinc.org",
          "code": "34133-9",
          "display": "SUMMARIZATION OF EPISODE NOTE"
        } ]
      },
      "category": [ {
        "coding": [ {
          "system": "http://hl7.org/fhir/ValueSet/doc-classcodes",
          "code": "LP173421-7",
          "display": "Note"
        } ]
      } ],
      "subject": {
        "reference": "Patient/fecde1ca-6236-4839-b4cc-b94bb99191ed",
        "display": "Isabella Jones"
      },
      "date": "2013-07-18T16:17:54-04:00",
      "author": [ {
        "reference": "Practitioner/2b116b95-5b2d-4dc5-adff-d3c104ecdb29",
        "display": "Henry Seven"
      }, {
        "reference": "Device/ce1ec56f-2add-409a-b500-7e72ba1a1be7"
      } ],
      "title": "Visit Summary",
      "confidentiality": "N",
      "attester": [ {
        "mode": "legal",
        "time": "2013-07-18T16:17:54-04:00",
        "party": {
          "reference": "Practitioner/2b116b95-5b2d-4dc5-adff-d3c104ecdb29",
          "display": "Henry Seven"
        }
      }, {
        "mode": "professional",
        "time": "2013-07-18T16:17:54-04:00",
        "party": {
          "reference": "Practitioner/2b116b95-5b2d-4dc5-adff-d3c104ecdb29",
          "display": "Henry Seven"
        }
      } ],
      "custodian": {
        "reference": "Organization/d51e94be-68ad-4038-ae8f-c208d1da4a8e",
        "display": "Clinic One"
      },
      "event": [ {
        "period": {
          "start": "2012-08-06T15:03:53+02:00",
          "end": "2013-07-18T16:17:54-04:00"
        },
        "detail": [ {
          "reference": "Practitioner/cf89e839-39de-445b-9cca-e7e5d18859c3",
          "display": "Penny Puffer"
        }, {
          "reference": "Practitioner/2b116b95-5b2d-4dc5-adff-d3c104ecdb29",
          "display": "Henry Seven"
        } ]
      } ],
      "section": [ {
        "title": "Immunization",
        "code": {
          "coding": [ {
            "system": "http://loinc.org",
            "code": "11369-6",
            "display": "Immunizations"
          } ]
        },
        "text": {
          "status": "additional",
          "div": "<div xmlns=\"http://www.w3.org/1999/xhtml\"><table><thead><tr><th>Name</th><th>Dates</th><th>Details</th></tr></thead><tbody><tr><td><span><span>Influenza (3 years and up)</span></span><span><br/></span></td><td><span><span>Administered on<span>:</span></span><span>1-Nov-2010</span></span></td><td/></tr><tr><td><span><span>Influenza (3 years and up)</span></span><span><br/></span></td><td><span><span>Administered on<span>:</span></span><span>10-Sep-2011</span></span></td><td/></tr><tr><td><span><span>Pneumococcal (2 years and up)</span></span><span><br/></span><span>Lot #: </span><span>MK456987</span></td><td><span><span>Administered on<span>:</span></span><span>6-Aug-2012</span></span></td><td><span><span> Comments: </span><span>Site: Deltoid (Left)</span></span><span><br/></span></td></tr><tr><td><span><span>Td (7 years and up)</span></span><span><br/></span></td><td><span><span>Administered on<span>:</span></span><span>4-Jan-2007</span></span></td><td/></tr></tbody></table></div>"
        },
        "mode": "snapshot",
        "entry": [ {
          "reference": "Immunization/e4d4efeb-270b-4c00-b515-7e287e901ee6",
          "display": "Pneumococcal (2 years and up)"
        }, {
          "reference": "Immunization/31647582-efa9-41bd-9b2f-a15488a61146",
          "display": "Influenza (3 years and up)"
        }, {
          "reference": "Immunization/4ee5edbf-b4a1-49d0-b978-360ae841a6dd",
          "display": "Influenza (3 years and up)"
        }, {
          "reference": "Immunization/d4a341b0-79b3-4953-a549-65dd9b921d2c",
          "display": "Td (7 years and up)"
        } ]
      }, {
        "title": "Plan of Care",
        "code": {
          "coding": [ {
            "system": "http://loinc.org",
            "code": "18776-5",
            "display": "Plan of Care"
          } ]
        },
        "text": {
          "status": "additional",
          "div": "<div xmlns=\"http://www.w3.org/1999/xhtml\"><ul><caption>Instructions</caption><li><span><span>No Known Planned Instructions</span></span></li></ul><ul><caption>Planned Observations</caption><li><table><thead><tr><th>Name</th><th>Dates</th><th>Details</th></tr></thead><tbody><tr><td><span><span><span>HGB (85018)</span></span></span><span><span>Reason: </span><span><span>Community acquired pneumonia</span></span></span></td><td><span><span>On </span><span>13-Aug-2012</span></span><span><br/></span><span><span>4:21 PM</span></span></td><td><span><span>Request</span></span></td></tr><tr><td><span><span><span>CULTURE, SPUTUM (87070)</span></span></span><span><span>Reason: </span><span><span>Community acquired pneumonia</span></span></span></td><td><span><span>On </span><span>6-Aug-2012</span></span><span><br/></span><span><span>3:46 PM</span></span></td><td><span><span>Request</span></span></td></tr></tbody></table></li></ul><ul><caption>Planned Encounters</caption><li><table><tbody><tr><td><span><span/></span><span><br/></span><span><span>Clinic One</span></span><span><br/></span><span><br/></span><span><span> Seven</span>, Henry </span></td><td><span><span>On </span><span>8-Aug-2013</span></span><span><br/></span><span><span>9:00 AM</span></span></td></tr></tbody></table></li><li><table><tbody><tr><td><span><span/></span><span><br/></span><span><span>Clinic One</span></span><span><br/></span><span><br/></span><span><span> Seven</span>, Henry </span></td><td><span><span>On </span><span>7-Aug-2013</span></span><span><br/></span><span><span>9:00 AM</span></span></td></tr></tbody></table></li><li><table><tbody><tr><td><span><span/></span><span><br/></span><span><span>Clinic One</span></span><span><br/></span><span><br/></span><span><span> Seven</span>, Henry </span></td><td><span><span>On </span><span>6-Aug-2013</span></span><span><br/></span><span><span>9:00 AM</span></span></td></tr></tbody></table></li></ul><ul><caption>Planned Procedures</caption><li><table><thead><tr><th>Name</th><th>Dates</th><th>Details</th></tr></thead><tbody><tr><td><span><span><span>DIAGNOSTIC COLONOSCOPY (45378)</span></span></span><span><span>By: </span><span><span> Seven</span>, Henry </span></span></td><td><span>On </span><span>22-Sep-2012</span></td><td><span><span>Intent</span></span></td></tr><tr><td><span><span><span>CHEST XRAY, PA &amp; LATERAL (71020)</span></span></span><span><span>By: </span><span><span> Seven</span>, Henry </span></span></td><td><span>On </span><span>13-Aug-2012</span></td><td><span><span>Intent</span></span></td></tr></tbody></table></li></ul></div>"
        },
        "mode": "snapshot",
        "entry": [ {
          "reference": "CarePlan/a6b5ed77-f9ea-47ea-a95a-37bdc43ec691"
        } ]
      }, {
        "title": "Procedures",
        "code": {
          "coding": [ {
            "system": "http://loinc.org",
            "code": "47519-4",
            "display": "History of Procedures"
          } ]
        },
        "text": {
          "status": "additional",
          "div": "<div xmlns=\"http://www.w3.org/1999/xhtml\"><table><thead><tr><th>Procedure</th><th>Dates</th><th>Details</th></tr></thead><tbody><tr><td><span>PNEUMOCOCCAL VACCINE (90732)</span></td><td/><td><span><span>Completed<span>:</span></span><span>6-Aug-2012</span></span></td></tr><tr><td><span>CHEST XRAY, PA &amp; LATERAL (71020)</span></td><td/><td><span><span>Completed<span>:</span></span><span>6-Aug-2012</span></span></td></tr><tr><td><span>ALBUTEROL, INHALATION SOLUTION, COMPOUNDED PRODUCT, ADMINISTERED THROUGH DME, UNIT DOSE, 1 MG (J7609)</span></td><td/><td><span><span>Completed<span>:</span></span><span>6-Aug-2012</span></span></td></tr></tbody></table></div>"
        },
        "mode": "snapshot",
        "entry": [ {
          "reference": "Procedure/e8dbc3cc-976b-41fd-ae99-3c0f7e08b31f",
          "display": "ALBUTEROL, INHALATION SOLUTION, COMPOUNDED PRODUCT, ADMINISTERED THROUGH DME, UNIT DOSE, 1 MG (J7609)"
        }, {
          "reference": "Procedure/6c5f4e94-afb2-49c2-868b-08aa7dfb86f7",
          "display": "CHEST XRAY, PA & LATERAL (71020)"
        }, {
          "reference": "Procedure/d8221b11-4bd7-4381-9598-f6cbd225dada",
          "display": "PNEUMOCOCCAL VACCINE (90732)"
        } ]
      }, {
        "title": "Allergies and Adverse Reactions",
        "code": {
          "coding": [ {
            "system": "http://loinc.org",
            "code": "48765-2",
            "display": "Allergies, adverse reactions, alerts"
          } ]
        },
        "text": {
          "status": "additional",
          "div": "<div xmlns=\"http://www.w3.org/1999/xhtml\"><table><thead><tr><th>Name</th><th>Dates</th><th>Details</th></tr></thead><tbody><tr><td><span><span>Aspirin *ANALGESICS - NonNarcotic*</span></span></td><td><span><span><span>Onset<span>:</span></span><span>2011</span></span></span></td><td><span><span>Status: </span><span>Active</span></span></td></tr><tr><td><span><span>Codeine Sulfate *ANALGESICS - OPIOID*</span></span></td><td><span><span><span>Onset<span>:</span></span><span>2010</span></span></span></td><td><span><span>Status: </span><span>Active</span></span></td></tr><tr><td><span><span>Penicillin G Benzathine *PENICILLINS*</span></span></td><td><span><span><span>Onset<span>:</span></span><span>1-June-2012</span></span></span></td><td><span><span>Status: </span><span>Active</span></span></td></tr></tbody></table></div>"
        },
        "mode": "snapshot",
        "entry": [ {
          "reference": "AllergyIntolerance/5fdfc240-e2a4-47d2-882c-c801624fcc13",
          "display": "Codeine Sulfate *ANALGESICS - OPIOID*"
        }, {
          "reference": "AllergyIntolerance/4d9687ea-80c2-4131-aac2-f832b1040c7f",
          "display": "Penicillin G Benzathine *PENICILLINS*"
        }, {
          "reference": "AllergyIntolerance/bf136a93-d8ab-4f75-8d82-2231d08b5904",
          "display": "Aspirin *ANALGESICS - NonNarcotic*"
        } ]
      }, {
        "title": "Social History",
        "code": {
          "coding": [ {
            "system": "http://loinc.org",
            "code": "29762-2",
            "display": "Social History"
          } ]
        },
        "text": {
          "status": "additional",
          "div": "<div xmlns=\"http://www.w3.org/1999/xhtml\"><table><thead><tr><th>Name</th><th>Dates</th><th>Details</th></tr></thead><tbody><tr><td><span><span>Tobacco use</span></span><span> Current every day smoker. </span><span><span/></span><span><br/></span></td><td/><td><span><span> Comments: </span><span>Current every day smoker. Start: 1992</span></span><span><br/></span></td></tr></tbody></table><ul><caption>Smoking Status</caption><li><span>Current every day smoker</span></li></ul></div>"
        },
        "mode": "snapshot",
        "entry": [ {
          "reference": "Observation/40ed964e-6a3f-4dbf-a3b0-bca68dfb10eb",
          "display": "Tobacco use"
        }, {
          "reference": "Observation/de198b73-1daf-4672-bf1e-b7532f8d0122",
          "display": "Assertion"
        } ]
      }, {
        "title": "Medications",
        "code": {
          "coding": [ {
            "system": "http://loinc.org",
            "code": "10160-0",
            "display": "History of medication use"
          } ]
        },
        "text": {
          "status": "additional",
          "div": "<div xmlns=\"http://www.w3.org/1999/xhtml\"><table><thead><tr><th>Name</th><th>Dates</th><th>Details</th></tr></thead><tbody><tr><td><span><span>CLARITHROMYCIN, 500MG (Oral Tablet)</span></span><span><br/></span><span><span><span> 1 (one) Tablet two times daily for 7 days</span></span></span><span><br/></span><ul><li><table><tbody><tr><td><span> Quantity: </span><span><span>14</span></span></td><td><span> Refills: </span><span><span>0</span></span></td></tr></tbody></table></li></ul><span><br/></span><span><span/></span></td><td><span><span> Ordered <span>:</span></span><span>6-Aug-2012</span></span><span><br/></span><span><span> Seven</span>, Henry </span></td><td><ul><li><table><tbody><tr><td><span> Started </span>6-Aug-2012</td></tr></tbody></table></li></ul><span><span/><span>Active</span></span></td></tr><tr><td><span><span>METOPROLOL TARTRATE, 25MG (Oral Tablet)</span></span><span><br/></span><span><span><span> 1 (one) Tablet daily for 30 days</span></span></span><span><br/></span><ul><li><table><tbody><tr><td><span> Quantity: </span><span><span>30</span></span></td><td><span> Refills: </span><span><span>0</span></span></td></tr></tbody></table></li></ul><span><br/></span><span><span/></span></td><td><span><span> Ordered <span>:</span></span><span>6-Aug-2012</span></span><span><br/></span><span><span> Seven</span>, Henry </span></td><td><ul><li><table><tbody><tr><td><span> Started </span>6-Aug-2012</td></tr></tbody></table></li></ul><span><span/><span>Active</span></span></td></tr><tr><td><span><span>PROVENTIL HFA, 108 (90 Base)MCG/ACT (Inhalation Aerosol Solution)</span></span><span><br/></span><span><span><span> 2 (two) Puff every six hours, as needed for wheezing for 30 days</span></span></span><span><br/></span><ul><li><table><tbody><tr><td><span> Quantity: </span><span><span>1</span></span></td><td><span> Refills: </span><span><span>0</span></span></td></tr></tbody></table></li></ul><span><br/></span><span><span/></span></td><td><span><span> Ordered <span>:</span></span><span>6-Aug-2012</span></span><span><br/></span><span><span> Seven</span>, Henry </span></td><td><ul><li><table><tbody><tr><td><span> Started </span>6-Aug-2012</td></tr></tbody></table></li></ul><span><span/><span>Active</span></span><span><span> Comments: </span><span>Medication taken as needed. </span></span><span><br/></span></td></tr></tbody></table></div>"
        },
        "mode": "snapshot"
      }, {
        "title": "Problems",
        "code": {
          "coding": [ {
            "system": "http://loinc.org",
            "code": "11450-4",
            "display": "Problem List"
          } ]
        },
        "text": {
          "status": "additional",
          "div": "<div xmlns=\"http://www.w3.org/1999/xhtml\"><table><thead><tr><th>Name</th><th>Dates</th><th>Details</th></tr></thead><tbody><tr><td><span><span>Asthma, moderate persistent</span></span><span><span/></span><span><br/></span></td><td/><td><span><span><span>Status: </span><span>Active</span></span></span></td></tr><tr><td><span><span>Community acquired pneumonia</span></span><span><span/></span><span><br/></span></td><td/><td><span><span> Comments: </span><span>Patient may continue to experience low grade fever and chills</span></span><span><br/></span><span><span><span>Status: </span><span>Active</span></span></span></td></tr><tr><td><span><span>Hypoxemia</span></span><span><span/></span><span><br/></span></td><td/><td><span><span><span>Status: </span><span>Active</span></span></span></td></tr></tbody></table></div>"
        },
        "mode": "snapshot",
        "entry": [ {
          "reference": "Condition/847550f1-bafe-4508-9d8b-5a5379990205",
          "display": "Hypoxemia"
        }, {
          "reference": "Condition/087e3348-6af8-4e3b-9f18-c9d212021881",
          "display": "Community acquired pneumonia"
        }, {
          "reference": "Condition/94987167-479a-42e7-b3cf-9fe190afb4bc",
          "display": "Asthma, moderate persistent"
        } ]
      }, {
        "title": "Results",
        "code": {
          "coding": [ {
            "system": "http://loinc.org",
            "code": "30954-2",
            "display": "Relevant diagnostic tests and/or laboratory data"
          } ]
        },
        "text": {
          "status": "additional",
          "div": "<div xmlns=\"http://www.w3.org/1999/xhtml\"><table><thead><tr><th>Date</th><th>Description</th><th>Value</th><th>Details</th></tr></thead><tbody><tr><td><span><span>Resulted on:</span></span><span><br/></span><span>6-Aug-2012 4:06 PM</span></td><td><span>PNEUMOCOCCAL VACCINE (90732)</span></td><td><span/></td><td><span>Normal</span><span><br/></span></td></tr><tr><td/><td/><td/><td/></tr></tbody><tbody><tr><td><span><br/></span><span>3:30 PM</span></td><td><span>CHEST XRAY, PA &amp; LATERAL (71020)</span></td><td><span>Comments: consistent with pneumonia </span></td><td><span>Normal</span><span><br/></span></td></tr><tr><td/><td/><td/><td/></tr></tbody><tbody><tr><td><span><br/></span><span>18-July-2013 3:21 PM</span></td><td colspan=\"2\"><span>HCT (85014)</span></td><td/><td/></tr><tr><td/><td><span>HCT</span></td><td><span>45  %</span></td><td><span>Range: 42.9 - 49.1 = Normal</span><span><br/></span></td></tr></tbody><tbody><tr><td><span><br/></span><span>3:21 PM</span></td><td colspan=\"2\"><span>HGB (85018)</span></td><td/><td/></tr><tr><td/><td><span>HGB</span></td><td><span>14.2  g/dL</span></td><td><span>Range: 14.4 - 16.6 = Abnormal</span><span><br/></span></td></tr></tbody><tbody><tr><td><span><br/></span><span>3:21 PM</span></td><td colspan=\"2\"><span>PLT (85049)</span></td><td/><td/></tr><tr><td/><td><span>PLT</span></td><td><span>220  10^3/ul</span></td><td><span>Normal</span><span><br/></span></td></tr></tbody><tbody><tr><td><span><br/></span><span>3:21 PM</span></td><td colspan=\"2\"><span>WBC (85048)</span></td><td/><td/></tr><tr><td/><td><span>WBC</span></td><td><span>7.6  10^3/ul</span></td><td><span>Range: 4.5 - 11.0 = Normal</span><span><br/></span></td></tr></tbody></table></div>"
        },
        "mode": "snapshot",
        "entry": [ {
          "reference": "DiagnosticReport/4174ec87-5786-4ed7-95f2-affe85cf5d7d",
          "display": "PLT (85049)"
        }, {
          "reference": "DiagnosticReport/e0466da8-4ca6-413d-90b8-448d3bb91b7a",
          "display": "PNEUMOCOCCAL VACCINE (90732)"
        }, {
          "reference": "DiagnosticReport/8cc93f8d-5b3a-4047-bc47-3abcc819f8ce",
          "display": "HCT (85014)"
        }, {
          "reference": "DiagnosticReport/bea60782-1f4a-4781-9b5f-787a4f83bca4",
          "display": "WBC (85048)"
        }, {
          "reference": "DiagnosticReport/0bc6dfc6-c95a-443f-a82d-8577d09f7b4b",
          "display": "HGB (85018)"
        }, {
          "reference": "DiagnosticReport/8c387dff-a2ff-4c5b-9aca-852b44f80193",
          "display": "CHEST XRAY, PA & LATERAL (71020)"
        } ]
      }, {
        "title": "Encounters",
        "code": {
          "coding": [ {
            "system": "http://loinc.org",
            "code": "46240-8",
            "display": "Encounters"
          } ]
        },
        "text": {
          "status": "additional",
          "div": "<div xmlns=\"http://www.w3.org/1999/xhtml\"><table><tbody><tr><td><span><span>Office Visit</span></span><span><br/></span><span><span>Encounter Reason: </span><span>Fever and chills - The fever and chills have been occurring for 2 days. There has been associated cough (green sputum).</span></span><span><span>Encounter Diagnosis: </span><span>Community acquired pneumonia</span><span>, </span><span>Asthma, moderate persistent</span><span>, </span><span>Hypoxemia</span></span><span/><span><span>Clinic One</span></span><span><br/></span></td><td><span><span>On </span><span>6-Aug-2012</span></span><span><br/></span><span><span>3:03 PM</span></span></td></tr></tbody></table></div>"
        },
        "mode": "snapshot",
        "entry": [ {
          "reference": "Encounter/2a715a81-2db6-401e-b7a1-21579119bf15",
          "display": "Office Visit"
        } ]
      } ]
    }
  }, {
    "resource": {
      "resourceType": "Patient",
      "id": "fecde1ca-6236-4839-b4cc-b94bb99191ed",
      "extension": [ {
        "url": "http://hl7.org/fhir/us/core/StructureDefinition/us-core-race",
        "extension": [ {
          "url": "text",
          "valueString": "White"
        }, {
          "url": "ombCategory",
          "valueCoding": {
            "system": "urn:oid:2.16.840.1.113883.6.238",
            "code": "2106-3",
            "display": "White"
          }
        } ]
      }, {
        "url": "http://hl7.org/fhir/us/core/StructureDefinition/us-core-ethnicity",
        "extension": [ {
          "url": "text",
          "valueString": "Not Hispanic or Latino"
        }, {
          "url": "ombCategory",
          "valueCoding": {
            "system": "urn:oid:2.16.840.1.113883.6.238",
            "code": "2186-5",
            "display": "Not Hispanic or Latino"
          }
        } ]
      } ],
      "identifier": [ {
        "use": "official",
        "system": "urn:oid:1.3.6.1.4.1.22812.4.111.0",
        "value": "170314e2"
      } ],
      "name": [ {
        "family": "Jones",
        "given": [ "Isabella" ]
      } ],
      "telecom": [ {
        "system": "phone",
        "value": "+1-(919)888-9658"
      } ],
      "gender": "female",
      "birthDate": "1947-05-01",
      "address": [ {
        "use": "home",
        "line": [ "1234 DGI Blvd" ],
        "city": "Raleigh",
        "state": "NC",
        "postalCode": "27615",
        "country": "US"
      } ],
      "communication": [ {
        "language": {
          "coding": [ {
            "system": "urn:ietf:bcp:47",
            "code": "eng"
          } ]
        },
        "preferred": false
      } ],
      "managingOrganization": {
        "reference": "Organization/d51e94be-68ad-4038-ae8f-c208d1da4a8e",
        "display": "Clinic One"
      }
    }
  }, {
    "resource": {
      "resourceType": "Organization",
      "id": "d51e94be-68ad-4038-ae8f-c208d1da4a8e",
      "identifier": [ {
        "use": "official",
        "system": "urn:oid:1.3.6.1.4.1.22812.4.111.0",
        "value": "0"
      } ],
      "name": "Clinic One",
      "telecom": [ {
        "system": "phone",
        "value": "+1-(202)555-1212"
      } ],
      "address": [ {
        "line": [ "90001 1ST AVE STE 100" ],
        "city": "Washington",
        "state": "DC",
        "postalCode": "20000",
        "country": "US"
      } ]
    }
  }, {
    "resource": {
      "resourceType": "Practitioner",
      "id": "2b116b95-5b2d-4dc5-adff-d3c104ecdb29",
      "identifier": [ {
        "use": "official",
        "system": "urn:oid:2.16.840.1.113883.4.6",
        "value": "1569874562"
      }, {
        "use": "official",
        "system": "urn:oid:1.3.6.1.4.1.22812.4.111.0",
        "value": "10077"
      } ],
      "name": [ {
        "family": "Seven",
        "given": [ "Henry" ]
      } ],
      "telecom": [ {
        "system": "phone",
        "value": "+1-(555)555-1002"
      } ],
      "address": [ {
        "line": [ "1002 Healthcare Dr." ],
        "city": "Portland",
        "state": "OR",
        "postalCode": "97005",
        "country": "US"
      } ]
    }
  }, {
    "resource": {
      "resourceType": "Device",
      "id": "ce1ec56f-2add-409a-b500-7e72ba1a1be7",
      "identifier": [ {
        "use": "official",
        "system": "urn:oid:1.3.6.1.4.1.22812.4.111.0.3.3",
        "value": "0"
      } ],
      "manufacturer": "Professional EHR 13.0.0.534",
      "type": {
        "coding": [ {
          "display": "Professional EHR 13.0.0.534"
        } ]
      },
      "version": [ {
        "value": "Professional EHR 13.0.0.534; Transform 4.1.1.25"
      } ],
      "owner": {
        "reference": "Organization/d51e94be-68ad-4038-ae8f-c208d1da4a8e"
      }
    }
  }, {
    "resource": {
      "resourceType": "Practitioner",
      "id": "cf89e839-39de-445b-9cca-e7e5d18859c3",
      "identifier": [ {
        "use": "official",
        "system": "urn:oid:1.3.6.1.4.1.22812.4.111.0",
        "value": "10084"
      } ],
      "name": [ {
        "family": "Puffer",
        "given": [ "Penny" ]
      } ],
      "telecom": [ {
        "system": "phone",
        "value": "+1-(555)555-1049"
      } ],
      "address": [ {
        "line": [ "1047 Healthcare Drive" ],
        "city": "Portland",
        "state": "OR",
        "postalCode": "97005",
        "country": "US"
      } ]
    }
  }, {
    "resource": {
      "resourceType": "Immunization",
      "id": "e4d4efeb-270b-4c00-b515-7e287e901ee6",
      "identifier": [ {
        "use": "official",
        "system": "urn:oid:1.3.6.1.4.1.22812.4.111.0.4.4",
        "value": "1049280"
      } ],
      "status": "completed",
      "vaccineCode": {
        "coding": [ {
          "system": "http://www2a.cdc.gov/vaccines/iis/iisstandards/vaccines.asp?rpt=cvx",
          "code": "33",
          "display": "Pneumococcal (2 years and up)"
        } ],
        "text": "Pneumococcal (2 years and up)"
      },
      "patient": {
        "reference": "Patient/fecde1ca-6236-4839-b4cc-b94bb99191ed",
        "display": "Isabella Jones"
      },
      "occurrenceDateTime": "2012-08-06T15:35:00-04:00",
      "primarySource": true,
      "manufacturer": {
        "reference": "Organization/39827a57-bade-4812-81c9-34ac87caaeba",
        "display": "Merck and Co., Inc."
      },
      "lotNumber": "MK456987",
      "route": {
        "coding": [ {
          "system": "http://www.nlm.nih.gov/research/umls/nci",
          "code": "C28161",
          "display": "INTRAMUSCULAR"
        } ]
      },
      "doseQuantity": {
        "value": 0.5,
        "unit": "ml",
        "system": "http://unitsofmeasure.org/ucum.html"
      },
      "performer": [ {
        "function": {
          "coding": [ {
            "system": "http://hl7.org/fhir/v2/0443",
            "code": "AP",
            "display": "Administering Provider"
          } ]
        },
        "actor": {
          "reference": "Practitioner/2b116b95-5b2d-4dc5-adff-d3c104ecdb29",
          "display": "Henry Seven"
        }
      } ]
    }
  }, {
    "resource": {
      "resourceType": "Organization",
      "id": "39827a57-bade-4812-81c9-34ac87caaeba",
      "name": "Merck and Co., Inc."
    }
  }, {
    "resource": {
      "resourceType": "Immunization",
      "id": "31647582-efa9-41bd-9b2f-a15488a61146",
      "identifier": [ {
        "use": "official",
        "system": "urn:oid:1.3.6.1.4.1.22812.4.111.0.4.4",
        "value": "1049283"
      } ],
      "status": "completed",
      "vaccineCode": {
        "coding": [ {
          "system": "http://www2a.cdc.gov/vaccines/iis/iisstandards/vaccines.asp?rpt=cvx",
          "code": "141",
          "display": "Influenza (3 years and up)"
        } ],
        "text": "Influenza (3 years and up)"
      },
      "patient": {
        "reference": "Patient/fecde1ca-6236-4839-b4cc-b94bb99191ed",
        "display": "Isabella Jones"
      },
      "occurrenceDateTime": "2011-09-10",
      "primarySource": false,
      "doseQuantity": {
        "value": 0,
        "unit": "1",
        "system": "http://unitsofmeasure.org/ucum.html"
      }
    }
  }, {
    "resource": {
      "resourceType": "Immunization",
      "id": "4ee5edbf-b4a1-49d0-b978-360ae841a6dd",
      "identifier": [ {
        "use": "official",
        "system": "urn:oid:1.3.6.1.4.1.22812.4.111.0.4.4",
        "value": "1049282"
      } ],
      "status": "completed",
      "vaccineCode": {
        "coding": [ {
          "system": "http://www2a.cdc.gov/vaccines/iis/iisstandards/vaccines.asp?rpt=cvx",
          "code": "141",
          "display": "Influenza (3 years and up)"
        } ],
        "text": "Influenza (3 years and up)"
      },
      "patient": {
        "reference": "Patient/fecde1ca-6236-4839-b4cc-b94bb99191ed",
        "display": "Isabella Jones"
      },
      "occurrenceDateTime": "2010-11-01",
      "primarySource": false,
      "doseQuantity": {
        "value": 0,
        "unit": "1",
        "system": "http://unitsofmeasure.org/ucum.html"
      }
    }
  }, {
    "resource": {
      "resourceType": "Immunization",
      "id": "d4a341b0-79b3-4953-a549-65dd9b921d2c",
      "identifier": [ {
        "use": "official",
        "system": "urn:oid:1.3.6.1.4.1.22812.4.111.0.4.4",
        "value": "1049284"
      } ],
      "status": "completed",
      "vaccineCode": {
        "coding": [ {
          "system": "http://www2a.cdc.gov/vaccines/iis/iisstandards/vaccines.asp?rpt=cvx",
          "code": "09",
          "display": "Td (7 years and up)"
        } ],
        "text": "Td (7 years and up)"
      },
      "patient": {
        "reference": "Patient/fecde1ca-6236-4839-b4cc-b94bb99191ed",
        "display": "Isabella Jones"
      },
      "occurrenceDateTime": "2007-01-04",
      "primarySource": false,
      "doseQuantity": {
        "value": 0,
        "unit": "1",
        "system": "http://unitsofmeasure.org/ucum.html"
      }
    }
  }, {
    "resource": {
      "resourceType": "CarePlan",
      "id": "a6b5ed77-f9ea-47ea-a95a-37bdc43ec691",
      "text": {
        "status": "additional",
        "div": "<div xmlns=\"http://www.w3.org/1999/xhtml\"><ul><caption>Instructions</caption><li><span><span>No Known Planned Instructions</span></span></li></ul><ul><caption>Planned Observations</caption><li><table><thead><tr><th>Name</th><th>Dates</th><th>Details</th></tr></thead><tbody><tr><td><span><span><span>HGB (85018)</span></span></span><span><span>Reason: </span><span><span>Community acquired pneumonia</span></span></span></td><td><span><span>On </span><span>13-Aug-2012</span></span><span><br/></span><span><span>4:21 PM</span></span></td><td><span><span>Request</span></span></td></tr><tr><td><span><span><span>CULTURE, SPUTUM (87070)</span></span></span><span><span>Reason: </span><span><span>Community acquired pneumonia</span></span></span></td><td><span><span>On </span><span>6-Aug-2012</span></span><span><br/></span><span><span>3:46 PM</span></span></td><td><span><span>Request</span></span></td></tr></tbody></table></li></ul><ul><caption>Planned Encounters</caption><li><table><tbody><tr><td><span><span/></span><span><br/></span><span><span>Clinic One</span></span><span><br/></span><span><br/></span><span><span> Seven</span>, Henry </span></td><td><span><span>On </span><span>8-Aug-2013</span></span><span><br/></span><span><span>9:00 AM</span></span></td></tr></tbody></table></li><li><table><tbody><tr><td><span><span/></span><span><br/></span><span><span>Clinic One</span></span><span><br/></span><span><br/></span><span><span> Seven</span>, Henry </span></td><td><span><span>On </span><span>7-Aug-2013</span></span><span><br/></span><span><span>9:00 AM</span></span></td></tr></tbody></table></li><li><table><tbody><tr><td><span><span/></span><span><br/></span><span><span>Clinic One</span></span><span><br/></span><span><br/></span><span><span> Seven</span>, Henry </span></td><td><span><span>On </span><span>6-Aug-2013</span></span><span><br/></span><span><span>9:00 AM</span></span></td></tr></tbody></table></li></ul><ul><caption>Planned Procedures</caption><li><table><thead><tr><th>Name</th><th>Dates</th><th>Details</th></tr></thead><tbody><tr><td><span><span><span>DIAGNOSTIC COLONOSCOPY (45378)</span></span></span><span><span>By: </span><span><span> Seven</span>, Henry </span></span></td><td><span>On </span><span>22-Sep-2012</span></td><td><span><span>Intent</span></span></td></tr><tr><td><span><span><span>CHEST XRAY, PA &amp; LATERAL (71020)</span></span></span><span><span>By: </span><span><span> Seven</span>, Henry </span></span></td><td><span>On </span><span>13-Aug-2012</span></td><td><span><span>Intent</span></span></td></tr></tbody></table></li></ul></div>"
      },
      "status": "active",
      "intent": "plan",
      "category": [ {
        "coding": [ {
          "system": "http://hl7.org/fhir/us/core/CodeSystem/careplan-category",
          "code": "assess-plan"
        } ]
      } ],
      "title": "Plan of Care",
      "description": "<div><ul><caption>Instructions</caption><li><span><span>No Known Planned Instructions</span></span></li></ul><ul><caption>Planned Observations</caption><li><table><thead><tr><th>Name</th><th>Dates</th><th>Details</th></tr></thead><tbody><tr><td><span><span><span>HGB (85018)</span></span></span><span><span>Reason: </span><span><span>Community acquired pneumonia</span></span></span></td><td><span><span>On </span><span>13-Aug-2012</span></span><span><br></br></span><span><span>4:21 PM</span></span></td><td><span><span>Request</span></span></td></tr><tr><td><span><span><span>CULTURE, SPUTUM (87070)</span></span></span><span><span>Reason: </span><span><span>Community acquired pneumonia</span></span></span></td><td><span><span>On </span><span>6-Aug-2012</span></span><span><br></br></span><span><span>3:46 PM</span></span></td><td><span><span>Request</span></span></td></tr></tbody></table></li></ul><ul><caption>Planned Encounters</caption><li><table><tbody><tr><td><span><span></span></span><span><br></br></span><span><span>Clinic One</span></span><span><br></br></span><span><br></br></span><span><span> Seven</span>, Henry </span></td><td><span><span>On </span><span>8-Aug-2013</span></span><span><br></br></span><span><span>9:00 AM</span></span></td></tr></tbody></table></li><li><table><tbody><tr><td><span><span></span></span><span><br></br></span><span><span>Clinic One</span></span><span><br></br></span><span><br></br></span><span><span> Seven</span>, Henry </span></td><td><span><span>On </span><span>7-Aug-2013</span></span><span><br></br></span><span><span>9:00 AM</span></span></td></tr></tbody></table></li><li><table><tbody><tr><td><span><span></span></span><span><br></br></span><span><span>Clinic One</span></span><span><br></br></span><span><br></br></span><span><span> Seven</span>, Henry </span></td><td><span><span>On </span><span>6-Aug-2013</span></span><span><br></br></span><span><span>9:00 AM</span></span></td></tr></tbody></table></li></ul><ul><caption>Planned Procedures</caption><li><table><thead><tr><th>Name</th><th>Dates</th><th>Details</th></tr></thead><tbody><tr><td><span><span><span>DIAGNOSTIC COLONOSCOPY (45378)</span></span></span><span><span>By: </span><span><span> Seven</span>, Henry </span></span></td><td><span>On </span><span>22-Sep-2012</span></td><td><span><span>Intent</span></span></td></tr><tr><td><span><span><span>CHEST XRAY, PA &amp; LATERAL (71020)</span></span></span><span><span>By: </span><span><span> Seven</span>, Henry </span></span></td><td><span>On </span><span>13-Aug-2012</span></td><td><span><span>Intent</span></span></td></tr></tbody></table></li></ul></div>",
      "subject": {
        "reference": "Patient/fecde1ca-6236-4839-b4cc-b94bb99191ed",
        "display": "Isabella Jones"
      }
    }
  }, {
    "resource": {
      "resourceType": "Procedure",
      "id": "e8dbc3cc-976b-41fd-ae99-3c0f7e08b31f",
      "identifier": [ {
        "use": "official",
        "system": "urn:oid:1.3.6.1.4.1.22812.4.111.0.4.7",
        "value": "10171829"
      } ],
      "status": "completed",
      "code": {
        "coding": [ {
          "system": "urn:oid:2.16.840.1.113883.6.285",
          "code": "J7609",
          "display": "ALBUTEROL, INHALATION SOLUTION, COMPOUNDED PRODUCT, ADMINISTERED THROUGH DME, UNIT DOSE, 1 MG (J7609)"
        } ],
        "text": "ALBUTEROL, INHALATION SOLUTION, COMPOUNDED PRODUCT, ADMINISTERED THROUGH DME, UNIT DOSE, 1 MG (J7609)"
      },
      "subject": {
        "reference": "Patient/fecde1ca-6236-4839-b4cc-b94bb99191ed",
        "display": "Isabella Jones"
      },
      "performedPeriod": {
        "start": "2012-08-06",
        "end": "2012-08-06"
      },
      "performer": [ {
        "actor": {
          "reference": "Practitioner/2b116b95-5b2d-4dc5-adff-d3c104ecdb29",
          "display": "Henry Seven"
        }
      } ]
    }
  }, {
    "resource": {
      "resourceType": "Procedure",
      "id": "6c5f4e94-afb2-49c2-868b-08aa7dfb86f7",
      "identifier": [ {
        "use": "official",
        "system": "urn:oid:1.3.6.1.4.1.22812.4.111.0.4.7",
        "value": "10171832"
      } ],
      "status": "completed",
      "code": {
        "coding": [ {
          "system": "http://www.ama-assn.org/go/cpt",
          "code": "71020",
          "display": "CHEST XRAY, PA & LATERAL (71020)"
        } ],
        "text": "CHEST XRAY, PA & LATERAL (71020)"
      },
      "subject": {
        "reference": "Patient/fecde1ca-6236-4839-b4cc-b94bb99191ed",
        "display": "Isabella Jones"
      },
      "performedPeriod": {
        "start": "2012-08-06",
        "end": "2012-08-06"
      },
      "performer": [ {
        "actor": {
          "reference": "Practitioner/2b116b95-5b2d-4dc5-adff-d3c104ecdb29",
          "display": "Henry Seven"
        }
      } ]
    }
  }, {
    "resource": {
      "resourceType": "Procedure",
      "id": "d8221b11-4bd7-4381-9598-f6cbd225dada",
      "identifier": [ {
        "use": "official",
        "system": "urn:oid:1.3.6.1.4.1.22812.4.111.0.4.7",
        "value": "10171837"
      } ],
      "status": "completed",
      "code": {
        "coding": [ {
          "system": "http://www.ama-assn.org/go/cpt",
          "code": "90732",
          "display": "PNEUMOCOCCAL VACCINE (90732)"
        } ],
        "text": "PNEUMOCOCCAL VACCINE (90732)"
      },
      "subject": {
        "reference": "Patient/fecde1ca-6236-4839-b4cc-b94bb99191ed",
        "display": "Isabella Jones"
      },
      "performedPeriod": {
        "start": "2012-08-06",
        "end": "2012-08-06"
      },
      "performer": [ {
        "actor": {
          "reference": "Practitioner/2b116b95-5b2d-4dc5-adff-d3c104ecdb29",
          "display": "Henry Seven"
        }
      } ]
    }
  }, {
    "resource": {
      "resourceType": "AllergyIntolerance",
      "id": "5fdfc240-e2a4-47d2-882c-c801624fcc13",
      "identifier": [ {
        "use": "official",
        "system": "urn:oid:1.3.6.1.4.1.22812.4.111.0.4.10",
        "value": "10381930"
      } ],
      "clinicalStatus": {
        "coding": [ {
          "system": "http://terminology.hl7.org/CodeSystem/allergyintolerance-clinical",
          "code": "active",
          "display": "Active"
        } ]
      },
      "verificationStatus": {
        "coding": [ {
          "system": "http://terminology.hl7.org/CodeSystem/allergyintolerance-verification",
          "code": "confirmed",
          "display": "Confirmed"
        } ]
      },
      "type": "allergy",
      "category": [ "medication" ],
      "code": {
        "coding": [ {
          "system": "http://www.nlm.nih.gov/research/umls/rxnorm",
          "code": "997170",
          "display": "Codeine Sulfate *ANALGESICS - OPIOID*"
        }, {
          "system": "urn:oid:2.16.840.1.113883.6.253",
          "code": "004873",
          "display": "Codeine Sulfate *ANALGESICS - OPIOID*"
        } ],
        "text": "Codeine Sulfate *ANALGESICS - OPIOID*"
      },
      "patient": {
        "reference": "Patient/fecde1ca-6236-4839-b4cc-b94bb99191ed",
        "display": "Isabella Jones"
      },
      "onsetDateTime": "2010",
      "recordedDate": "2010",
      "recorder": {
        "reference": "Practitioner/2b116b95-5b2d-4dc5-adff-d3c104ecdb29",
        "display": "Henry Seven"
      }
    }
  }, {
    "resource": {
      "resourceType": "AllergyIntolerance",
      "id": "4d9687ea-80c2-4131-aac2-f832b1040c7f",
      "identifier": [ {
        "use": "official",
        "system": "urn:oid:1.3.6.1.4.1.22812.4.111.0.4.10",
        "value": "10381929"
      } ],
      "clinicalStatus": {
        "coding": [ {
          "system": "http://terminology.hl7.org/CodeSystem/allergyintolerance-clinical",
          "code": "active",
          "display": "Active"
        } ]
      },
      "verificationStatus": {
        "coding": [ {
          "system": "http://terminology.hl7.org/CodeSystem/allergyintolerance-verification",
          "code": "confirmed",
          "display": "Confirmed"
        } ]
      },
      "type": "allergy",
      "category": [ "medication" ],
      "code": {
        "coding": [ {
          "system": "http://www.nlm.nih.gov/research/umls/rxnorm",
          "code": "731575",
          "display": "Penicillin G Benzathine *PENICILLINS*"
        }, {
          "system": "urn:oid:2.16.840.1.113883.6.253",
          "code": "029551",
          "display": "Penicillin G Benzathine *PENICILLINS*"
        } ],
        "text": "Penicillin G Benzathine *PENICILLINS*"
      },
      "patient": {
        "reference": "Patient/fecde1ca-6236-4839-b4cc-b94bb99191ed",
        "display": "Isabella Jones"
      },
      "onsetDateTime": "2012-06-01T15:07:00-04:00",
      "recordedDate": "2012-06-01T15:07:00-04:00",
      "recorder": {
        "reference": "Practitioner/2b116b95-5b2d-4dc5-adff-d3c104ecdb29",
        "display": "Henry Seven"
      }
    }
  }, {
    "resource": {
      "resourceType": "AllergyIntolerance",
      "id": "bf136a93-d8ab-4f75-8d82-2231d08b5904",
      "identifier": [ {
        "use": "official",
        "system": "urn:oid:1.3.6.1.4.1.22812.4.111.0.4.10",
        "value": "10381931"
      } ],
      "clinicalStatus": {
        "coding": [ {
          "system": "http://terminology.hl7.org/CodeSystem/allergyintolerance-clinical",
          "code": "active",
          "display": "Active"
        } ]
      },
      "verificationStatus": {
        "coding": [ {
          "system": "http://terminology.hl7.org/CodeSystem/allergyintolerance-verification",
          "code": "confirmed",
          "display": "Confirmed"
        } ]
      },
      "type": "allergy",
      "category": [ "medication" ],
      "code": {
        "coding": [ {
          "system": "http://www.nlm.nih.gov/research/umls/rxnorm",
          "code": "318272",
          "display": "Aspirin *ANALGESICS - NonNarcotic*"
        }, {
          "system": "urn:oid:2.16.840.1.113883.6.253",
          "code": "001922",
          "display": "Aspirin *ANALGESICS - NonNarcotic*"
        } ],
        "text": "Aspirin *ANALGESICS - NonNarcotic*"
      },
      "patient": {
        "reference": "Patient/fecde1ca-6236-4839-b4cc-b94bb99191ed",
        "display": "Isabella Jones"
      },
      "onsetDateTime": "2011",
      "recordedDate": "2011",
      "recorder": {
        "reference": "Practitioner/2b116b95-5b2d-4dc5-adff-d3c104ecdb29",
        "display": "Henry Seven"
      }
    }
  }, {
    "resource": {
      "resourceType": "Observation",
      "id": "40ed964e-6a3f-4dbf-a3b0-bca68dfb10eb",
      "identifier": [ {
        "use": "official",
        "system": "urn:oid:1.3.6.1.4.1.22812.4.111.0.4.12",
        "value": "10381928"
      } ],
      "status": "final",
      "code": {
        "coding": [ {
          "system": "urn:oid:1.3.6.1.4.1.22812.18.9.1",
          "code": "22154",
          "display": "Tobacco use"
        } ],
        "text": "Tobacco use"
      },
      "subject": {
        "reference": "Patient/fecde1ca-6236-4839-b4cc-b94bb99191ed",
        "display": "Isabella Jones"
      },
      "issued": "2012-08-06T15:06:35-04:00",
      "performer": [ {
        "reference": "Practitioner/2b116b95-5b2d-4dc5-adff-d3c104ecdb29"
      } ],
      "valueString": "Current every day smoker. "
    }
  }, {
    "resource": {
      "resourceType": "Observation",
      "id": "de198b73-1daf-4672-bf1e-b7532f8d0122",
      "status": "final",
      "code": {
        "coding": [ {
          "system": "urn:oid:2.16.840.1.113883.5.4",
          "code": "ASSERTION",
          "display": "Assertion"
        } ]
      },
      "subject": {
        "reference": "Patient/fecde1ca-6236-4839-b4cc-b94bb99191ed",
        "display": "Isabella Jones"
      },
      "valueCodeableConcept": {
        "coding": [ {
          "system": "http://snomed.info/sct",
          "code": "449868002",
          "display": "Current every day smoker"
        } ]
      }
    }
  }, {
    "resource": {
      "resourceType": "Condition",
      "id": "847550f1-bafe-4508-9d8b-5a5379990205",
      "identifier": [ {
        "use": "official",
        "system": "urn:oid:1.3.6.1.4.1.22812.4.111.0.4.1.2.1",
        "value": "10241361"
      } ],
      "clinicalStatus": {
        "coding": [ {
          "system": "http://terminology.hl7.org/CodeSystem/condition-clinical",
          "code": "active",
          "display": "Active"
        } ]
      },
      "verificationStatus": {
        "coding": [ {
          "system": "http://terminology.hl7.org/CodeSystem/condition-ver-status",
          "code": "refuted",
          "display": "Refuted"
        } ]
      },
      "category": [ {
        "coding": [ {
          "system": "http://terminology.hl7.org/CodeSystem/condition-category",
          "code": "problem-list-item",
          "display": "Problem List Item"
        } ]
      } ],
      "code": {
        "coding": [ {
          "system": "http://snomed.info/sct",
          "code": "389087006",
          "display": "Hypoxemia"
        }, {
          "system": "urn:oid:2.16.840.1.113883.6.103",
          "code": "799.02",
          "display": "Hypoxemia"
        }, {
          "system": "urn:oid:2.16.840.1.113883.6.90",
          "code": "R09.02",
          "display": "Hypoxemia"
        }, {
          "system": "urn:oid:2.16.840.1.113883.3.247.1.1",
          "code": "38331",
          "display": "Hypoxemia"
        } ],
        "text": "Hypoxemia"
      },
      "subject": {
        "reference": "Patient/fecde1ca-6236-4839-b4cc-b94bb99191ed",
        "display": "Isabella Jones"
      },
      "recordedDate": "2012-08-06T15:27:45-04:00",
      "asserter": {
        "reference": "Practitioner/2b116b95-5b2d-4dc5-adff-d3c104ecdb29",
        "display": "Henry Seven"
      }
    }
  }, {
    "resource": {
      "resourceType": "Condition",
      "id": "087e3348-6af8-4e3b-9f18-c9d212021881",
      "identifier": [ {
        "use": "official",
        "system": "urn:oid:1.3.6.1.4.1.22812.4.111.0.4.1.2.1",
        "value": "10241359"
      } ],
      "clinicalStatus": {
        "coding": [ {
          "system": "http://terminology.hl7.org/CodeSystem/condition-clinical",
          "code": "active",
          "display": "Active"
        } ]
      },
      "verificationStatus": {
        "coding": [ {
          "system": "http://terminology.hl7.org/CodeSystem/condition-ver-status",
          "code": "refuted",
          "display": "Refuted"
        } ]
      },
      "category": [ {
        "coding": [ {
          "system": "http://terminology.hl7.org/CodeSystem/condition-category",
          "code": "problem-list-item",
          "display": "Problem List Item"
        } ]
      } ],
      "code": {
        "coding": [ {
          "system": "http://snomed.info/sct",
          "code": "385093006",
          "display": "Community acquired pneumonia"
        }, {
          "system": "urn:oid:2.16.840.1.113883.6.103",
          "code": "486",
          "display": "Community acquired pneumonia"
        }, {
          "system": "urn:oid:2.16.840.1.113883.6.90",
          "code": "J18.9",
          "display": "Community acquired pneumonia"
        }, {
          "system": "urn:oid:2.16.840.1.113883.3.247.1.1",
          "code": "500208",
          "display": "Community acquired pneumonia"
        } ],
        "text": "Community acquired pneumonia"
      },
      "subject": {
        "reference": "Patient/fecde1ca-6236-4839-b4cc-b94bb99191ed",
        "display": "Isabella Jones"
      },
      "recordedDate": "2012-08-06T15:57:20-04:00",
      "asserter": {
        "reference": "Practitioner/2b116b95-5b2d-4dc5-adff-d3c104ecdb29",
        "display": "Henry Seven"
      }
    }
  }, {
    "resource": {
      "resourceType": "Condition",
      "id": "94987167-479a-42e7-b3cf-9fe190afb4bc",
      "identifier": [ {
        "use": "official",
        "system": "urn:oid:1.3.6.1.4.1.22812.4.111.0.4.1.2.1",
        "value": "10241360"
      } ],
      "clinicalStatus": {
        "coding": [ {
          "system": "http://terminology.hl7.org/CodeSystem/condition-clinical",
          "code": "active",
          "display": "Active"
        } ]
      },
      "verificationStatus": {
        "coding": [ {
          "system": "http://terminology.hl7.org/CodeSystem/condition-ver-status",
          "code": "refuted",
          "display": "Refuted"
        } ]
      },
      "category": [ {
        "coding": [ {
          "system": "http://terminology.hl7.org/CodeSystem/condition-category",
          "code": "problem-list-item",
          "display": "Problem List Item"
        } ]
      } ],
      "code": {
        "coding": [ {
          "system": "http://snomed.info/sct",
          "code": "427295004",
          "display": "Asthma, moderate persistent"
        }, {
          "system": "urn:oid:2.16.840.1.113883.6.103",
          "code": "493.90",
          "display": "Asthma, moderate persistent"
        }, {
          "system": "urn:oid:2.16.840.1.113883.6.90",
          "code": "J45.40",
          "display": "Asthma, moderate persistent"
        }, {
          "system": "urn:oid:2.16.840.1.113883.3.247.1.1",
          "code": "513862",
          "display": "Asthma, moderate persistent"
        } ],
        "text": "Asthma, moderate persistent"
      },
      "subject": {
        "reference": "Patient/fecde1ca-6236-4839-b4cc-b94bb99191ed",
        "display": "Isabella Jones"
      },
      "recordedDate": "2013-07-08T16:08:48-04:00",
      "asserter": {
        "reference": "Practitioner/2b116b95-5b2d-4dc5-adff-d3c104ecdb29",
        "display": "Henry Seven"
      }
    }
  }, {
    "resource": {
      "resourceType": "DiagnosticReport",
      "id": "4174ec87-5786-4ed7-95f2-affe85cf5d7d",
      "identifier": [ {
        "use": "official",
        "system": "urn:oid:1.3.6.1.4.1.22812.4.111.0.4.5",
        "value": "10031437"
      } ],
      "status": "final",
      "category": [ {
        "coding": [ {
          "system": "http://terminology.hl7.org/CodeSystem/v2-0074",
          "code": "LAB",
          "display": "Laboratory"
        } ]
      } ],
      "code": {
        "coding": [ {
          "system": "http://www.ama-assn.org/go/cpt",
          "code": "85049",
          "display": "PLT (85049)"
        } ]
      },
      "subject": {
        "reference": "Patient/fecde1ca-6236-4839-b4cc-b94bb99191ed",
        "display": "Isabella Jones"
      },
      "effectivePeriod": {
        "start": "2013-07-18T15:21:03-04:00"
      },
      "issued": "2013-07-18T21:21:03.000+02:00",
      "performer": [ {
        "reference": "Practitioner/2b116b95-5b2d-4dc5-adff-d3c104ecdb29",
        "display": "Henry Seven"
      } ],
      "result": [ {
        "reference": "Observation/de7299f0-388b-46e3-baa6-c1f87044f1a8",
        "display": "PLT"
      } ]
    }
  }, {
    "resource": {
      "resourceType": "Observation",
      "id": "de7299f0-388b-46e3-baa6-c1f87044f1a8",
      "identifier": [ {
        "use": "official",
        "system": "urn:oid:1.3.6.1.4.1.22812.4.111.0.4.5",
        "value": "10194180"
      } ],
      "status": "final",
      "category": [ {
        "coding": [ {
          "system": "http://terminology.hl7.org/CodeSystem/observation-category",
          "code": "laboratory"
        } ]
      } ],
      "code": {
        "coding": [ {
          "system": "http://loinc.org",
          "code": "26515-7",
          "display": "PLT"
        } ]
      },
      "subject": {
        "reference": "Patient/fecde1ca-6236-4839-b4cc-b94bb99191ed",
        "display": "Isabella Jones"
      },
      "effectivePeriod": {
        "start": "2013-07-18T15:21:03-04:00"
      },
      "issued": "2013-07-18T15:21:03-04:00",
      "performer": [ {
        "reference": "Practitioner/2b116b95-5b2d-4dc5-adff-d3c104ecdb29"
      } ],
      "valueQuantity": {
        "value": 220,
        "unit": "10^3/ul",
        "system": "http://unitsofmeasure.org",
        "code": "10^3/ul"
      },
      "interpretation": [ {
        "coding": [ {
          "system": "http://terminology.hl7.org/CodeSystem/v3-ObservationInterpretation",
          "code": "N"
        } ]
      } ]
    }
  }, {
    "resource": {
      "resourceType": "DiagnosticReport",
      "id": "e0466da8-4ca6-413d-90b8-448d3bb91b7a",
      "identifier": [ {
        "use": "official",
        "system": "urn:oid:1.3.6.1.4.1.22812.4.111.0.4.5",
        "value": "10171837"
      } ],
      "status": "final",
      "category": [ {
        "coding": [ {
          "system": "http://terminology.hl7.org/CodeSystem/v2-0074",
          "code": "LAB",
          "display": "Laboratory"
        } ]
      } ],
      "code": {
        "coding": [ {
          "system": "http://www.ama-assn.org/go/cpt",
          "code": "90732",
          "display": "PNEUMOCOCCAL VACCINE (90732)"
        } ]
      },
      "subject": {
        "reference": "Patient/fecde1ca-6236-4839-b4cc-b94bb99191ed",
        "display": "Isabella Jones"
      },
      "effectivePeriod": {
        "start": "2012-08-06T16:06:45-04:00"
      },
      "issued": "2012-08-06T22:06:45.000+02:00",
      "performer": [ {
        "reference": "Practitioner/2b116b95-5b2d-4dc5-adff-d3c104ecdb29",
        "display": "Henry Seven"
      } ],
      "result": [ {
        "reference": "Observation/204dc3f4-65d3-4c90-8f69-b0b406dc9d72"
      } ]
    }
  }, {
    "resource": {
      "resourceType": "Observation",
      "id": "204dc3f4-65d3-4c90-8f69-b0b406dc9d72",
      "identifier": [ {
        "use": "official",
        "system": "urn:oid:1.3.6.1.4.1.22812.4.111.0.4.5",
        "value": "1019280"
      } ],
      "status": "final",
      "category": [ {
        "coding": [ {
          "system": "http://terminology.hl7.org/CodeSystem/observation-category",
          "code": "laboratory"
        } ]
      } ],
      "subject": {
        "reference": "Patient/fecde1ca-6236-4839-b4cc-b94bb99191ed",
        "display": "Isabella Jones"
      },
      "effectivePeriod": {
        "start": "2012-08-06T16:06:45-04:00"
      },
      "issued": "2012-08-06T16:06:45-04:00",
      "performer": [ {
        "reference": "Practitioner/2b116b95-5b2d-4dc5-adff-d3c104ecdb29"
      } ],
      "dataAbsentReason": {
        "coding": [ {
          "system": "http://hl7.org/fhir/data-absent-reason",
          "code": "unknown",
          "display": "Unkown"
        } ]
      },
      "interpretation": [ {
        "coding": [ {
          "system": "http://terminology.hl7.org/CodeSystem/v3-ObservationInterpretation",
          "code": "N"
        } ]
      } ]
    }
  }, {
    "resource": {
      "resourceType": "DiagnosticReport",
      "id": "8cc93f8d-5b3a-4047-bc47-3abcc819f8ce",
      "identifier": [ {
        "use": "official",
        "system": "urn:oid:1.3.6.1.4.1.22812.4.111.0.4.5",
        "value": "10031435"
      } ],
      "status": "final",
      "category": [ {
        "coding": [ {
          "system": "http://terminology.hl7.org/CodeSystem/v2-0074",
          "code": "LAB",
          "display": "Laboratory"
        } ]
      } ],
      "code": {
        "coding": [ {
          "system": "http://www.ama-assn.org/go/cpt",
          "code": "85014",
          "display": "HCT (85014)"
        } ]
      },
      "subject": {
        "reference": "Patient/fecde1ca-6236-4839-b4cc-b94bb99191ed",
        "display": "Isabella Jones"
      },
      "effectivePeriod": {
        "start": "2013-07-18T15:21:03-04:00"
      },
      "issued": "2013-07-18T21:21:03.000+02:00",
      "performer": [ {
        "reference": "Practitioner/2b116b95-5b2d-4dc5-adff-d3c104ecdb29",
        "display": "Henry Seven"
      } ],
      "result": [ {
        "reference": "Observation/fb324523-d899-4ad2-82de-976c256befb2",
        "display": "HCT"
      } ]
    }
  }, {
    "resource": {
      "resourceType": "Observation",
      "id": "fb324523-d899-4ad2-82de-976c256befb2",
      "identifier": [ {
        "use": "official",
        "system": "urn:oid:1.3.6.1.4.1.22812.4.111.0.4.5",
        "value": "10194182"
      } ],
      "status": "final",
      "category": [ {
        "coding": [ {
          "system": "http://terminology.hl7.org/CodeSystem/observation-category",
          "code": "laboratory"
        } ]
      } ],
      "code": {
        "coding": [ {
          "system": "http://loinc.org",
          "code": "20570-8",
          "display": "HCT"
        } ]
      },
      "subject": {
        "reference": "Patient/fecde1ca-6236-4839-b4cc-b94bb99191ed",
        "display": "Isabella Jones"
      },
      "effectivePeriod": {
        "start": "2013-07-18T15:21:03-04:00"
      },
      "issued": "2013-07-18T15:21:03-04:00",
      "performer": [ {
        "reference": "Practitioner/2b116b95-5b2d-4dc5-adff-d3c104ecdb29"
      } ],
      "valueQuantity": {
        "value": 45,
        "unit": "%",
        "system": "http://unitsofmeasure.org",
        "code": "%"
      },
      "interpretation": [ {
        "coding": [ {
          "system": "http://terminology.hl7.org/CodeSystem/v3-ObservationInterpretation",
          "code": "N"
        } ]
      } ],
      "referenceRange": [ {
        "text": "42.9 - 49.1"
      } ]
    }
  }, {
    "resource": {
      "resourceType": "DiagnosticReport",
      "id": "bea60782-1f4a-4781-9b5f-787a4f83bca4",
      "identifier": [ {
        "use": "official",
        "system": "urn:oid:1.3.6.1.4.1.22812.4.111.0.4.5",
        "value": "10031436"
      } ],
      "status": "final",
      "category": [ {
        "coding": [ {
          "system": "http://terminology.hl7.org/CodeSystem/v2-0074",
          "code": "LAB",
          "display": "Laboratory"
        } ]
      } ],
      "code": {
        "coding": [ {
          "system": "http://www.ama-assn.org/go/cpt",
          "code": "85048",
          "display": "WBC (85048)"
        } ]
      },
      "subject": {
        "reference": "Patient/fecde1ca-6236-4839-b4cc-b94bb99191ed",
        "display": "Isabella Jones"
      },
      "effectivePeriod": {
        "start": "2013-07-18T15:21:03-04:00"
      },
      "issued": "2013-07-18T21:21:03.000+02:00",
      "performer": [ {
        "reference": "Practitioner/2b116b95-5b2d-4dc5-adff-d3c104ecdb29",
        "display": "Henry Seven"
      } ],
      "result": [ {
        "reference": "Observation/81bd28e7-476e-4f55-b1a6-bc7bcae0a2cf",
        "display": "WBC"
      } ]
    }
  }, {
    "resource": {
      "resourceType": "Observation",
      "id": "81bd28e7-476e-4f55-b1a6-bc7bcae0a2cf",
      "identifier": [ {
        "use": "official",
        "system": "urn:oid:1.3.6.1.4.1.22812.4.111.0.4.5",
        "value": "10194181"
      } ],
      "status": "final",
      "category": [ {
        "coding": [ {
          "system": "http://terminology.hl7.org/CodeSystem/observation-category",
          "code": "laboratory"
        } ]
      } ],
      "code": {
        "coding": [ {
          "system": "http://loinc.org",
          "code": "33765-9",
          "display": "WBC"
        } ]
      },
      "subject": {
        "reference": "Patient/fecde1ca-6236-4839-b4cc-b94bb99191ed",
        "display": "Isabella Jones"
      },
      "effectivePeriod": {
        "start": "2013-07-18T15:21:03-04:00"
      },
      "issued": "2013-07-18T15:21:03-04:00",
      "performer": [ {
        "reference": "Practitioner/2b116b95-5b2d-4dc5-adff-d3c104ecdb29"
      } ],
      "valueQuantity": {
        "value": 7.6,
        "unit": "10^3/ul",
        "system": "http://unitsofmeasure.org",
        "code": "10^3/ul"
      },
      "interpretation": [ {
        "coding": [ {
          "system": "http://terminology.hl7.org/CodeSystem/v3-ObservationInterpretation",
          "code": "N"
        } ]
      } ],
      "referenceRange": [ {
        "text": "4.5 - 11.0"
      } ]
    }
  }, {
    "resource": {
      "resourceType": "DiagnosticReport",
      "id": "0bc6dfc6-c95a-443f-a82d-8577d09f7b4b",
      "identifier": [ {
        "use": "official",
        "system": "urn:oid:1.3.6.1.4.1.22812.4.111.0.4.5",
        "value": "10031438"
      } ],
      "status": "final",
      "category": [ {
        "coding": [ {
          "system": "http://terminology.hl7.org/CodeSystem/v2-0074",
          "code": "LAB",
          "display": "Laboratory"
        } ]
      } ],
      "code": {
        "coding": [ {
          "system": "http://www.ama-assn.org/go/cpt",
          "code": "85018",
          "display": "HGB (85018)"
        } ]
      },
      "subject": {
        "reference": "Patient/fecde1ca-6236-4839-b4cc-b94bb99191ed",
        "display": "Isabella Jones"
      },
      "effectivePeriod": {
        "start": "2013-07-18T15:21:03-04:00"
      },
      "issued": "2013-07-18T21:21:03.000+02:00",
      "performer": [ {
        "reference": "Practitioner/2b116b95-5b2d-4dc5-adff-d3c104ecdb29",
        "display": "Henry Seven"
      } ],
      "result": [ {
        "reference": "Observation/4e2b817b-eaa4-418e-b44d-27795ec1c10a",
        "display": "HGB"
      } ]
    }
  }, {
    "resource": {
      "resourceType": "Observation",
      "id": "4e2b817b-eaa4-418e-b44d-27795ec1c10a",
      "identifier": [ {
        "use": "official",
        "system": "urn:oid:1.3.6.1.4.1.22812.4.111.0.4.5",
        "value": "10194179"
      } ],
      "status": "final",
      "category": [ {
        "coding": [ {
          "system": "http://terminology.hl7.org/CodeSystem/observation-category",
          "code": "laboratory"
        } ]
      } ],
      "code": {
        "coding": [ {
          "system": "http://loinc.org",
          "code": "30313-1",
          "display": "HGB"
        } ]
      },
      "subject": {
        "reference": "Patient/fecde1ca-6236-4839-b4cc-b94bb99191ed",
        "display": "Isabella Jones"
      },
      "effectivePeriod": {
        "start": "2013-07-18T15:21:03-04:00"
      },
      "issued": "2013-07-18T15:21:03-04:00",
      "performer": [ {
        "reference": "Practitioner/2b116b95-5b2d-4dc5-adff-d3c104ecdb29"
      } ],
      "valueQuantity": {
        "value": 14.2,
        "unit": "g/dL",
        "system": "http://unitsofmeasure.org",
        "code": "g/dL"
      },
      "interpretation": [ {
        "coding": [ {
          "system": "http://terminology.hl7.org/CodeSystem/v3-ObservationInterpretation",
          "code": "A"
        } ]
      } ],
      "referenceRange": [ {
        "text": "14.4 - 16.6"
      } ]
    }
  }, {
    "resource": {
      "resourceType": "DiagnosticReport",
      "id": "8c387dff-a2ff-4c5b-9aca-852b44f80193",
      "identifier": [ {
        "use": "official",
        "system": "urn:oid:1.3.6.1.4.1.22812.4.111.0.4.5",
        "value": "10171832"
      } ],
      "status": "final",
      "category": [ {
        "coding": [ {
          "system": "http://terminology.hl7.org/CodeSystem/v2-0074",
          "code": "LAB",
          "display": "Laboratory"
        } ]
      } ],
      "code": {
        "coding": [ {
          "system": "http://www.ama-assn.org/go/cpt",
          "code": "71020",
          "display": "CHEST XRAY, PA & LATERAL (71020)"
        } ]
      },
      "subject": {
        "reference": "Patient/fecde1ca-6236-4839-b4cc-b94bb99191ed",
        "display": "Isabella Jones"
      },
      "effectivePeriod": {
        "start": "2012-08-06T15:30:45-04:00"
      },
      "issued": "2012-08-06T21:30:45.000+02:00",
      "performer": [ {
        "reference": "Practitioner/2b116b95-5b2d-4dc5-adff-d3c104ecdb29",
        "display": "Henry Seven"
      } ],
      "result": [ {
        "reference": "Observation/98de7cf3-ad8b-43df-9253-05f5c5379570"
      } ]
    }
  }, {
    "resource": {
      "resourceType": "Observation",
      "id": "98de7cf3-ad8b-43df-9253-05f5c5379570",
      "identifier": [ {
        "use": "official",
        "system": "urn:oid:1.3.6.1.4.1.22812.4.111.0.4.5",
        "value": "10194163"
      } ],
      "status": "final",
      "category": [ {
        "coding": [ {
          "system": "http://terminology.hl7.org/CodeSystem/observation-category",
          "code": "laboratory"
        } ]
      } ],
      "subject": {
        "reference": "Patient/fecde1ca-6236-4839-b4cc-b94bb99191ed",
        "display": "Isabella Jones"
      },
      "effectivePeriod": {
        "start": "2012-08-06T15:30:45-04:00"
      },
      "issued": "2012-08-06T15:30:45-04:00",
      "performer": [ {
        "reference": "Practitioner/2b116b95-5b2d-4dc5-adff-d3c104ecdb29"
      } ],
      "valueString": "Comments: consistent with pneumonia",
      "interpretation": [ {
        "coding": [ {
          "system": "http://terminology.hl7.org/CodeSystem/v3-ObservationInterpretation",
          "code": "N"
        } ]
      } ]
    }
  }, {
    "resource": {
      "resourceType": "Encounter",
      "id": "2a715a81-2db6-401e-b7a1-21579119bf15",
      "identifier": [ {
        "use": "official",
        "system": "urn:oid:1.3.6.1.4.1.22812.4.111.0.3.4",
        "value": "10043698"
      } ],
      "status": "finished",
      "type": [ {
        "coding": [ {
          "system": "http://www.ama-assn.org/go/cpt",
          "code": "99204",
          "display": "OFFICE OUTPATIENT NEW 45 MINUTES"
        } ],
        "text": "Office Visit"
      } ],
      "subject": {
        "reference": "Patient/fecde1ca-6236-4839-b4cc-b94bb99191ed",
        "display": "Isabella Jones"
      },
      "period": {
        "start": "2012-08-06T15:03:53+02:00"
      },
      "reasonReference": [ {
        "reference": "Condition/76381e02-9ac3-46b2-9fa7-8edbfd9d3154"
      } ],
      "diagnosis": [ {
        "condition": {
          "reference": "Condition/94987167-479a-42e7-b3cf-9fe190afb4bc",
          "display": "Asthma, moderate persistent"
        }
      }, {
        "condition": {
          "reference": "Condition/087e3348-6af8-4e3b-9f18-c9d212021881",
          "display": "Community acquired pneumonia"
        }
      }, {
        "condition": {
          "reference": "Condition/847550f1-bafe-4508-9d8b-5a5379990205",
          "display": "Hypoxemia"
        }
      } ],
      "location": [ {
        "location": {
          "reference": "Location/34176de6-2698-4eac-8ca2-ef46923d7fbe",
          "display": "Clinic One"
        }
      } ]
    }
  }, {
    "resource": {
      "resourceType": "Condition",
      "id": "76381e02-9ac3-46b2-9fa7-8edbfd9d3154",
      "identifier": [ {
        "use": "official",
        "system": "urn:oid:1.3.6.1.4.1.22812.4.111.0.4.1.3",
        "value": "572"
      } ],
      "category": [ {
        "coding": [ {
          "system": "http://hl7.org/fhir/condition-category",
          "code": "encounter-diagnosis",
          "display": "Encounter Diagnosis"
        } ]
      } ],
      "subject": {
        "reference": "Patient/fecde1ca-6236-4839-b4cc-b94bb99191ed",
        "display": "Isabella Jones"
      }
    }
  }, {
    "resource": {
      "resourceType": "Location",
      "id": "34176de6-2698-4eac-8ca2-ef46923d7fbe",
      "name": "Clinic One"
    }
  } ]
}