{
  "resourceType": "Bundle",
  "entry": [ {
    "resource": {
      "resourceType": "Composition",
      "id": "dba4abad-8d79-4c6a-8b17-45101cc2b933",
      "identifier": {
        "use": "official",
        "system": "urn:oid:1.3.6.1.4.1.16517",
        "value": "1F0D7390-9410-11E3-AD10-1CC4B7D83400"
      },
      "status": "preliminary",
      "type": {
        "coding": [ {
          "system": "http://loinc.org",
          "code": "34133-9",
          "display": "Summarization of Episode Note"
        } ]
      },
      "category": [ {
        "coding": [ {
          "system": "http://hl7.org/fhir/ValueSet/doc-classcodes",
          "code": "LP173421-7",
          "display": "Note"
        } ]
      } ],
      "subject": {
        "reference": "Patient/cc29f045-9e30-4550-ba67-5294d721b035",
        "display": "FIVETEST BWHCKDRISKTEST"
      },
      "date": "2014-02-12T13:04:31-05:00",
      "title": "BPG AT 850 BOYLSTON - INTERNAL MEDICINE  Summarization of Episode Note",
      "confidentiality": "N",
      "custodian": {
        "reference": "Organization/6ea33487-9ab7-4915-868b-8f228b2e9d9d",
        "display": "Partners HealthCare"
      },
      "event": [ {
        "period": {
          "end": "2014-02-12T13:04:31+01:00"
        },
        "detail": [ {
          "reference": "Practitioner/11a8c6fa-6152-40c1-b537-56723ebaecc8"
        } ]
      } ],
      "section": [ {
        "title": "Results",
        "code": {
          "coding": [ {
            "system": "http://loinc.org",
            "code": "30954-2",
            "display": "Relevant diagnostic tests and/or laboratory data"
          } ]
        },
        "text": {
          "status": "additional",
          "div": "<div xmlns=\"http://www.w3.org/1999/xhtml\"><table border=\"1\" width=\"100%\"><thead><tr><th>Date</th><th>Test</th><th>Value</th><th>Reference Range</th><th>Abnormal Flag</th><th>Comments</th><th>Ordering Provider</th></tr></thead><tbody><tr><td>02/11/2014 13:49</td><td>SODIUM</td><td>140 mmol/L</td><td>136-145 mmol/L</td><td>Not available</td><td>Not available</td><td>RENNER,KARA E. M.D.</td></tr><tr><td>02/11/2014 13:49</td><td>POTASSIUM</td><td>4.0 mmol/L</td><td>3.4-5.0 mmol/L</td><td>Not available</td><td>Not available</td><td>RENNER,KARA E. M.D.</td></tr><tr><td>02/11/2014 13:49</td><td>CHLORIDE</td><td>98 mmol/L</td><td>98-107 mmol/L</td><td>Not available</td><td>Not available</td><td>RENNER,KARA E. M.D.</td></tr><tr><td>02/11/2014 13:49</td><td>TOTAL CO2</td><td>30 mmol/L</td><td>22-31 mmol/L</td><td>Not available</td><td>Not available</td><td>RENNER,KARA E. M.D.</td></tr><tr><td>02/11/2014 13:49</td><td>ALT/GPT</td><td>29 U/L</td><td>10-50 U/L</td><td>Not available</td><td>Not available</td><td>RENNER,KARA E. M.D.</td></tr><tr><td>02/11/2014 13:49</td><td>AST/GOT</td><td>28 U/L</td><td>10-50 U/L</td><td>Not available</td><td>Not available</td><td>RENNER,KARA E. M.D.</td></tr><tr><td>02/11/2014 13:49</td><td>ALK PHOS</td><td>99 U/L</td><td>35-130 U/L</td><td>Not available</td><td>Not available</td><td>RENNER,KARA E. M.D.</td></tr><tr><td>02/11/2014 13:49</td><td>TOT BILI</td><td>0.5 mg/dL</td><td>0.0-1.0 mg/dL</td><td>Not available</td><td>Not available</td><td>RENNER,KARA E. M.D.</td></tr><tr><td>02/11/2014 13:49</td><td>TOT PROT</td><td>8.3 g/dL</td><td>6.4-8.3 g/dL</td><td>Not available</td><td>Not available</td><td>RENNER,KARA E. M.D.</td></tr><tr><td>02/11/2014 13:49</td><td>ALBUMIN</td><td>4.2 g/dL</td><td>3.5-5.2 g/dL</td><td>Not available</td><td>Not available</td><td>RENNER,KARA E. M.D.</td></tr><tr><td>02/11/2014 13:49</td><td>GLOBULIN</td><td>3.9 g/dL</td><td>2.0-4.0 g/dL</td><td>Not available</td><td>Not available</td><td>RENNER,KARA E. M.D.</td></tr><tr><td>02/11/2014 13:49</td><td>UREA N</td><td>8 mg/dL</td><td>6-23 mg/dL</td><td>Not available</td><td>Not available</td><td>RENNER,KARA E. M.D.</td></tr><tr><td>02/11/2014 13:49</td><td>CALCIUM</td><td>9.4 mg/dL</td><td>8.8-10.7 mg/dL</td><td>Not available</td><td>Not available</td><td>RENNER,KARA E. M.D.</td></tr><tr><td>02/11/2014 13:49</td><td>CREATININE</td><td>1.90 mg/dL</td><td>0.50-1.20 mg/dL</td><td>Not available</td><td>Not available</td><td>RENNER,KARA E. M.D.</td></tr><tr><td>02/11/2014 13:49</td><td>GLUCOSE</td><td>110 mg/dL</td><td>70-100 mg/dL</td><td>Not available</td><td>VERIFIED</td><td>RENNER,KARA E. M.D.</td></tr><tr><td>02/11/2014 13:49</td><td>ANION GAP</td><td>14 mmol/L</td><td>5-17 mmol/L</td><td>Not available</td><td>Not available</td><td>RENNER,KARA E. M.D.</td></tr><tr><td>02/11/2014 13:49</td><td>eGFR</td><td>27 </td><td>Not available</td><td>Not available</td><td>(Abnormal if &amp;lt;60 mL/min/1.73m2If patient is black, multiply by 1.21)</td><td>RENNER,KARA E. M.D.</td></tr><tr><td>02/10/2014 10:00</td><td>TOTAL CO2</td><td>30 mmol/L</td><td>22-31 mmol/L</td><td>Not available</td><td>Not available</td><td>Not available</td></tr><tr><td>02/10/2014 10:00</td><td>ALBUMIN</td><td>4.2 g/dL</td><td>3.5-5.2 g/dL</td><td>Not available</td><td>Not available</td><td>Not available</td></tr><tr><td>02/10/2014 10:00</td><td>CALCIUM</td><td>9.4 mg/dL</td><td>8.8-10.7 mg/dL</td><td>Not available</td><td>Not available</td><td>Not available</td></tr><tr><td>02/10/2014 10:00</td><td>CREATININE</td><td>1.9 mg/dL</td><td>0.50-1.20 mg/dL</td><td>Not available</td><td>Not available</td><td>Not available</td></tr><tr><td>02/10/2014 10:00</td><td>PHOSPHATE</td><td>4.3 mg/dL</td><td>2.4-4.3 mg/dL</td><td>Not available</td><td>Not available</td><td>Not available</td></tr><tr><td>02/10/2014 10:00</td><td>eGFR</td><td>27 </td><td>Not available</td><td>Not available</td><td>(Abnormal if &amp;lt;60 mL/min/1.73m2If patient is black, multiply by 1.21)</td><td>Not available</td></tr><tr><td>02/10/2014 09:30</td><td>Malb</td><td>4.2 mg/dL</td><td>0.0-2.0 mg/dL</td><td>*</td><td>Not available</td><td>SINGH,KARANDEEP M.D.</td></tr><tr><td>02/10/2014 09:30</td><td>Malb/Cr</td><td>31 mgAlb/gCre</td><td>0.0-30 mgAlb/gCre</td><td>*</td><td>Not available</td><td>SINGH,KARANDEEP M.D.</td></tr><tr><td>02/10/2014 09:30</td><td>TIME SPAN</td><td>RANDOM</td><td>Not available</td><td>Not available</td><td>Not available</td><td>SINGH,KARANDEEP M.D.</td></tr></tbody></table></div>"
        },
        "mode": "snapshot",
        "entry": [ {
          "reference": "DiagnosticReport/d80efa6d-f3f8-4cb7-af17-92766bb3dcab",
          "display": "Protein [Mass/volume] in Serum or Plasma"
        }, {
          "reference": "DiagnosticReport/c1661141-a3a6-47f5-bffb-213f7a65aab7",
          "display": "Carbon dioxide, total [Moles/volume] in Serum or Plasma"
        }, {
          "reference": "DiagnosticReport/7c75cfe0-651f-4ea7-8247-2d3a98040435",
          "display": "Collection duration of Urine"
        }, {
          "reference": "DiagnosticReport/d0731bdf-7d0e-4109-a6c5-56b477b9a7f5",
          "display": "Deprecated Glucose [Mass/volume] in Serum or Plasma"
        }, {
          "reference": "DiagnosticReport/8c41a1ab-7cad-4f52-988a-f3519e8548c6",
          "display": "Glomerular filtration rate/1.73 sq M.predicted by Creatinine-based formula (MDRD)"
        }, {
          "reference": "DiagnosticReport/3b1c9e06-da73-4eb7-b5f7-e8a4aa819a97",
          "display": "Bilirubin.total [Mass/volume] in Serum or Plasma"
        }, {
          "reference": "DiagnosticReport/58aeb9b2-b519-4858-90b3-387f99d31bfe",
          "display": "Creatinine [Mass/volume] in Serum or Plasma"
        }, {
          "reference": "DiagnosticReport/a55ceb6d-0bf6-43f7-8b27-4b3543b98dc2",
          "display": "Alkaline phosphatase [Enzymatic activity/volume] in Serum or Plasma"
        }, {
          "reference": "DiagnosticReport/98017471-5d80-4bc4-b3cf-1d3854f4f43b",
          "display": "Potassium [Moles/volume] in Serum or Plasma"
        }, {
          "reference": "DiagnosticReport/81ced70b-301a-4787-ba48-dceb56768498",
          "display": "Creatinine [Mass/volume] in Serum or Plasma"
        }, {
          "reference": "DiagnosticReport/ea5813cf-197a-444e-9710-2a7d82e3aa46",
          "display": "Globulin [Mass/volume] in Serum"
        }, {
          "reference": "DiagnosticReport/bb5736dc-ddfc-4f93-a6ef-0a2b3d981596",
          "display": "Calcium [Mass/volume] in Serum or Plasma"
        }, {
          "reference": "DiagnosticReport/22b74f8e-3403-421c-aa73-e4c5a44ce1a8",
          "display": "Phosphate [Mass/volume] in Serum or Plasma"
        }, {
          "reference": "DiagnosticReport/38a6f644-d3d9-483c-8873-393718b75c7e",
          "display": "Albumin [Mass/volume] in Serum or Plasma"
        }, {
          "reference": "DiagnosticReport/a151b8d6-3d3c-4fbe-8e6f-ea869d5709c3",
          "display": "Alanine aminotransferase [Enzymatic activity/volume] in Serum or Plasma"
        }, {
          "reference": "DiagnosticReport/6129e699-24b7-4952-aa45-529a869c39a9",
          "display": "Albumin [Mass/volume] in Serum or Plasma"
        }, {
          "reference": "DiagnosticReport/9a09cd0e-a00d-41f7-9793-354145c12d17",
          "display": "Microalbumin/Creatinine [Mass Ratio] in Urine"
        }, {
          "reference": "DiagnosticReport/f1c25a65-f313-464b-97f0-393bf2436529",
          "display": "Carbon dioxide, total [Moles/volume] in Serum or Plasma"
        }, {
          "reference": "DiagnosticReport/8f91d082-79d9-461b-aeef-5b52ef0489c6",
          "display": "Anion gap 3 in Serum or Plasma"
        }, {
          "reference": "DiagnosticReport/fce436f8-c5f7-47db-bb21-db3b5d6e2e27",
          "display": "Aspartate aminotransferase [Enzymatic activity/volume] in Serum or Plasma"
        }, {
          "reference": "DiagnosticReport/a4c5ad19-73a2-4f3a-9ae7-b356f0be123c",
          "display": "Glomerular filtration rate/1.73 sq M.predicted by Creatinine-based formula (MDRD)"
        }, {
          "reference": "DiagnosticReport/acf55524-b110-4576-a423-eeaeb58988d8",
          "display": "Urea nitrogen [Mass/volume] in Serum or Plasma"
        }, {
          "reference": "DiagnosticReport/0163f821-837b-4dfb-9f55-0915176f299b",
          "display": "Chloride [Moles/volume] in Serum or Plasma"
        }, {
          "reference": "DiagnosticReport/56724b8c-19fb-46aa-a5b8-1207c952883d",
          "display": "Calcium [Mass/volume] in Serum or Plasma"
        }, {
          "reference": "DiagnosticReport/82e14755-680e-4c6e-a71e-38928ba32346",
          "display": "Microalbumin [Mass/volume] in Urine"
        }, {
          "reference": "DiagnosticReport/1e469539-13db-40e6-b444-37100171c81e",
          "display": "Sodium [Moles/volume] in Serum or Plasma"
        } ]
      }, {
        "title": "Allergies",
        "code": {
          "coding": [ {
            "system": "http://loinc.org",
            "code": "48765-2",
            "display": "Allergies, adverse reactions, alert "
          } ]
        },
        "text": {
          "status": "additional",
          "div": "<div xmlns=\"http://www.w3.org/1999/xhtml\"><table border=\"1\" width=\"100%\"><thead><tr><th>Date</th><th>Allergies</th><th>Status</th></tr></thead><tbody><tr><td>02/12/2014 13:04</td><td>No allergy data is applicable</td><td>active</td></tr></tbody></table></div>"
        },
        "mode": "snapshot",
        "entry": [ {
          "reference": "AllergyIntolerance/7676955e-7223-407e-9c2a-5e3b4ba5bfb7"
        } ]
      }, {
        "title": "Procedures",
        "code": {
          "coding": [ {
            "system": "http://loinc.org",
            "code": "47519-4",
            "display": "History of procedures"
          } ]
        },
        "text": {
          "status": "additional",
          "div": "<div xmlns=\"http://www.w3.org/1999/xhtml\"><table border=\"1\" width=\"100%\"><thead><tr><th>Date</th><th>Procedures</th></tr></thead><tbody><tr><td>02/12/2014 13:04</td><td>No procedure data is applicable</td></tr></tbody></table></div>"
        },
        "mode": "snapshot",
        "entry": [ {
          "reference": "Procedure/48d5eba2-4100-4276-aec6-4b5fc2a27338",
          "display": "No procedure data is applicable"
        } ]
      }, {
        "title": "Problems",
        "code": {
          "coding": [ {
            "system": "http://loinc.org",
            "code": "11450-4",
            "display": "Problem List"
          } ]
        },
        "text": {
          "status": "additional",
          "div": "<div xmlns=\"http://www.w3.org/1999/xhtml\"><table border=\"1\" width=\"100%\"><thead><tr><th>Date</th><th>Problems</th></tr></thead><tbody><tr><td>02/12/2014 13:04</td><td>No problem data is applicable</td></tr></tbody></table></div>"
        },
        "mode": "snapshot",
        "entry": [ {
          "reference": "Condition/82b8bc2c-44bc-4e1b-9599-616fda0eed5e"
        } ]
      }, {
        "title": "Vital Signs",
        "code": {
          "coding": [ {
            "system": "http://loinc.org",
            "code": "8716-3",
            "display": "Vital signs"
          } ]
        },
        "text": {
          "status": "additional",
          "div": "<div xmlns=\"http://www.w3.org/1999/xhtml\"><table border=\"1\" width=\"100%\"><thead><tr><th>Date</th><th>Vital Sign</th></tr></thead><tbody><tr><td>02/12/2014 13:04</td><td>No vital sign data is applicable</td></tr></tbody></table></div>"
        },
        "mode": "snapshot",
        "entry": [ {
          "reference": "Observation/203b589f-1400-4be2-b0ae-5384a28585bb",
          "display": "No vital sign data is applicable"
        } ]
      }, {
        "title": "Encounters",
        "code": {
          "coding": [ {
            "system": "http://loinc.org",
            "code": "46240-8",
            "display": "History of Encounters"
          } ]
        },
        "text": {
          "status": "additional",
          "div": "<div xmlns=\"http://www.w3.org/1999/xhtml\"><table border=\"1\" width=\"100%\"><thead><tr><th>Date</th><th>Description</th></tr></thead><tbody><tr><td>02/12/2014 13:04</td><td>No encounter diagnosis data is applicable</td></tr></tbody></table></div>"
        },
        "mode": "snapshot",
        "entry": [ {
          "reference": "Encounter/9f6bf1eb-c479-48b6-be20-e8070f249bc4",
          "display": "No encounter diagnosis data is applicable"
        } ]
      }, {
        "title": "Immunizations",
        "code": {
          "coding": [ {
            "system": "http://loinc.org",
            "code": "11369-6",
            "display": "History of immunizations"
          } ]
        },
        "text": {
          "status": "additional",
          "div": "<div xmlns=\"http://www.w3.org/1999/xhtml\"><table border=\"1\" width=\"100%\"><thead><tr><th>Date</th><th>Immunizations</th></tr></thead><tbody><tr><td>02/12/2014 13:04</td><td>No immunization data is applicable</td></tr></tbody></table></div>"
        },
        "mode": "snapshot",
        "entry": [ {
          "reference": "Immunization/60b5d735-0eec-442d-a079-8b4159d174ad",
          "display": "No immunization data is applicable"
        } ]
      }, {
        "title": "Functional Status",
        "code": {
          "coding": [ {
            "system": "http://loinc.org",
            "code": "47420-5",
            "display": "Functional status assessment note"
          } ]
        },
        "text": {
          "status": "additional",
          "div": "<div xmlns=\"http://www.w3.org/1999/xhtml\"><table border=\"1\" width=\"100%\"><thead><tr><th>Date</th><th>Assessment</th></tr></thead><tbody><tr><td>02/12/2014</td><td>No functional assessment data is applicable</td></tr><tr><td>02/12/2014</td><td>No cognitive assessment data is applicable</td></tr></tbody></table></div>"
        },
        "mode": "snapshot"
      }, {
        "title": "Medications",
        "code": {
          "coding": [ {
            "system": "http://loinc.org",
            "code": "10160-0",
            "display": "History of medication use"
          } ]
        },
        "text": {
          "status": "additional",
          "div": "<div xmlns=\"http://www.w3.org/1999/xhtml\"><table border=\"1\" width=\"100%\"><thead><tr><th>Date</th><th>Medications</th></tr></thead><tbody><tr><td>02/12/2014 13:04</td><td>No medication data is applicable</td></tr></tbody></table></div>"
        },
        "mode": "snapshot",
        "entry": [ {
          "reference": "MedicationStatement/1bcd3b46-3a68-4841-92ef-8433cc08463f",
          "display": "No medication data is applicable"
        } ]
      }, {
        "title": "Social History",
        "code": {
          "coding": [ {
            "system": "http://loinc.org",
            "code": "29762-2",
            "display": "Social History"
          } ]
        },
        "text": {
          "status": "additional",
          "div": "<div xmlns=\"http://www.w3.org/1999/xhtml\"><table border=\"1\" width=\"100%\"><thead><tr><th>Date</th><th>Type</th></tr></thead><tbody><tr><td>02/12/2014</td><td>No smoking status data is applicable</td></tr></tbody></table></div>"
        },
        "mode": "snapshot",
        "entry": [ {
          "reference": "Observation/c603309a-e9af-4a48-8325-093064220700"
        } ]
      }, {
        "title": "Plan of Care",
        "code": {
          "coding": [ {
            "system": "http://loinc.org",
            "code": "18776-5",
            "display": "Treatment plan"
          } ]
        },
        "text": {
          "status": "additional",
          "div": "<div xmlns=\"http://www.w3.org/1999/xhtml\"><table border=\"1\" width=\"100%\"><thead><tr><th>Date</th><th>Care Plan</th></tr></thead><tbody><tr><td>02/12/2014 13:04</td><td>No goal and instruction data is applicable</td></tr></tbody></table></div>"
        },
        "mode": "snapshot",
        "entry": [ {
          "reference": "CarePlan/c30ce3d8-328f-46ed-bba0-6a02a04f8ae9"
        } ]
      } ]
    }
  }, {
    "resource": {
      "resourceType": "Patient",
      "id": "cc29f045-9e30-4550-ba67-5294d721b035",
      "extension": [ {
        "url": "http://hl7.org/fhir/us/core/StructureDefinition/us-core-ethnicity",
        "extension": [ {
          "url": "text",
          "valueString": "Hispanic or Latino"
        }, {
          "url": "ombCategory",
          "valueCoding": {
            "system": "urn:oid:2.16.840.1.113883.6.238",
            "code": "2135-2",
            "display": "Hispanic or Latino"
          }
        } ]
      } ],
      "identifier": [ {
        "use": "official",
        "system": "urn:oid:1.3.6.1.4.1.16517.1",
        "value": "107624139"
      }, {
        "use": "official",
        "system": "urn:oid:1.3.6.1.4.1.16517.2.2",
        "value": "50068675"
      } ],
      "name": [ {
        "family": "BWHCKDRISKTEST",
        "given": [ "FIVETEST" ]
      } ],
      "telecom": [ {
        "system": "phone",
        "value": "(508)666-1616",
        "use": "home"
      } ],
      "gender": "female",
      "birthDate": "1949-02-02",
      "address": [ {
        "line": [ "567 MAIN STREET" ],
        "city": "BOSTON",
        "state": "MA",
        "postalCode": "02109",
        "country": "US"
      } ]
    }
  }, {
    "resource": {
      "resourceType": "Practitioner",
      "id": "11a8c6fa-6152-40c1-b537-56723ebaecc8"
    }
  }, {
    "resource": {
      "resourceType": "Organization",
      "id": "6ea33487-9ab7-4915-868b-8f228b2e9d9d",
      "identifier": [ {
        "use": "official",
        "system": "urn:oid:1.3.6.1.4.1.16517",
        "value": "PHS"
      } ],
      "name": "Partners HealthCare",
      "telecom": [ {
        "system": "phone",
        "value": "(617)278-1000",
        "use": "work"
      } ],
      "address": [ {
        "line": [ "Prudential Tower", "800 Boylston Street, Suite 1150" ],
        "city": "Boston",
        "state": "MA",
        "postalCode": "02199-8001"
      } ]
    }
  }, {
    "resource": {
      "resourceType": "DiagnosticReport",
      "id": "d80efa6d-f3f8-4cb7-af17-92766bb3dcab",
      "identifier": [ {
        "use": "official",
        "system": "urn:oid:1.3.6.1.4.1.16517",
        "value": "100025030711-1F11D12E-9410-11E3-A442-1CC4B7D83400"
      } ],
      "status": "final",
      "category": [ {
        "coding": [ {
          "system": "http://terminology.hl7.org/CodeSystem/v2-0074",
          "code": "LAB",
          "display": "Laboratory"
        } ]
      } ],
      "code": {
        "coding": [ {
          "system": "http://loinc.org",
          "code": "2885-2",
          "display": "Protein [Mass/volume] in Serum or Plasma"
        } ]
      },
      "subject": {
        "reference": "Patient/cc29f045-9e30-4550-ba67-5294d721b035",
        "display": "FIVETEST BWHCKDRISKTEST"
      },
      "result": [ {
        "reference": "Observation/03edda5a-042c-4ec8-b903-b7bb765d57a8",
        "display": "TOT PROT"
      } ]
    }
  }, {
    "resource": {
      "resourceType": "Observation",
      "id": "03edda5a-042c-4ec8-b903-b7bb765d57a8",
      "identifier": [ {
        "use": "official",
        "system": "urn:oid:1.3.6.1.4.1.16517",
        "value": "100025030711-1F11D12E-9410-11E3-A442-1CC4B7D83400"
      } ],
      "status": "final",
      "category": [ {
        "coding": [ {
          "system": "http://terminology.hl7.org/CodeSystem/observation-category",
          "code": "laboratory"
        } ]
      } ],
      "code": {
        "coding": [ {
          "system": "http://loinc.org",
          "code": "2885-2",
          "display": "Protein [Mass/volume] in Serum or Plasma"
        } ],
        "text": "TOT PROT"
      },
      "subject": {
        "reference": "Patient/cc29f045-9e30-4550-ba67-5294d721b035",
        "display": "FIVETEST BWHCKDRISKTEST"
      },
      "effectivePeriod": {
        "start": "2014-02-11T13:49:00+01:00"
      },
      "valueQuantity": {
        "value": 8.3,
        "unit": "g/dL",
        "system": "http://unitsofmeasure.org",
        "code": "g/dL"
      },
      "referenceRange": [ {
        "text": "6.4-8.3 g/dL"
      } ]
    }
  }, {
    "resource": {
      "resourceType": "DiagnosticReport",
      "id": "c1661141-a3a6-47f5-bffb-213f7a65aab7",
      "identifier": [ {
        "use": "official",
        "system": "urn:oid:1.3.6.1.4.1.16517",
        "value": "100025030705-1F10EAB6-9410-11E3-A442-1CC4B7D83400"
      } ],
      "status": "final",
      "category": [ {
        "coding": [ {
          "system": "http://terminology.hl7.org/CodeSystem/v2-0074",
          "code": "LAB",
          "display": "Laboratory"
        } ]
      } ],
      "code": {
        "coding": [ {
          "system": "http://loinc.org",
          "code": "2028-9",
          "display": "Carbon dioxide, total [Moles/volume] in Serum or Plasma"
        } ]
      },
      "subject": {
        "reference": "Patient/cc29f045-9e30-4550-ba67-5294d721b035",
        "display": "FIVETEST BWHCKDRISKTEST"
      },
      "result": [ {
        "reference": "Observation/327fa2c7-8709-4ffb-8315-2c80fe5cabaf",
        "display": "TOTAL CO2"
      } ]
    }
  }, {
    "resource": {
      "resourceType": "Observation",
      "id": "327fa2c7-8709-4ffb-8315-2c80fe5cabaf",
      "identifier": [ {
        "use": "official",
        "system": "urn:oid:1.3.6.1.4.1.16517",
        "value": "100025030705-1F10EAB6-9410-11E3-A442-1CC4B7D83400"
      } ],
      "status": "final",
      "category": [ {
        "coding": [ {
          "system": "http://terminology.hl7.org/CodeSystem/observation-category",
          "code": "laboratory"
        } ]
      } ],
      "code": {
        "coding": [ {
          "system": "http://loinc.org",
          "code": "2028-9",
          "display": "Carbon dioxide, total [Moles/volume] in Serum or Plasma"
        } ],
        "text": "TOTAL CO2"
      },
      "subject": {
        "reference": "Patient/cc29f045-9e30-4550-ba67-5294d721b035",
        "display": "FIVETEST BWHCKDRISKTEST"
      },
      "effectivePeriod": {
        "start": "2014-02-11T13:49:00+01:00"
      },
      "valueQuantity": {
        "value": 30,
        "unit": "mmol/L",
        "system": "http://unitsofmeasure.org",
        "code": "mmol/L"
      },
      "referenceRange": [ {
        "text": "22-31 mmol/L"
      } ]
    }
  }, {
    "resource": {
      "resourceType": "DiagnosticReport",
      "id": "7c75cfe0-651f-4ea7-8247-2d3a98040435",
      "identifier": [ {
        "use": "official",
        "system": "urn:oid:1.3.6.1.4.1.16517",
        "value": "100025030655-1F1418C6-9410-11E3-A442-1CC4B7D83400"
      } ],
      "category": [ {
        "coding": [ {
          "system": "http://terminology.hl7.org/CodeSystem/v2-0074",
          "code": "LAB",
          "display": "Laboratory"
        } ]
      } ],
      "code": {
        "coding": [ {
          "system": "http://loinc.org",
          "code": "13362-9",
          "display": "Collection duration of Urine"
        } ]
      },
      "subject": {
        "reference": "Patient/cc29f045-9e30-4550-ba67-5294d721b035",
        "display": "FIVETEST BWHCKDRISKTEST"
      },
      "result": [ {
        "reference": "Observation/930194c3-1c51-4cf4-97d6-7a96072a4ccd",
        "display": "TIME SPAN"
      } ]
    }
  }, {
    "resource": {
      "resourceType": "Observation",
      "id": "930194c3-1c51-4cf4-97d6-7a96072a4ccd",
      "identifier": [ {
        "use": "official",
        "system": "urn:oid:1.3.6.1.4.1.16517",
        "value": "100025030655-1F1418C6-9410-11E3-A442-1CC4B7D83400"
      } ],
      "category": [ {
        "coding": [ {
          "system": "http://terminology.hl7.org/CodeSystem/observation-category",
          "code": "laboratory"
        } ]
      } ],
      "code": {
        "coding": [ {
          "system": "http://loinc.org",
          "code": "13362-9",
          "display": "Collection duration of Urine"
        } ],
        "text": "TIME SPAN"
      },
      "subject": {
        "reference": "Patient/cc29f045-9e30-4550-ba67-5294d721b035",
        "display": "FIVETEST BWHCKDRISKTEST"
      },
      "effectivePeriod": {
        "start": "2014-02-10T09:30:00+01:00"
      },
      "valueString": "RANDOM"
    }
  }, {
    "resource": {
      "resourceType": "DiagnosticReport",
      "id": "d0731bdf-7d0e-4109-a6c5-56b477b9a7f5",
      "identifier": [ {
        "use": "official",
        "system": "urn:oid:1.3.6.1.4.1.16517",
        "value": "100025030699-1F134A7C-9410-11E3-A442-1CC4B7D83400"
      } ],
      "status": "final",
      "category": [ {
        "coding": [ {
          "system": "http://terminology.hl7.org/CodeSystem/v2-0074",
          "code": "LAB",
          "display": "Laboratory"
        } ]
      } ],
      "code": {
        "coding": [ {
          "system": "http://loinc.org",
          "code": "6777-7",
          "display": "Deprecated Glucose [Mass/volume] in Serum or Plasma"
        } ]
      },
      "subject": {
        "reference": "Patient/cc29f045-9e30-4550-ba67-5294d721b035",
        "display": "FIVETEST BWHCKDRISKTEST"
      },
      "result": [ {
        "reference": "Observation/807a54be-df2f-4bba-86ad-0d9df864218c",
        "display": "GLUCOSE"
      } ]
    }
  }, {
    "resource": {
      "resourceType": "Observation",
      "id": "807a54be-df2f-4bba-86ad-0d9df864218c",
      "identifier": [ {
        "use": "official",
        "system": "urn:oid:1.3.6.1.4.1.16517",
        "value": "100025030699-1F134A7C-9410-11E3-A442-1CC4B7D83400"
      } ],
      "status": "final",
      "category": [ {
        "coding": [ {
          "system": "http://terminology.hl7.org/CodeSystem/observation-category",
          "code": "laboratory"
        } ]
      } ],
      "code": {
        "coding": [ {
          "system": "http://loinc.org",
          "code": "6777-7",
          "display": "Deprecated Glucose [Mass/volume] in Serum or Plasma"
        } ],
        "text": "GLUCOSE"
      },
      "subject": {
        "reference": "Patient/cc29f045-9e30-4550-ba67-5294d721b035",
        "display": "FIVETEST BWHCKDRISKTEST"
      },
      "effectivePeriod": {
        "start": "2014-02-11T13:49:00+01:00"
      },
      "valueQuantity": {
        "value": 110,
        "unit": "mg/dL",
        "system": "http://unitsofmeasure.org",
        "code": "mg/dL"
      },
      "referenceRange": [ {
        "text": "70-100 mg/dL"
      } ]
    }
  }, {
    "resource": {
      "resourceType": "DiagnosticReport",
      "id": "8c41a1ab-7cad-4f52-988a-f3519e8548c6",
      "identifier": [ {
        "use": "official",
        "system": "urn:oid:1.3.6.1.4.1.16517",
        "value": "100025030715-1F143F40-9410-11E3-A442-1CC4B7D83400"
      } ],
      "status": "final",
      "category": [ {
        "coding": [ {
          "system": "http://terminology.hl7.org/CodeSystem/v2-0074",
          "code": "LAB",
          "display": "Laboratory"
        } ]
      } ],
      "code": {
        "coding": [ {
          "system": "http://loinc.org",
          "code": "33914-3",
          "display": "Glomerular filtration rate/1.73 sq M.predicted by Creatinine-based formula (MDRD)"
        } ]
      },
      "subject": {
        "reference": "Patient/cc29f045-9e30-4550-ba67-5294d721b035",
        "display": "FIVETEST BWHCKDRISKTEST"
      },
      "result": [ {
        "reference": "Observation/7fd8aeb3-04b9-4824-b5c3-41979fba4026",
        "display": "eGFR"
      } ]
    }
  }, {
    "resource": {
      "resourceType": "Observation",
      "id": "7fd8aeb3-04b9-4824-b5c3-41979fba4026",
      "identifier": [ {
        "use": "official",
        "system": "urn:oid:1.3.6.1.4.1.16517",
        "value": "100025030715-1F143F40-9410-11E3-A442-1CC4B7D83400"
      } ],
      "status": "final",
      "category": [ {
        "coding": [ {
          "system": "http://terminology.hl7.org/CodeSystem/observation-category",
          "code": "laboratory"
        } ]
      } ],
      "code": {
        "coding": [ {
          "system": "http://loinc.org",
          "code": "33914-3",
          "display": "Glomerular filtration rate/1.73 sq M.predicted by Creatinine-based formula (MDRD)"
        } ],
        "text": "eGFR"
      },
      "subject": {
        "reference": "Patient/cc29f045-9e30-4550-ba67-5294d721b035",
        "display": "FIVETEST BWHCKDRISKTEST"
      },
      "effectivePeriod": {
        "start": "2014-02-11T13:49:00+01:00"
      },
      "valueQuantity": {
        "value": 27,
        "unit": "1",
        "system": "http://unitsofmeasure.org",
        "code": "1"
      }
    }
  }, {
    "resource": {
      "resourceType": "DiagnosticReport",
      "id": "3b1c9e06-da73-4eb7-b5f7-e8a4aa819a97",
      "identifier": [ {
        "use": "official",
        "system": "urn:oid:1.3.6.1.4.1.16517",
        "value": "100025030710-1F11AC76-9410-11E3-A442-1CC4B7D83400"
      } ],
      "status": "final",
      "category": [ {
        "coding": [ {
          "system": "http://terminology.hl7.org/CodeSystem/v2-0074",
          "code": "LAB",
          "display": "Laboratory"
        } ]
      } ],
      "code": {
        "coding": [ {
          "system": "http://loinc.org",
          "code": "1975-2",
          "display": "Bilirubin.total [Mass/volume] in Serum or Plasma"
        } ]
      },
      "subject": {
        "reference": "Patient/cc29f045-9e30-4550-ba67-5294d721b035",
        "display": "FIVETEST BWHCKDRISKTEST"
      },
      "result": [ {
        "reference": "Observation/9f0512bd-1816-4893-b8fa-5266a2df148c",
        "display": "TOT BILI"
      } ]
    }
  }, {
    "resource": {
      "resourceType": "Observation",
      "id": "9f0512bd-1816-4893-b8fa-5266a2df148c",
      "identifier": [ {
        "use": "official",
        "system": "urn:oid:1.3.6.1.4.1.16517",
        "value": "100025030710-1F11AC76-9410-11E3-A442-1CC4B7D83400"
      } ],
      "status": "final",
      "category": [ {
        "coding": [ {
          "system": "http://terminology.hl7.org/CodeSystem/observation-category",
          "code": "laboratory"
        } ]
      } ],
      "code": {
        "coding": [ {
          "system": "http://loinc.org",
          "code": "1975-2",
          "display": "Bilirubin.total [Mass/volume] in Serum or Plasma"
        } ],
        "text": "TOT BILI"
      },
      "subject": {
        "reference": "Patient/cc29f045-9e30-4550-ba67-5294d721b035",
        "display": "FIVETEST BWHCKDRISKTEST"
      },
      "effectivePeriod": {
        "start": "2014-02-11T13:49:00+01:00"
      },
      "valueQuantity": {
        "value": 0.5,
        "unit": "mg/dL",
        "system": "http://unitsofmeasure.org",
        "code": "mg/dL"
      },
      "referenceRange": [ {
        "text": "0.0-1.0 mg/dL"
      } ]
    }
  }, {
    "resource": {
      "resourceType": "DiagnosticReport",
      "id": "58aeb9b2-b519-4858-90b3-387f99d31bfe",
      "identifier": [ {
        "use": "official",
        "system": "urn:oid:1.3.6.1.4.1.16517",
        "value": "100025030676-1F13240C-9410-11E3-A442-1CC4B7D83400"
      } ],
      "status": "final",
      "category": [ {
        "coding": [ {
          "system": "http://terminology.hl7.org/CodeSystem/v2-0074",
          "code": "LAB",
          "display": "Laboratory"
        } ]
      } ],
      "code": {
        "coding": [ {
          "system": "http://loinc.org",
          "code": "2160-0",
          "display": "Creatinine [Mass/volume] in Serum or Plasma"
        } ]
      },
      "subject": {
        "reference": "Patient/cc29f045-9e30-4550-ba67-5294d721b035",
        "display": "FIVETEST BWHCKDRISKTEST"
      },
      "result": [ {
        "reference": "Observation/11fddfaa-9b34-4200-b734-520662d468ad",
        "display": "CREATININE"
      } ]
    }
  }, {
    "resource": {
      "resourceType": "Observation",
      "id": "11fddfaa-9b34-4200-b734-520662d468ad",
      "identifier": [ {
        "use": "official",
        "system": "urn:oid:1.3.6.1.4.1.16517",
        "value": "100025030676-1F13240C-9410-11E3-A442-1CC4B7D83400"
      } ],
      "status": "final",
      "category": [ {
        "coding": [ {
          "system": "http://terminology.hl7.org/CodeSystem/observation-category",
          "code": "laboratory"
        } ]
      } ],
      "code": {
        "coding": [ {
          "system": "http://loinc.org",
          "code": "2160-0",
          "display": "Creatinine [Mass/volume] in Serum or Plasma"
        } ],
        "text": "CREATININE"
      },
      "subject": {
        "reference": "Patient/cc29f045-9e30-4550-ba67-5294d721b035",
        "display": "FIVETEST BWHCKDRISKTEST"
      },
      "effectivePeriod": {
        "start": "2014-02-10T10:00:00+01:00"
      },
      "valueQuantity": {
        "value": 1.9,
        "unit": "mg/dL",
        "system": "http://unitsofmeasure.org",
        "code": "mg/dL"
      },
      "referenceRange": [ {
        "text": "0.50-1.20 mg/dL"
      } ]
    }
  }, {
    "resource": {
      "resourceType": "DiagnosticReport",
      "id": "a55ceb6d-0bf6-43f7-8b27-4b3543b98dc2",
      "identifier": [ {
        "use": "official",
        "system": "urn:oid:1.3.6.1.4.1.16517",
        "value": "100025030709-1F118782-9410-11E3-A442-1CC4B7D83400"
      } ],
      "status": "final",
      "category": [ {
        "coding": [ {
          "system": "http://terminology.hl7.org/CodeSystem/v2-0074",
          "code": "LAB",
          "display": "Laboratory"
        } ]
      } ],
      "code": {
        "coding": [ {
          "system": "http://loinc.org",
          "code": "6768-6",
          "display": "Alkaline phosphatase [Enzymatic activity/volume] in Serum or Plasma"
        } ]
      },
      "subject": {
        "reference": "Patient/cc29f045-9e30-4550-ba67-5294d721b035",
        "display": "FIVETEST BWHCKDRISKTEST"
      },
      "result": [ {
        "reference": "Observation/9d484b29-1885-4da9-90ec-13ba862c88bf",
        "display": "ALK PHOS"
      } ]
    }
  }, {
    "resource": {
      "resourceType": "Observation",
      "id": "9d484b29-1885-4da9-90ec-13ba862c88bf",
      "identifier": [ {
        "use": "official",
        "system": "urn:oid:1.3.6.1.4.1.16517",
        "value": "100025030709-1F118782-9410-11E3-A442-1CC4B7D83400"
      } ],
      "status": "final",
      "category": [ {
        "coding": [ {
          "system": "http://terminology.hl7.org/CodeSystem/observation-category",
          "code": "laboratory"
        } ]
      } ],
      "code": {
        "coding": [ {
          "system": "http://loinc.org",
          "code": "6768-6",
          "display": "Alkaline phosphatase [Enzymatic activity/volume] in Serum or Plasma"
        } ],
        "text": "ALK PHOS"
      },
      "subject": {
        "reference": "Patient/cc29f045-9e30-4550-ba67-5294d721b035",
        "display": "FIVETEST BWHCKDRISKTEST"
      },
      "effectivePeriod": {
        "start": "2014-02-11T13:49:00+01:00"
      },
      "valueQuantity": {
        "value": 99,
        "unit": "U/L",
        "system": "http://unitsofmeasure.org",
        "code": "U/L"
      },
      "referenceRange": [ {
        "text": "35-130 U/L"
      } ]
    }
  }, {
    "resource": {
      "resourceType": "DiagnosticReport",
      "id": "98017471-5d80-4bc4-b3cf-1d3854f4f43b",
      "identifier": [ {
        "use": "official",
        "system": "urn:oid:1.3.6.1.4.1.16517",
        "value": "100025030703-1F109E9E-9410-11E3-A442-1CC4B7D83400"
      } ],
      "status": "final",
      "category": [ {
        "coding": [ {
          "system": "http://terminology.hl7.org/CodeSystem/v2-0074",
          "code": "LAB",
          "display": "Laboratory"
        } ]
      } ],
      "code": {
        "coding": [ {
          "system": "http://loinc.org",
          "code": "2823-3",
          "display": "Potassium [Moles/volume] in Serum or Plasma"
        } ]
      },
      "subject": {
        "reference": "Patient/cc29f045-9e30-4550-ba67-5294d721b035",
        "display": "FIVETEST BWHCKDRISKTEST"
      },
      "result": [ {
        "reference": "Observation/9f95901c-4030-4981-8aa6-bcdc21a98308",
        "display": "POTASSIUM"
      } ]
    }
  }, {
    "resource": {
      "resourceType": "Observation",
      "id": "9f95901c-4030-4981-8aa6-bcdc21a98308",
      "identifier": [ {
        "use": "official",
        "system": "urn:oid:1.3.6.1.4.1.16517",
        "value": "100025030703-1F109E9E-9410-11E3-A442-1CC4B7D83400"
      } ],
      "status": "final",
      "category": [ {
        "coding": [ {
          "system": "http://terminology.hl7.org/CodeSystem/observation-category",
          "code": "laboratory"
        } ]
      } ],
      "code": {
        "coding": [ {
          "system": "http://loinc.org",
          "code": "2823-3",
          "display": "Potassium [Moles/volume] in Serum or Plasma"
        } ],
        "text": "POTASSIUM"
      },
      "subject": {
        "reference": "Patient/cc29f045-9e30-4550-ba67-5294d721b035",
        "display": "FIVETEST BWHCKDRISKTEST"
      },
      "effectivePeriod": {
        "start": "2014-02-11T13:49:00+01:00"
      },
      "valueQuantity": {
        "value": 4.0,
        "unit": "mmol/L",
        "system": "http://unitsofmeasure.org",
        "code": "mmol/L"
      },
      "referenceRange": [ {
        "text": "3.4-5.0 mmol/L"
      } ]
    }
  }, {
    "resource": {
      "resourceType": "DiagnosticReport",
      "id": "81ced70b-301a-4787-ba48-dceb56768498",
      "identifier": [ {
        "use": "official",
        "system": "urn:oid:1.3.6.1.4.1.16517",
        "value": "100025030701-1F12FD88-9410-11E3-A442-1CC4B7D83400"
      } ],
      "status": "final",
      "category": [ {
        "coding": [ {
          "system": "http://terminology.hl7.org/CodeSystem/v2-0074",
          "code": "LAB",
          "display": "Laboratory"
        } ]
      } ],
      "code": {
        "coding": [ {
          "system": "http://loinc.org",
          "code": "2160-0",
          "display": "Creatinine [Mass/volume] in Serum or Plasma"
        } ]
      },
      "subject": {
        "reference": "Patient/cc29f045-9e30-4550-ba67-5294d721b035",
        "display": "FIVETEST BWHCKDRISKTEST"
      },
      "result": [ {
        "reference": "Observation/8ec2add5-3762-4dea-8774-948e6b43277c",
        "display": "CREATININE"
      } ]
    }
  }, {
    "resource": {
      "resourceType": "Observation",
      "id": "8ec2add5-3762-4dea-8774-948e6b43277c",
      "identifier": [ {
        "use": "official",
        "system": "urn:oid:1.3.6.1.4.1.16517",
        "value": "100025030701-1F12FD88-9410-11E3-A442-1CC4B7D83400"
      } ],
      "status": "final",
      "category": [ {
        "coding": [ {
          "system": "http://terminology.hl7.org/CodeSystem/observation-category",
          "code": "laboratory"
        } ]
      } ],
      "code": {
        "coding": [ {
          "system": "http://loinc.org",
          "code": "2160-0",
          "display": "Creatinine [Mass/volume] in Serum or Plasma"
        } ],
        "text": "CREATININE"
      },
      "subject": {
        "reference": "Patient/cc29f045-9e30-4550-ba67-5294d721b035",
        "display": "FIVETEST BWHCKDRISKTEST"
      },
      "effectivePeriod": {
        "start": "2014-02-11T13:49:00+01:00"
      },
      "valueQuantity": {
        "value": 1.90,
        "unit": "mg/dL",
        "system": "http://unitsofmeasure.org",
        "code": "mg/dL"
      },
      "referenceRange": [ {
        "text": "0.50-1.20 mg/dL"
      } ]
    }
  }, {
    "resource": {
      "resourceType": "DiagnosticReport",
      "id": "ea5813cf-197a-444e-9710-2a7d82e3aa46",
      "identifier": [ {
        "use": "official",
        "system": "urn:oid:1.3.6.1.4.1.16517",
        "value": "100025030713-1F123F06-9410-11E3-A442-1CC4B7D83400"
      } ],
      "status": "final",
      "category": [ {
        "coding": [ {
          "system": "http://terminology.hl7.org/CodeSystem/v2-0074",
          "code": "LAB",
          "display": "Laboratory"
        } ]
      } ],
      "code": {
        "coding": [ {
          "system": "http://loinc.org",
          "code": "2336-6",
          "display": "Globulin [Mass/volume] in Serum"
        } ]
      },
      "subject": {
        "reference": "Patient/cc29f045-9e30-4550-ba67-5294d721b035",
        "display": "FIVETEST BWHCKDRISKTEST"
      },
      "result": [ {
        "reference": "Observation/7996830e-0050-4aeb-8381-7277e0fb7b10",
        "display": "GLOBULIN"
      } ]
    }
  }, {
    "resource": {
      "resourceType": "Observation",
      "id": "7996830e-0050-4aeb-8381-7277e0fb7b10",
      "identifier": [ {
        "use": "official",
        "system": "urn:oid:1.3.6.1.4.1.16517",
        "value": "100025030713-1F123F06-9410-11E3-A442-1CC4B7D83400"
      } ],
      "status": "final",
      "category": [ {
        "coding": [ {
          "system": "http://terminology.hl7.org/CodeSystem/observation-category",
          "code": "laboratory"
        } ]
      } ],
      "code": {
        "coding": [ {
          "system": "http://loinc.org",
          "code": "2336-6",
          "display": "Globulin [Mass/volume] in Serum"
        } ],
        "text": "GLOBULIN"
      },
      "subject": {
        "reference": "Patient/cc29f045-9e30-4550-ba67-5294d721b035",
        "display": "FIVETEST BWHCKDRISKTEST"
      },
      "effectivePeriod": {
        "start": "2014-02-11T13:49:00+01:00"
      },
      "valueQuantity": {
        "value": 3.9,
        "unit": "g/dL",
        "system": "http://unitsofmeasure.org",
        "code": "g/dL"
      },
      "referenceRange": [ {
        "text": "2.0-4.0 g/dL"
      } ]
    }
  }, {
    "resource": {
      "resourceType": "DiagnosticReport",
      "id": "bb5736dc-ddfc-4f93-a6ef-0a2b3d981596",
      "identifier": [ {
        "use": "official",
        "system": "urn:oid:1.3.6.1.4.1.16517",
        "value": "100025030678-1F12B530-9410-11E3-A442-1CC4B7D83400"
      } ],
      "status": "final",
      "category": [ {
        "coding": [ {
          "system": "http://terminology.hl7.org/CodeSystem/v2-0074",
          "code": "LAB",
          "display": "Laboratory"
        } ]
      } ],
      "code": {
        "coding": [ {
          "system": "http://loinc.org",
          "code": "17861-6",
          "display": "Calcium [Mass/volume] in Serum or Plasma"
        } ]
      },
      "subject": {
        "reference": "Patient/cc29f045-9e30-4550-ba67-5294d721b035",
        "display": "FIVETEST BWHCKDRISKTEST"
      },
      "result": [ {
        "reference": "Observation/a7d0995a-d3c5-4b96-978f-998952d4f387",
        "display": "CALCIUM"
      } ]
    }
  }, {
    "resource": {
      "resourceType": "Observation",
      "id": "a7d0995a-d3c5-4b96-978f-998952d4f387",
      "identifier": [ {
        "use": "official",
        "system": "urn:oid:1.3.6.1.4.1.16517",
        "value": "100025030678-1F12B530-9410-11E3-A442-1CC4B7D83400"
      } ],
      "status": "final",
      "category": [ {
        "coding": [ {
          "system": "http://terminology.hl7.org/CodeSystem/observation-category",
          "code": "laboratory"
        } ]
      } ],
      "code": {
        "coding": [ {
          "system": "http://loinc.org",
          "code": "17861-6",
          "display": "Calcium [Mass/volume] in Serum or Plasma"
        } ],
        "text": "CALCIUM"
      },
      "subject": {
        "reference": "Patient/cc29f045-9e30-4550-ba67-5294d721b035",
        "display": "FIVETEST BWHCKDRISKTEST"
      },
      "effectivePeriod": {
        "start": "2014-02-10T10:00:00+01:00"
      },
      "valueQuantity": {
        "value": 9.4,
        "unit": "mg/dL",
        "system": "http://unitsofmeasure.org",
        "code": "mg/dL"
      },
      "referenceRange": [ {
        "text": "8.8-10.7 mg/dL"
      } ]
    }
  }, {
    "resource": {
      "resourceType": "DiagnosticReport",
      "id": "22b74f8e-3403-421c-aa73-e4c5a44ce1a8",
      "identifier": [ {
        "use": "official",
        "system": "urn:oid:1.3.6.1.4.1.16517",
        "value": "100025030679-1F137E5C-9410-11E3-A442-1CC4B7D83400"
      } ],
      "status": "final",
      "category": [ {
        "coding": [ {
          "system": "http://terminology.hl7.org/CodeSystem/v2-0074",
          "code": "LAB",
          "display": "Laboratory"
        } ]
      } ],
      "code": {
        "coding": [ {
          "system": "http://loinc.org",
          "code": "2777-1",
          "display": "Phosphate [Mass/volume] in Serum or Plasma"
        } ]
      },
      "subject": {
        "reference": "Patient/cc29f045-9e30-4550-ba67-5294d721b035",
        "display": "FIVETEST BWHCKDRISKTEST"
      },
      "result": [ {
        "reference": "Observation/8bd8aff5-9af0-4924-b5d9-988700ac37d0",
        "display": "PHOSPHATE"
      } ]
    }
  }, {
    "resource": {
      "resourceType": "Observation",
      "id": "8bd8aff5-9af0-4924-b5d9-988700ac37d0",
      "identifier": [ {
        "use": "official",
        "system": "urn:oid:1.3.6.1.4.1.16517",
        "value": "100025030679-1F137E5C-9410-11E3-A442-1CC4B7D83400"
      } ],
      "status": "final",
      "category": [ {
        "coding": [ {
          "system": "http://terminology.hl7.org/CodeSystem/observation-category",
          "code": "laboratory"
        } ]
      } ],
      "code": {
        "coding": [ {
          "system": "http://loinc.org",
          "code": "2777-1",
          "display": "Phosphate [Mass/volume] in Serum or Plasma"
        } ],
        "text": "PHOSPHATE"
      },
      "subject": {
        "reference": "Patient/cc29f045-9e30-4550-ba67-5294d721b035",
        "display": "FIVETEST BWHCKDRISKTEST"
      },
      "effectivePeriod": {
        "start": "2014-02-10T10:00:00+01:00"
      },
      "valueQuantity": {
        "value": 4.3,
        "unit": "mg/dL",
        "system": "http://unitsofmeasure.org",
        "code": "mg/dL"
      },
      "referenceRange": [ {
        "text": "2.4-4.3 mg/dL"
      } ]
    }
  }, {
    "resource": {
      "resourceType": "DiagnosticReport",
      "id": "38a6f644-d3d9-483c-8873-393718b75c7e",
      "identifier": [ {
        "use": "official",
        "system": "urn:oid:1.3.6.1.4.1.16517",
        "value": "100025030712-1F11F640-9410-11E3-A442-1CC4B7D83400"
      } ],
      "status": "final",
      "category": [ {
        "coding": [ {
          "system": "http://terminology.hl7.org/CodeSystem/v2-0074",
          "code": "LAB",
          "display": "Laboratory"
        } ]
      } ],
      "code": {
        "coding": [ {
          "system": "http://loinc.org",
          "code": "1751-7",
          "display": "Albumin [Mass/volume] in Serum or Plasma"
        } ]
      },
      "subject": {
        "reference": "Patient/cc29f045-9e30-4550-ba67-5294d721b035",
        "display": "FIVETEST BWHCKDRISKTEST"
      },
      "result": [ {
        "reference": "Observation/cff7f799-389a-4269-a7bc-28e4890be035",
        "display": "ALBUMIN"
      } ]
    }
  }, {
    "resource": {
      "resourceType": "Observation",
      "id": "cff7f799-389a-4269-a7bc-28e4890be035",
      "identifier": [ {
        "use": "official",
        "system": "urn:oid:1.3.6.1.4.1.16517",
        "value": "100025030712-1F11F640-9410-11E3-A442-1CC4B7D83400"
      } ],
      "status": "final",
      "category": [ {
        "coding": [ {
          "system": "http://terminology.hl7.org/CodeSystem/observation-category",
          "code": "laboratory"
        } ]
      } ],
      "code": {
        "coding": [ {
          "system": "http://loinc.org",
          "code": "1751-7",
          "display": "Albumin [Mass/volume] in Serum or Plasma"
        } ],
        "text": "ALBUMIN"
      },
      "subject": {
        "reference": "Patient/cc29f045-9e30-4550-ba67-5294d721b035",
        "display": "FIVETEST BWHCKDRISKTEST"
      },
      "effectivePeriod": {
        "start": "2014-02-11T13:49:00+01:00"
      },
      "valueQuantity": {
        "value": 4.2,
        "unit": "g/dL",
        "system": "http://unitsofmeasure.org",
        "code": "g/dL"
      },
      "referenceRange": [ {
        "text": "3.5-5.2 g/dL"
      } ]
    }
  }, {
    "resource": {
      "resourceType": "DiagnosticReport",
      "id": "a151b8d6-3d3c-4fbe-8e6f-ea869d5709c3",
      "identifier": [ {
        "use": "official",
        "system": "urn:oid:1.3.6.1.4.1.16517",
        "value": "100025030707-1F113CA0-9410-11E3-A442-1CC4B7D83400"
      } ],
      "status": "final",
      "category": [ {
        "coding": [ {
          "system": "http://terminology.hl7.org/CodeSystem/v2-0074",
          "code": "LAB",
          "display": "Laboratory"
        } ]
      } ],
      "code": {
        "coding": [ {
          "system": "http://loinc.org",
          "code": "1742-6",
          "display": "Alanine aminotransferase [Enzymatic activity/volume] in Serum or Plasma"
        } ]
      },
      "subject": {
        "reference": "Patient/cc29f045-9e30-4550-ba67-5294d721b035",
        "display": "FIVETEST BWHCKDRISKTEST"
      },
      "result": [ {
        "reference": "Observation/f67826b0-1b39-49ee-9ba7-ff9e79df3b6f",
        "display": "ALT/GPT"
      } ]
    }
  }, {
    "resource": {
      "resourceType": "Observation",
      "id": "f67826b0-1b39-49ee-9ba7-ff9e79df3b6f",
      "identifier": [ {
        "use": "official",
        "system": "urn:oid:1.3.6.1.4.1.16517",
        "value": "100025030707-1F113CA0-9410-11E3-A442-1CC4B7D83400"
      } ],
      "status": "final",
      "category": [ {
        "coding": [ {
          "system": "http://terminology.hl7.org/CodeSystem/observation-category",
          "code": "laboratory"
        } ]
      } ],
      "code": {
        "coding": [ {
          "system": "http://loinc.org",
          "code": "1742-6",
          "display": "Alanine aminotransferase [Enzymatic activity/volume] in Serum or Plasma"
        } ],
        "text": "ALT/GPT"
      },
      "subject": {
        "reference": "Patient/cc29f045-9e30-4550-ba67-5294d721b035",
        "display": "FIVETEST BWHCKDRISKTEST"
      },
      "effectivePeriod": {
        "start": "2014-02-11T13:49:00+01:00"
      },
      "valueQuantity": {
        "value": 29,
        "unit": "U/L",
        "system": "http://unitsofmeasure.org",
        "code": "U/L"
      },
      "referenceRange": [ {
        "text": "10-50 U/L"
      } ]
    }
  }, {
    "resource": {
      "resourceType": "DiagnosticReport",
      "id": "6129e699-24b7-4952-aa45-529a869c39a9",
      "identifier": [ {
        "use": "official",
        "system": "urn:oid:1.3.6.1.4.1.16517",
        "value": "100025030680-1F121B5C-9410-11E3-A442-1CC4B7D83400"
      } ],
      "status": "final",
      "category": [ {
        "coding": [ {
          "system": "http://terminology.hl7.org/CodeSystem/v2-0074",
          "code": "LAB",
          "display": "Laboratory"
        } ]
      } ],
      "code": {
        "coding": [ {
          "system": "http://loinc.org",
          "code": "1751-7",
          "display": "Albumin [Mass/volume] in Serum or Plasma"
        } ]
      },
      "subject": {
        "reference": "Patient/cc29f045-9e30-4550-ba67-5294d721b035",
        "display": "FIVETEST BWHCKDRISKTEST"
      },
      "result": [ {
        "reference": "Observation/9ee9ab34-c94c-47a5-aa8e-8ef2de7673c6",
        "display": "ALBUMIN"
      } ]
    }
  }, {
    "resource": {
      "resourceType": "Observation",
      "id": "9ee9ab34-c94c-47a5-aa8e-8ef2de7673c6",
      "identifier": [ {
        "use": "official",
        "system": "urn:oid:1.3.6.1.4.1.16517",
        "value": "100025030680-1F121B5C-9410-11E3-A442-1CC4B7D83400"
      } ],
      "status": "final",
      "category": [ {
        "coding": [ {
          "system": "http://terminology.hl7.org/CodeSystem/observation-category",
          "code": "laboratory"
        } ]
      } ],
      "code": {
        "coding": [ {
          "system": "http://loinc.org",
          "code": "1751-7",
          "display": "Albumin [Mass/volume] in Serum or Plasma"
        } ],
        "text": "ALBUMIN"
      },
      "subject": {
        "reference": "Patient/cc29f045-9e30-4550-ba67-5294d721b035",
        "display": "FIVETEST BWHCKDRISKTEST"
      },
      "effectivePeriod": {
        "start": "2014-02-10T10:00:00+01:00"
      },
      "valueQuantity": {
        "value": 4.2,
        "unit": "g/dL",
        "system": "http://unitsofmeasure.org",
        "code": "g/dL"
      },
      "referenceRange": [ {
        "text": "3.5-5.2 g/dL"
      } ]
    }
  }, {
    "resource": {
      "resourceType": "DiagnosticReport",
      "id": "9a09cd0e-a00d-41f7-9793-354145c12d17",
      "identifier": [ {
        "use": "official",
        "system": "urn:oid:1.3.6.1.4.1.16517",
        "value": "100025030656-1F13F422-9410-11E3-A442-1CC4B7D83400"
      } ],
      "status": "final",
      "category": [ {
        "coding": [ {
          "system": "http://terminology.hl7.org/CodeSystem/v2-0074",
          "code": "LAB",
          "display": "Laboratory"
        } ]
      } ],
      "code": {
        "coding": [ {
          "system": "http://loinc.org",
          "code": "14959-1",
          "display": "Microalbumin/Creatinine [Mass Ratio] in Urine"
        } ]
      },
      "subject": {
        "reference": "Patient/cc29f045-9e30-4550-ba67-5294d721b035",
        "display": "FIVETEST BWHCKDRISKTEST"
      },
      "result": [ {
        "reference": "Observation/f3971388-eec8-4141-b430-7909bc9830c4",
        "display": "Malb/Cr"
      } ]
    }
  }, {
    "resource": {
      "resourceType": "Observation",
      "id": "f3971388-eec8-4141-b430-7909bc9830c4",
      "identifier": [ {
        "use": "official",
        "system": "urn:oid:1.3.6.1.4.1.16517",
        "value": "100025030656-1F13F422-9410-11E3-A442-1CC4B7D83400"
      } ],
      "status": "final",
      "category": [ {
        "coding": [ {
          "system": "http://terminology.hl7.org/CodeSystem/observation-category",
          "code": "laboratory"
        } ]
      } ],
      "code": {
        "coding": [ {
          "system": "http://loinc.org",
          "code": "14959-1",
          "display": "Microalbumin/Creatinine [Mass Ratio] in Urine"
        } ],
        "text": "Malb/Cr"
      },
      "subject": {
        "reference": "Patient/cc29f045-9e30-4550-ba67-5294d721b035",
        "display": "FIVETEST BWHCKDRISKTEST"
      },
      "effectivePeriod": {
        "start": "2014-02-10T09:30:00+01:00"
      },
      "valueQuantity": {
        "value": 31,
        "unit": "mgAlb/gCre",
        "system": "http://unitsofmeasure.org",
        "code": "mgAlb/gCre"
      },
      "referenceRange": [ {
        "text": "0.0-30 mgAlb/gCre"
      } ]
    }
  }, {
    "resource": {
      "resourceType": "DiagnosticReport",
      "id": "f1c25a65-f313-464b-97f0-393bf2436529",
      "identifier": [ {
        "use": "official",
        "system": "urn:oid:1.3.6.1.4.1.16517",
        "value": "100025030681-1F111568-9410-11E3-A442-1CC4B7D83400"
      } ],
      "status": "final",
      "category": [ {
        "coding": [ {
          "system": "http://terminology.hl7.org/CodeSystem/v2-0074",
          "code": "LAB",
          "display": "Laboratory"
        } ]
      } ],
      "code": {
        "coding": [ {
          "system": "http://loinc.org",
          "code": "2028-9",
          "display": "Carbon dioxide, total [Moles/volume] in Serum or Plasma"
        } ]
      },
      "subject": {
        "reference": "Patient/cc29f045-9e30-4550-ba67-5294d721b035",
        "display": "FIVETEST BWHCKDRISKTEST"
      },
      "result": [ {
        "reference": "Observation/15bc5624-97c4-43cb-a151-09ed3f09457f",
        "display": "TOTAL CO2"
      } ]
    }
  }, {
    "resource": {
      "resourceType": "Observation",
      "id": "15bc5624-97c4-43cb-a151-09ed3f09457f",
      "identifier": [ {
        "use": "official",
        "system": "urn:oid:1.3.6.1.4.1.16517",
        "value": "100025030681-1F111568-9410-11E3-A442-1CC4B7D83400"
      } ],
      "status": "final",
      "category": [ {
        "coding": [ {
          "system": "http://terminology.hl7.org/CodeSystem/observation-category",
          "code": "laboratory"
        } ]
      } ],
      "code": {
        "coding": [ {
          "system": "http://loinc.org",
          "code": "2028-9",
          "display": "Carbon dioxide, total [Moles/volume] in Serum or Plasma"
        } ],
        "text": "TOTAL CO2"
      },
      "subject": {
        "reference": "Patient/cc29f045-9e30-4550-ba67-5294d721b035",
        "display": "FIVETEST BWHCKDRISKTEST"
      },
      "effectivePeriod": {
        "start": "2014-02-10T10:00:00+01:00"
      },
      "valueQuantity": {
        "value": 30,
        "unit": "mmol/L",
        "system": "http://unitsofmeasure.org",
        "code": "mmol/L"
      },
      "referenceRange": [ {
        "text": "22-31 mmol/L"
      } ]
    }
  }, {
    "resource": {
      "resourceType": "DiagnosticReport",
      "id": "8f91d082-79d9-461b-aeef-5b52ef0489c6",
      "identifier": [ {
        "use": "official",
        "system": "urn:oid:1.3.6.1.4.1.16517",
        "value": "100025030706-1F13A4C2-9410-11E3-A442-1CC4B7D83400"
      } ],
      "status": "final",
      "category": [ {
        "coding": [ {
          "system": "http://terminology.hl7.org/CodeSystem/v2-0074",
          "code": "LAB",
          "display": "Laboratory"
        } ]
      } ],
      "code": {
        "coding": [ {
          "system": "http://loinc.org",
          "code": "10466-1",
          "display": "Anion gap 3 in Serum or Plasma"
        } ]
      },
      "subject": {
        "reference": "Patient/cc29f045-9e30-4550-ba67-5294d721b035",
        "display": "FIVETEST BWHCKDRISKTEST"
      },
      "result": [ {
        "reference": "Observation/7c600ab6-dd15-4b90-bd08-841aae6ba4f5",
        "display": "ANION GAP"
      } ]
    }
  }, {
    "resource": {
      "resourceType": "Observation",
      "id": "7c600ab6-dd15-4b90-bd08-841aae6ba4f5",
      "identifier": [ {
        "use": "official",
        "system": "urn:oid:1.3.6.1.4.1.16517",
        "value": "100025030706-1F13A4C2-9410-11E3-A442-1CC4B7D83400"
      } ],
      "status": "final",
      "category": [ {
        "coding": [ {
          "system": "http://terminology.hl7.org/CodeSystem/observation-category",
          "code": "laboratory"
        } ]
      } ],
      "code": {
        "coding": [ {
          "system": "http://loinc.org",
          "code": "10466-1",
          "display": "Anion gap 3 in Serum or Plasma"
        } ],
        "text": "ANION GAP"
      },
      "subject": {
        "reference": "Patient/cc29f045-9e30-4550-ba67-5294d721b035",
        "display": "FIVETEST BWHCKDRISKTEST"
      },
      "effectivePeriod": {
        "start": "2014-02-11T13:49:00+01:00"
      },
      "valueQuantity": {
        "value": 14,
        "unit": "mmol/L",
        "system": "http://unitsofmeasure.org",
        "code": "mmol/L"
      },
      "referenceRange": [ {
        "text": "5-17 mmol/L"
      } ]
    }
  }, {
    "resource": {
      "resourceType": "DiagnosticReport",
      "id": "fce436f8-c5f7-47db-bb21-db3b5d6e2e27",
      "identifier": [ {
        "use": "official",
        "system": "urn:oid:1.3.6.1.4.1.16517",
        "value": "100025030708-1F1162F2-9410-11E3-A442-1CC4B7D83400"
      } ],
      "status": "final",
      "category": [ {
        "coding": [ {
          "system": "http://terminology.hl7.org/CodeSystem/v2-0074",
          "code": "LAB",
          "display": "Laboratory"
        } ]
      } ],
      "code": {
        "coding": [ {
          "system": "http://loinc.org",
          "code": "1920-8",
          "display": "Aspartate aminotransferase [Enzymatic activity/volume] in Serum or Plasma"
        } ]
      },
      "subject": {
        "reference": "Patient/cc29f045-9e30-4550-ba67-5294d721b035",
        "display": "FIVETEST BWHCKDRISKTEST"
      },
      "result": [ {
        "reference": "Observation/fbac5c49-2215-46cc-ae81-c0e20588ae6b",
        "display": "AST/GOT"
      } ]
    }
  }, {
    "resource": {
      "resourceType": "Observation",
      "id": "fbac5c49-2215-46cc-ae81-c0e20588ae6b",
      "identifier": [ {
        "use": "official",
        "system": "urn:oid:1.3.6.1.4.1.16517",
        "value": "100025030708-1F1162F2-9410-11E3-A442-1CC4B7D83400"
      } ],
      "status": "final",
      "category": [ {
        "coding": [ {
          "system": "http://terminology.hl7.org/CodeSystem/observation-category",
          "code": "laboratory"
        } ]
      } ],
      "code": {
        "coding": [ {
          "system": "http://loinc.org",
          "code": "1920-8",
          "display": "Aspartate aminotransferase [Enzymatic activity/volume] in Serum or Plasma"
        } ],
        "text": "AST/GOT"
      },
      "subject": {
        "reference": "Patient/cc29f045-9e30-4550-ba67-5294d721b035",
        "display": "FIVETEST BWHCKDRISKTEST"
      },
      "effectivePeriod": {
        "start": "2014-02-11T13:49:00+01:00"
      },
      "valueQuantity": {
        "value": 28,
        "unit": "U/L",
        "system": "http://unitsofmeasure.org",
        "code": "U/L"
      },
      "referenceRange": [ {
        "text": "10-50 U/L"
      } ]
    }
  }, {
    "resource": {
      "resourceType": "DiagnosticReport",
      "id": "a4c5ad19-73a2-4f3a-9ae7-b356f0be123c",
      "identifier": [ {
        "use": "official",
        "system": "urn:oid:1.3.6.1.4.1.16517",
        "value": "100025030677-1F147FD2-9410-11E3-A442-1CC4B7D83400"
      } ],
      "status": "final",
      "category": [ {
        "coding": [ {
          "system": "http://terminology.hl7.org/CodeSystem/v2-0074",
          "code": "LAB",
          "display": "Laboratory"
        } ]
      } ],
      "code": {
        "coding": [ {
          "system": "http://loinc.org",
          "code": "33914-3",
          "display": "Glomerular filtration rate/1.73 sq M.predicted by Creatinine-based formula (MDRD)"
        } ]
      },
      "subject": {
        "reference": "Patient/cc29f045-9e30-4550-ba67-5294d721b035",
        "display": "FIVETEST BWHCKDRISKTEST"
      },
      "result": [ {
        "reference": "Observation/be13acc2-b1c7-454f-8c2f-febea28b804a",
        "display": "eGFR"
      } ]
    }
  }, {
    "resource": {
      "resourceType": "Observation",
      "id": "be13acc2-b1c7-454f-8c2f-febea28b804a",
      "identifier": [ {
        "use": "official",
        "system": "urn:oid:1.3.6.1.4.1.16517",
        "value": "100025030677-1F147FD2-9410-11E3-A442-1CC4B7D83400"
      } ],
      "status": "final",
      "category": [ {
        "coding": [ {
          "system": "http://terminology.hl7.org/CodeSystem/observation-category",
          "code": "laboratory"
        } ]
      } ],
      "code": {
        "coding": [ {
          "system": "http://loinc.org",
          "code": "33914-3",
          "display": "Glomerular filtration rate/1.73 sq M.predicted by Creatinine-based formula (MDRD)"
        } ],
        "text": "eGFR"
      },
      "subject": {
        "reference": "Patient/cc29f045-9e30-4550-ba67-5294d721b035",
        "display": "FIVETEST BWHCKDRISKTEST"
      },
      "effectivePeriod": {
        "start": "2014-02-10T10:00:00+01:00"
      },
      "valueQuantity": {
        "value": 27,
        "unit": "1",
        "system": "http://unitsofmeasure.org",
        "code": "1"
      }
    }
  }, {
    "resource": {
      "resourceType": "DiagnosticReport",
      "id": "acf55524-b110-4576-a423-eeaeb58988d8",
      "identifier": [ {
        "use": "official",
        "system": "urn:oid:1.3.6.1.4.1.16517",
        "value": "100025030700-1F126A76-9410-11E3-A442-1CC4B7D83400"
      } ],
      "status": "final",
      "category": [ {
        "coding": [ {
          "system": "http://terminology.hl7.org/CodeSystem/v2-0074",
          "code": "LAB",
          "display": "Laboratory"
        } ]
      } ],
      "code": {
        "coding": [ {
          "system": "http://loinc.org",
          "code": "3094-0",
          "display": "Urea nitrogen [Mass/volume] in Serum or Plasma"
        } ]
      },
      "subject": {
        "reference": "Patient/cc29f045-9e30-4550-ba67-5294d721b035",
        "display": "FIVETEST BWHCKDRISKTEST"
      },
      "result": [ {
        "reference": "Observation/f9016947-0bb7-4982-aaf1-06e95f00717f",
        "display": "UREA N"
      } ]
    }
  }, {
    "resource": {
      "resourceType": "Observation",
      "id": "f9016947-0bb7-4982-aaf1-06e95f00717f",
      "identifier": [ {
        "use": "official",
        "system": "urn:oid:1.3.6.1.4.1.16517",
        "value": "100025030700-1F126A76-9410-11E3-A442-1CC4B7D83400"
      } ],
      "status": "final",
      "category": [ {
        "coding": [ {
          "system": "http://terminology.hl7.org/CodeSystem/observation-category",
          "code": "laboratory"
        } ]
      } ],
      "code": {
        "coding": [ {
          "system": "http://loinc.org",
          "code": "3094-0",
          "display": "Urea nitrogen [Mass/volume] in Serum or Plasma"
        } ],
        "text": "UREA N"
      },
      "subject": {
        "reference": "Patient/cc29f045-9e30-4550-ba67-5294d721b035",
        "display": "FIVETEST BWHCKDRISKTEST"
      },
      "effectivePeriod": {
        "start": "2014-02-11T13:49:00+01:00"
      },
      "valueQuantity": {
        "value": 8,
        "unit": "mg/dL",
        "system": "http://unitsofmeasure.org",
        "code": "mg/dL"
      },
      "referenceRange": [ {
        "text": "6-23 mg/dL"
      } ]
    }
  }, {
    "resource": {
      "resourceType": "DiagnosticReport",
      "id": "0163f821-837b-4dfb-9f55-0915176f299b",
      "identifier": [ {
        "use": "official",
        "system": "urn:oid:1.3.6.1.4.1.16517",
        "value": "100025030704-1F10C61C-9410-11E3-A442-1CC4B7D83400"
      } ],
      "status": "final",
      "category": [ {
        "coding": [ {
          "system": "http://terminology.hl7.org/CodeSystem/v2-0074",
          "code": "LAB",
          "display": "Laboratory"
        } ]
      } ],
      "code": {
        "coding": [ {
          "system": "http://loinc.org",
          "code": "2075-0",
          "display": "Chloride [Moles/volume] in Serum or Plasma"
        } ]
      },
      "subject": {
        "reference": "Patient/cc29f045-9e30-4550-ba67-5294d721b035",
        "display": "FIVETEST BWHCKDRISKTEST"
      },
      "result": [ {
        "reference": "Observation/780d1437-79f8-4e63-9ec9-b34a6d018de6",
        "display": "CHLORIDE"
      } ]
    }
  }, {
    "resource": {
      "resourceType": "Observation",
      "id": "780d1437-79f8-4e63-9ec9-b34a6d018de6",
      "identifier": [ {
        "use": "official",
        "system": "urn:oid:1.3.6.1.4.1.16517",
        "value": "100025030704-1F10C61C-9410-11E3-A442-1CC4B7D83400"
      } ],
      "status": "final",
      "category": [ {
        "coding": [ {
          "system": "http://terminology.hl7.org/CodeSystem/observation-category",
          "code": "laboratory"
        } ]
      } ],
      "code": {
        "coding": [ {
          "system": "http://loinc.org",
          "code": "2075-0",
          "display": "Chloride [Moles/volume] in Serum or Plasma"
        } ],
        "text": "CHLORIDE"
      },
      "subject": {
        "reference": "Patient/cc29f045-9e30-4550-ba67-5294d721b035",
        "display": "FIVETEST BWHCKDRISKTEST"
      },
      "effectivePeriod": {
        "start": "2014-02-11T13:49:00+01:00"
      },
      "valueQuantity": {
        "value": 98,
        "unit": "mmol/L",
        "system": "http://unitsofmeasure.org",
        "code": "mmol/L"
      },
      "referenceRange": [ {
        "text": "98-107 mmol/L"
      } ]
    }
  }, {
    "resource": {
      "resourceType": "DiagnosticReport",
      "id": "56724b8c-19fb-46aa-a5b8-1207c952883d",
      "identifier": [ {
        "use": "official",
        "system": "urn:oid:1.3.6.1.4.1.16517",
        "value": "100025030714-1F128F88-9410-11E3-A442-1CC4B7D83400"
      } ],
      "status": "final",
      "category": [ {
        "coding": [ {
          "system": "http://terminology.hl7.org/CodeSystem/v2-0074",
          "code": "LAB",
          "display": "Laboratory"
        } ]
      } ],
      "code": {
        "coding": [ {
          "system": "http://loinc.org",
          "code": "17861-6",
          "display": "Calcium [Mass/volume] in Serum or Plasma"
        } ]
      },
      "subject": {
        "reference": "Patient/cc29f045-9e30-4550-ba67-5294d721b035",
        "display": "FIVETEST BWHCKDRISKTEST"
      },
      "result": [ {
        "reference": "Observation/79bfc597-c234-417a-87fb-ab853f7b9973",
        "display": "CALCIUM"
      } ]
    }
  }, {
    "resource": {
      "resourceType": "Observation",
      "id": "79bfc597-c234-417a-87fb-ab853f7b9973",
      "identifier": [ {
        "use": "official",
        "system": "urn:oid:1.3.6.1.4.1.16517",
        "value": "100025030714-1F128F88-9410-11E3-A442-1CC4B7D83400"
      } ],
      "status": "final",
      "category": [ {
        "coding": [ {
          "system": "http://terminology.hl7.org/CodeSystem/observation-category",
          "code": "laboratory"
        } ]
      } ],
      "code": {
        "coding": [ {
          "system": "http://loinc.org",
          "code": "17861-6",
          "display": "Calcium [Mass/volume] in Serum or Plasma"
        } ],
        "text": "CALCIUM"
      },
      "subject": {
        "reference": "Patient/cc29f045-9e30-4550-ba67-5294d721b035",
        "display": "FIVETEST BWHCKDRISKTEST"
      },
      "effectivePeriod": {
        "start": "2014-02-11T13:49:00+01:00"
      },
      "valueQuantity": {
        "value": 9.4,
        "unit": "mg/dL",
        "system": "http://unitsofmeasure.org",
        "code": "mg/dL"
      },
      "referenceRange": [ {
        "text": "8.8-10.7 mg/dL"
      } ]
    }
  }, {
    "resource": {
      "resourceType": "DiagnosticReport",
      "id": "82e14755-680e-4c6e-a71e-38928ba32346",
      "identifier": [ {
        "use": "official",
        "system": "urn:oid:1.3.6.1.4.1.16517",
        "value": "100025030657-1F13D104-9410-11E3-A442-1CC4B7D83400"
      } ],
      "status": "final",
      "category": [ {
        "coding": [ {
          "system": "http://terminology.hl7.org/CodeSystem/v2-0074",
          "code": "LAB",
          "display": "Laboratory"
        } ]
      } ],
      "code": {
        "coding": [ {
          "system": "http://loinc.org",
          "code": "14957-5",
          "display": "Microalbumin [Mass/volume] in Urine"
        } ]
      },
      "subject": {
        "reference": "Patient/cc29f045-9e30-4550-ba67-5294d721b035",
        "display": "FIVETEST BWHCKDRISKTEST"
      },
      "result": [ {
        "reference": "Observation/0f42e827-6e4a-4d37-b864-77a5706dd74d",
        "display": "Malb"
      } ]
    }
  }, {
    "resource": {
      "resourceType": "Observation",
      "id": "0f42e827-6e4a-4d37-b864-77a5706dd74d",
      "identifier": [ {
        "use": "official",
        "system": "urn:oid:1.3.6.1.4.1.16517",
        "value": "100025030657-1F13D104-9410-11E3-A442-1CC4B7D83400"
      } ],
      "status": "final",
      "category": [ {
        "coding": [ {
          "system": "http://terminology.hl7.org/CodeSystem/observation-category",
          "code": "laboratory"
        } ]
      } ],
      "code": {
        "coding": [ {
          "system": "http://loinc.org",
          "code": "14957-5",
          "display": "Microalbumin [Mass/volume] in Urine"
        } ],
        "text": "Malb"
      },
      "subject": {
        "reference": "Patient/cc29f045-9e30-4550-ba67-5294d721b035",
        "display": "FIVETEST BWHCKDRISKTEST"
      },
      "effectivePeriod": {
        "start": "2014-02-10T09:30:00+01:00"
      },
      "valueQuantity": {
        "value": 4.2,
        "unit": "mg/dL",
        "system": "http://unitsofmeasure.org",
        "code": "mg/dL"
      },
      "referenceRange": [ {
        "text": "0.0-2.0 mg/dL"
      } ]
    }
  }, {
    "resource": {
      "resourceType": "DiagnosticReport",
      "id": "1e469539-13db-40e6-b444-37100171c81e",
      "identifier": [ {
        "use": "official",
        "system": "urn:oid:1.3.6.1.4.1.16517",
        "value": "100025030702-1F106000-9410-11E3-A442-1CC4B7D83400"
      } ],
      "status": "final",
      "category": [ {
        "coding": [ {
          "system": "http://terminology.hl7.org/CodeSystem/v2-0074",
          "code": "LAB",
          "display": "Laboratory"
        } ]
      } ],
      "code": {
        "coding": [ {
          "system": "http://loinc.org",
          "code": "2951-2",
          "display": "Sodium [Moles/volume] in Serum or Plasma"
        } ]
      },
      "subject": {
        "reference": "Patient/cc29f045-9e30-4550-ba67-5294d721b035",
        "display": "FIVETEST BWHCKDRISKTEST"
      },
      "result": [ {
        "reference": "Observation/26a1b52f-4403-4f78-8c31-ebfa0090b411",
        "display": "SODIUM"
      } ]
    }
  }, {
    "resource": {
      "resourceType": "Observation",
      "id": "26a1b52f-4403-4f78-8c31-ebfa0090b411",
      "identifier": [ {
        "use": "official",
        "system": "urn:oid:1.3.6.1.4.1.16517",
        "value": "100025030702-1F106000-9410-11E3-A442-1CC4B7D83400"
      } ],
      "status": "final",
      "category": [ {
        "coding": [ {
          "system": "http://terminology.hl7.org/CodeSystem/observation-category",
          "code": "laboratory"
        } ]
      } ],
      "code": {
        "coding": [ {
          "system": "http://loinc.org",
          "code": "2951-2",
          "display": "Sodium [Moles/volume] in Serum or Plasma"
        } ],
        "text": "SODIUM"
      },
      "subject": {
        "reference": "Patient/cc29f045-9e30-4550-ba67-5294d721b035",
        "display": "FIVETEST BWHCKDRISKTEST"
      },
      "effectivePeriod": {
        "start": "2014-02-11T13:49:00+01:00"
      },
      "valueQuantity": {
        "value": 140,
        "unit": "mmol/L",
        "system": "http://unitsofmeasure.org",
        "code": "mmol/L"
      },
      "referenceRange": [ {
        "text": "136-145 mmol/L"
      } ]
    }
  }, {
    "resource": {
      "resourceType": "AllergyIntolerance",
      "id": "7676955e-7223-407e-9c2a-5e3b4ba5bfb7",
      "identifier": [ {
        "use": "official",
        "system": "urn:oid:1.3.6.1.4.1.16517",
        "value": "1"
      } ],
      "clinicalStatus": {
        "coding": [ {
          "system": "http://terminology.hl7.org/CodeSystem/allergyintolerance-clinical",
          "code": "active",
          "display": "Active"
        } ]
      },
      "verificationStatus": {
        "coding": [ {
          "system": "http://terminology.hl7.org/CodeSystem/allergyintolerance-verification",
          "code": "confirmed",
          "display": "Confirmed"
        } ]
      },
      "patient": {
        "reference": "Patient/cc29f045-9e30-4550-ba67-5294d721b035",
        "display": "FIVETEST BWHCKDRISKTEST"
      },
      "recordedDate": "2014-02-12T13:04:31+01:00"
    }
  }, {
    "resource": {
      "resourceType": "Procedure",
      "id": "48d5eba2-4100-4276-aec6-4b5fc2a27338",
      "status": "completed",
      "code": {
        "text": "No procedure data is applicable"
      },
      "subject": {
        "reference": "Patient/cc29f045-9e30-4550-ba67-5294d721b035",
        "display": "FIVETEST BWHCKDRISKTEST"
      },
      "performedPeriod": {
        "start": "2014-02-12T13:04:31+01:00"
      }
    }
  }, {
    "resource": {
      "resourceType": "Condition",
      "id": "82b8bc2c-44bc-4e1b-9599-616fda0eed5e",
      "clinicalStatus": {
        "coding": [ {
          "system": "http://terminology.hl7.org/CodeSystem/condition-clinical",
          "code": "active",
          "display": "Active"
        } ]
      },
      "verificationStatus": {
        "coding": [ {
          "system": "http://terminology.hl7.org/CodeSystem/condition-ver-status",
          "code": "confirmed",
          "display": "Confirmed"
        } ]
      },
      "category": [ {
        "coding": [ {
          "system": "http://terminology.hl7.org/CodeSystem/condition-category",
          "code": "problem-list-item",
          "display": "Problem List Item"
        } ]
      } ],
      "subject": {
        "reference": "Patient/cc29f045-9e30-4550-ba67-5294d721b035",
        "display": "FIVETEST BWHCKDRISKTEST"
      },
      "onsetDateTime": "2014-02-12T13:04:31+01:00"
    }
  }, {
    "resource": {
      "resourceType": "Observation",
      "id": "203b589f-1400-4be2-b0ae-5384a28585bb",
      "status": "final",
      "category": [ {
        "coding": [ {
          "system": "http://terminology.hl7.org/CodeSystem/observation-category",
          "code": "vital-signs",
          "display": "Vital Signs"
        } ]
      } ],
      "code": {
        "text": "No vital sign data is applicable"
      },
      "subject": {
        "reference": "Patient/cc29f045-9e30-4550-ba67-5294d721b035",
        "display": "FIVETEST BWHCKDRISKTEST"
      },
      "effectivePeriod": {
        "start": "2014-02-12T13:04:31+01:00"
      },
      "dataAbsentReason": {
        "coding": [ {
          "system": "http://hl7.org/fhir/data-absent-reason",
          "code": "temp",
          "display": "Temp"
        } ]
      }
    }
  }, {
    "resource": {
      "resourceType": "Encounter",
      "id": "9f6bf1eb-c479-48b6-be20-e8070f249bc4",
      "status": "finished",
      "type": [ {
        "coding": [ {
          "system": "http://snomed.info/sct",
          "code": "371531000",
          "display": "encounter report"
        } ],
        "text": "No encounter diagnosis data is applicable"
      } ],
      "subject": {
        "reference": "Patient/cc29f045-9e30-4550-ba67-5294d721b035",
        "display": "FIVETEST BWHCKDRISKTEST"
      },
      "period": {
        "start": "2014-02-12T13:04:31+01:00"
      }
    }
  }, {
    "resource": {
      "resourceType": "Immunization",
      "id": "60b5d735-0eec-442d-a079-8b4159d174ad",
      "status": "completed",
      "vaccineCode": {
        "text": "No immunization data is applicable"
      },
      "patient": {
        "reference": "Patient/cc29f045-9e30-4550-ba67-5294d721b035",
        "display": "FIVETEST BWHCKDRISKTEST"
      },
      "occurrenceDateTime": "2014-02-12T13:04:31+01:00",
      "primarySource": false
    }
  }, {
    "resource": {
      "resourceType": "MedicationStatement",
      "id": "1bcd3b46-3a68-4841-92ef-8433cc08463f",
      "extension": [ {
        "url": "http://hl7.org/fhir/3.0/StructureDefinition/extension-MedicationStatement.status",
        "valueCode": "UNKNOWN"
      } ],
      "status": "completed",
      "medicationReference": {
        "reference": "Medication/fd181f21-3c3c-43c0-8bdc-4beac369bf6f",
        "display": "No medication data is applicable"
      },
      "subject": {
        "reference": "Patient/cc29f045-9e30-4550-ba67-5294d721b035",
        "display": "FIVETEST BWHCKDRISKTEST"
      },
      "effectivePeriod": {
        "start": "2014-02-12T13:04:31+01:00"
      }
    }
  }, {
    "resource": {
      "resourceType": "Medication",
      "id": "fd181f21-3c3c-43c0-8bdc-4beac369bf6f",
      "code": {
        "text": "No medication data is applicable"
      }
    }
  }, {
    "resource": {
      "resourceType": "Observation",
      "id": "c603309a-e9af-4a48-8325-093064220700",
      "identifier": [ {
        "use": "official",
        "system": "urn:oid:1.3.6.1.4.1.16517",
        "value": "1"
      } ],
      "status": "final",
      "code": {
        "coding": [ {
          "system": "urn:oid:2.16.840.1.113883.5.4",
          "code": "ASSERTION"
        } ]
      },
      "subject": {
        "reference": "Patient/cc29f045-9e30-4550-ba67-5294d721b035",
        "display": "FIVETEST BWHCKDRISKTEST"
      },
      "effectivePeriod": {
        "start": "2014-02-12"
      },
      "dataAbsentReason": {
        "coding": [ {
          "system": "http://hl7.org/fhir/data-absent-reason",
          "code": "unknown",
          "display": "Unkown"
        } ]
      }
    }
  }, {
    "resource": {
      "resourceType": "CarePlan",
      "id": "c30ce3d8-328f-46ed-bba0-6a02a04f8ae9",
      "text": {
        "status": "additional",
        "div": "<div xmlns=\"http://www.w3.org/1999/xhtml\"><table border=\"1\" width=\"100%\"><thead><tr><th>Date</th><th>Care Plan</th></tr></thead><tbody><tr><td>02/12/2014 13:04</td><td>No goal and instruction data is applicable</td></tr></tbody></table></div>"
      },
      "status": "active",
      "intent": "plan",
      "category": [ {
        "coding": [ {
          "system": "http://hl7.org/fhir/us/core/CodeSystem/careplan-category",
          "code": "assess-plan"
        } ]
      } ],
      "title": "Plan of Care",
      "description": "<div><table border=\"1\" width=\"100%\"><thead><tr><th>Date</th><th>Care Plan</th></tr></thead><tbody><tr><td>02/12/2014 13:04</td><td>No goal and instruction data is applicable</td></tr></tbody></table></div>",
      "subject": {
        "reference": "Patient/cc29f045-9e30-4550-ba67-5294d721b035",
        "display": "FIVETEST BWHCKDRISKTEST"
      }
    }
  } ]
}