{
  "resourceType": "Bundle",
  "entry": [ {
    "resource": {
      "resourceType": "Composition",
      "id": "993ca422-859b-48ca-aa2b-a5adb60b735b",
      "identifier": {
        "use": "official",
        "system": "urn:oid:1.3.6.1.4.1.16517",
        "value": "0B0038CE-9410-11E3-AE0B-1CC4B7D83400"
      },
      "status": "preliminary",
      "type": {
        "coding": [ {
          "system": "http://loinc.org",
          "code": "34133-9",
          "display": "Summarization of Episode Note"
        } ]
      },
      "category": [ {
        "coding": [ {
          "system": "http://hl7.org/fhir/ValueSet/doc-classcodes",
          "code": "LP173421-7",
          "display": "Note"
        } ]
      } ],
      "subject": {
        "reference": "Patient/eb2ba2c5-7aa0-4a54-b9c1-7683a740acd0",
        "display": "FOURTEST BWHCKDRISKTEST"
      },
      "date": "2014-02-12T13:03:57-05:00",
      "title": "BPG AT 850 BOYLSTON - INTERNAL MEDICINE  Summarization of Episode Note",
      "confidentiality": "N",
      "custodian": {
        "reference": "Organization/9caedb4d-a5b0-4b93-a412-856f4820d492",
        "display": "Partners HealthCare"
      },
      "event": [ {
        "period": {
          "end": "2014-02-12T13:03:57+01:00"
        },
        "detail": [ {
          "reference": "Practitioner/0784804a-085c-43db-9884-4ff5aec1acc6"
        } ]
      } ],
      "section": [ {
        "title": "Results",
        "code": {
          "coding": [ {
            "system": "http://loinc.org",
            "code": "30954-2",
            "display": "Relevant diagnostic tests and/or laboratory data"
          } ]
        },
        "text": {
          "status": "additional",
          "div": "<div xmlns=\"http://www.w3.org/1999/xhtml\"><table border=\"1\" width=\"100%\"><thead><tr><th>Date</th><th>Test</th><th>Value</th><th>Reference Range</th><th>Abnormal Flag</th><th>Comments</th><th>Ordering Provider</th></tr></thead><tbody><tr><td>02/11/2014 13:49</td><td>SODIUM</td><td>140 mmol/L</td><td>136-145 mmol/L</td><td>Not available</td><td>Not available</td><td>RENNER,KARA E. M.D.</td></tr><tr><td>02/11/2014 13:49</td><td>POTASSIUM</td><td>4.0 mmol/L</td><td>3.4-5.0 mmol/L</td><td>Not available</td><td>Not available</td><td>RENNER,KARA E. M.D.</td></tr><tr><td>02/11/2014 13:49</td><td>CHLORIDE</td><td>98 mmol/L</td><td>98-107 mmol/L</td><td>Not available</td><td>Not available</td><td>RENNER,KARA E. M.D.</td></tr><tr><td>02/11/2014 13:49</td><td>TOTAL CO2</td><td>23 mmol/L</td><td>22-31 mmol/L</td><td>Not available</td><td>Not available</td><td>RENNER,KARA E. M.D.</td></tr><tr><td>02/11/2014 13:49</td><td>ALT/GPT</td><td>29 U/L</td><td>10-50 U/L</td><td>Not available</td><td>Not available</td><td>RENNER,KARA E. M.D.</td></tr><tr><td>02/11/2014 13:49</td><td>AST/GOT</td><td>28 U/L</td><td>10-50 U/L</td><td>Not available</td><td>Not available</td><td>RENNER,KARA E. M.D.</td></tr><tr><td>02/11/2014 13:49</td><td>ALK PHOS</td><td>99 U/L</td><td>35-130 U/L</td><td>Not available</td><td>Not available</td><td>RENNER,KARA E. M.D.</td></tr><tr><td>02/11/2014 13:49</td><td>TOT BILI</td><td>0.5 mg/dL</td><td>0.0-1.0 mg/dL</td><td>Not available</td><td>Not available</td><td>RENNER,KARA E. M.D.</td></tr><tr><td>02/11/2014 13:49</td><td>TOT PROT</td><td>8.3 g/dL</td><td>6.4-8.3 g/dL</td><td>Not available</td><td>Not available</td><td>RENNER,KARA E. M.D.</td></tr><tr><td>02/11/2014 13:49</td><td>ALBUMIN</td><td>4.4 g/dL</td><td>3.5-5.2 g/dL</td><td>Not available</td><td>Not available</td><td>RENNER,KARA E. M.D.</td></tr><tr><td>02/11/2014 13:49</td><td>GLOBULIN</td><td>3.9 g/dL</td><td>2.0-4.0 g/dL</td><td>Not available</td><td>Not available</td><td>RENNER,KARA E. M.D.</td></tr><tr><td>02/11/2014 13:49</td><td>UREA N</td><td>8 mg/dL</td><td>6-23 mg/dL</td><td>Not available</td><td>Not available</td><td>RENNER,KARA E. M.D.</td></tr><tr><td>02/11/2014 13:49</td><td>CALCIUM</td><td>9.9 mg/dL</td><td>8.8-10.7 mg/dL</td><td>Not available</td><td>Not available</td><td>RENNER,KARA E. M.D.</td></tr><tr><td>02/11/2014 13:49</td><td>CREATININE</td><td>1.90 mg/dL</td><td>0.50-1.20 mg/dL</td><td>Not available</td><td>Not available</td><td>RENNER,KARA E. M.D.</td></tr><tr><td>02/11/2014 13:49</td><td>GLUCOSE</td><td>110 mg/dL</td><td>70-100 mg/dL</td><td>Not available</td><td>VERIFIED</td><td>RENNER,KARA E. M.D.</td></tr><tr><td>02/11/2014 13:49</td><td>ANION GAP</td><td>14 mmol/L</td><td>5-17 mmol/L</td><td>Not available</td><td>Not available</td><td>RENNER,KARA E. M.D.</td></tr><tr><td>02/11/2014 13:49</td><td>eGFR</td><td>31 </td><td>Not available</td><td>Not available</td><td>(Abnormal if &amp;lt;60 mL/min/1.73m2If patient is black, multiply by 1.21)</td><td>RENNER,KARA E. M.D.</td></tr><tr><td>02/10/2014 10:00</td><td>TOTAL CO2</td><td>23 mmol/L</td><td>22-31 mmol/L</td><td>Not available</td><td>Not available</td><td>Not available</td></tr><tr><td>02/10/2014 10:00</td><td>ALBUMIN</td><td>4.4 g/dL</td><td>3.5-5.2 g/dL</td><td>Not available</td><td>Not available</td><td>Not available</td></tr><tr><td>02/10/2014 10:00</td><td>CALCIUM</td><td>9.9 mg/dL</td><td>8.8-10.7 mg/dL</td><td>Not available</td><td>Not available</td><td>Not available</td></tr><tr><td>02/10/2014 10:00</td><td>CREATININE</td><td>1.9 mg/dL</td><td>0.50-1.20 mg/dL</td><td>Not available</td><td>Not available</td><td>Not available</td></tr><tr><td>02/10/2014 10:00</td><td>PHOSPHATE</td><td>4.9 mg/dL</td><td>2.4-4.3 mg/dL</td><td>Not available</td><td>Not available</td><td>Not available</td></tr><tr><td>02/10/2014 10:00</td><td>eGFR</td><td>31 </td><td>Not available</td><td>Not available</td><td>(Abnormal if &amp;lt;60 mL/min/1.73m2If patient is black, multiply by 1.21)</td><td>Not available</td></tr><tr><td>02/10/2014 09:30</td><td>Malb</td><td>4.4 mg/dL</td><td>0.0-2.0 mg/dL</td><td>*</td><td>Not available</td><td>SINGH,KARANDEEP M.D.</td></tr><tr><td>02/10/2014 09:30</td><td>Malb/Cr</td><td>165 mgAlb/gCre</td><td>0.0-30 mgAlb/gCre</td><td>*</td><td>Not available</td><td>SINGH,KARANDEEP M.D.</td></tr><tr><td>02/10/2014 09:30</td><td>TIME SPAN</td><td>RANDOM</td><td>Not available</td><td>Not available</td><td>Not available</td><td>SINGH,KARANDEEP M.D.</td></tr></tbody></table></div>"
        },
        "mode": "snapshot",
        "entry": [ {
          "reference": "DiagnosticReport/9b83fa15-8fab-4062-9d1a-afd8c54c1370",
          "display": "Carbon dioxide, total [Moles/volume] in Serum or Plasma"
        }, {
          "reference": "DiagnosticReport/449fb447-25ef-48aa-971d-e5d7d23e6c67",
          "display": "Microalbumin/Creatinine [Mass Ratio] in Urine"
        }, {
          "reference": "DiagnosticReport/dbcd8b7a-7bd0-4761-9e9d-46651040605a",
          "display": "Albumin [Mass/volume] in Serum or Plasma"
        }, {
          "reference": "DiagnosticReport/a62935b0-d2e2-4ee3-abaa-ec4d7122c7b5",
          "display": "Alanine aminotransferase [Enzymatic activity/volume] in Serum or Plasma"
        }, {
          "reference": "DiagnosticReport/fa3670f0-7316-4617-8959-54f887be0c10",
          "display": "Bilirubin.total [Mass/volume] in Serum or Plasma"
        }, {
          "reference": "DiagnosticReport/9fb5bf4c-8727-4118-b6cf-8be3cda32eab",
          "display": "Globulin [Mass/volume] in Serum"
        }, {
          "reference": "DiagnosticReport/3a15a294-a8d6-4370-89ad-fb1b209e0e8c",
          "display": "Albumin [Mass/volume] in Serum or Plasma"
        }, {
          "reference": "DiagnosticReport/a1786900-1e29-4993-9fd3-2638c847bc35",
          "display": "Urea nitrogen [Mass/volume] in Serum or Plasma"
        }, {
          "reference": "DiagnosticReport/1468e425-ecf3-4af9-a681-41b13e226228",
          "display": "Carbon dioxide, total [Moles/volume] in Serum or Plasma"
        }, {
          "reference": "DiagnosticReport/11159774-22ce-4e82-b39c-addd173480fa",
          "display": "Creatinine [Mass/volume] in Serum or Plasma"
        }, {
          "reference": "DiagnosticReport/8c3925d4-3597-450d-ae55-54e862ea1cd0",
          "display": "Calcium [Mass/volume] in Serum or Plasma"
        }, {
          "reference": "DiagnosticReport/9a8b4a6e-2f50-4543-af03-9ac14d2cbbfd",
          "display": "Phosphate [Mass/volume] in Serum or Plasma"
        }, {
          "reference": "DiagnosticReport/33f3eb34-5d4d-41a7-8b2b-2831ca4098ef",
          "display": "Glomerular filtration rate/1.73 sq M.predicted by Creatinine-based formula (MDRD)"
        }, {
          "reference": "DiagnosticReport/beb4dbda-daab-44e0-acf6-83c63e1f50a1",
          "display": "Microalbumin [Mass/volume] in Urine"
        }, {
          "reference": "DiagnosticReport/f27677bf-14f2-4558-ba04-9d08bc619087",
          "display": "Glomerular filtration rate/1.73 sq M.predicted by Creatinine-based formula (MDRD)"
        }, {
          "reference": "DiagnosticReport/d11e1011-b27a-455e-9fd3-ac07ca4474b0",
          "display": "Chloride [Moles/volume] in Serum or Plasma"
        }, {
          "reference": "DiagnosticReport/39a668ae-7bd5-4b45-a274-56f554cfc767",
          "display": "Calcium [Mass/volume] in Serum or Plasma"
        }, {
          "reference": "DiagnosticReport/58f56d6e-4c24-497a-91c9-50c3cb74919e",
          "display": "Creatinine [Mass/volume] in Serum or Plasma"
        }, {
          "reference": "DiagnosticReport/c48fb1af-9280-4f7c-9c8d-fbd74dc63a4d",
          "display": "Anion gap 3 in Serum or Plasma"
        }, {
          "reference": "DiagnosticReport/fc1e9005-904e-4605-899b-cb9c5c1af35b",
          "display": "Potassium [Moles/volume] in Serum or Plasma"
        }, {
          "reference": "DiagnosticReport/b137e757-08f7-459d-9501-7b9f38c8aec2",
          "display": "Alkaline phosphatase [Enzymatic activity/volume] in Serum or Plasma"
        }, {
          "reference": "DiagnosticReport/02e82539-200a-45b7-913c-cc0e1410af60",
          "display": "Aspartate aminotransferase [Enzymatic activity/volume] in Serum or Plasma"
        }, {
          "reference": "DiagnosticReport/92a25992-5351-4961-9c6e-50114aa90c58",
          "display": "Deprecated Glucose [Mass/volume] in Serum or Plasma"
        }, {
          "reference": "DiagnosticReport/2d0a8091-d25c-406c-ae42-cfb251a29b2a",
          "display": "Collection duration of Urine"
        }, {
          "reference": "DiagnosticReport/caed804d-5ff4-4cb0-a08e-19e430639748",
          "display": "Sodium [Moles/volume] in Serum or Plasma"
        }, {
          "reference": "DiagnosticReport/da102ae7-b687-4857-9825-0560fbac5fcb",
          "display": "Protein [Mass/volume] in Serum or Plasma"
        } ]
      }, {
        "title": "Encounters",
        "code": {
          "coding": [ {
            "system": "http://loinc.org",
            "code": "46240-8",
            "display": "History of Encounters"
          } ]
        },
        "text": {
          "status": "additional",
          "div": "<div xmlns=\"http://www.w3.org/1999/xhtml\"><table border=\"1\" width=\"100%\"><thead><tr><th>Date</th><th>Description</th></tr></thead><tbody><tr><td>02/12/2014 13:03</td><td>No encounter diagnosis data is applicable</td></tr></tbody></table></div>"
        },
        "mode": "snapshot",
        "entry": [ {
          "reference": "Encounter/1dd6a214-c561-4866-932e-c3f0a6da8489",
          "display": "No encounter diagnosis data is applicable"
        } ]
      }, {
        "title": "Problems",
        "code": {
          "coding": [ {
            "system": "http://loinc.org",
            "code": "11450-4",
            "display": "Problem List"
          } ]
        },
        "text": {
          "status": "additional",
          "div": "<div xmlns=\"http://www.w3.org/1999/xhtml\"><table border=\"1\" width=\"100%\"><thead><tr><th>Date</th><th>Problems</th></tr></thead><tbody><tr><td>02/12/2014 13:03</td><td>No problem data is applicable</td></tr></tbody></table></div>"
        },
        "mode": "snapshot",
        "entry": [ {
          "reference": "Condition/beb09bf0-973c-4acf-b7f9-f879dae96dda"
        } ]
      }, {
        "title": "Plan of Care",
        "code": {
          "coding": [ {
            "system": "http://loinc.org",
            "code": "18776-5",
            "display": "Treatment plan"
          } ]
        },
        "text": {
          "status": "additional",
          "div": "<div xmlns=\"http://www.w3.org/1999/xhtml\"><table border=\"1\" width=\"100%\"><thead><tr><th>Date</th><th>Care Plan</th></tr></thead><tbody><tr><td>02/12/2014 13:03</td><td>No goal and instruction data is applicable</td></tr></tbody></table></div>"
        },
        "mode": "snapshot",
        "entry": [ {
          "reference": "CarePlan/14f504a6-c631-4db4-a154-32d11b512ddf"
        } ]
      }, {
        "title": "Vital Signs",
        "code": {
          "coding": [ {
            "system": "http://loinc.org",
            "code": "8716-3",
            "display": "Vital signs"
          } ]
        },
        "text": {
          "status": "additional",
          "div": "<div xmlns=\"http://www.w3.org/1999/xhtml\"><table border=\"1\" width=\"100%\"><thead><tr><th>Date</th><th>Vital Sign</th></tr></thead><tbody><tr><td>02/12/2014 13:03</td><td>No vital sign data is applicable</td></tr></tbody></table></div>"
        },
        "mode": "snapshot",
        "entry": [ {
          "reference": "Observation/a976bd4b-5b9e-4119-bc94-79da04598fe2",
          "display": "No vital sign data is applicable"
        } ]
      }, {
        "title": "Social History",
        "code": {
          "coding": [ {
            "system": "http://loinc.org",
            "code": "29762-2",
            "display": "Social History"
          } ]
        },
        "text": {
          "status": "additional",
          "div": "<div xmlns=\"http://www.w3.org/1999/xhtml\"><table border=\"1\" width=\"100%\"><thead><tr><th>Date</th><th>Type</th></tr></thead><tbody><tr><td>02/12/2014</td><td>No smoking status data is applicable</td></tr></tbody></table></div>"
        },
        "mode": "snapshot",
        "entry": [ {
          "reference": "Observation/2a4fe488-19fc-4854-80d7-08cd60a537b7"
        } ]
      }, {
        "title": "Allergies",
        "code": {
          "coding": [ {
            "system": "http://loinc.org",
            "code": "48765-2",
            "display": "Allergies, adverse reactions, alert "
          } ]
        },
        "text": {
          "status": "additional",
          "div": "<div xmlns=\"http://www.w3.org/1999/xhtml\"><table border=\"1\" width=\"100%\"><thead><tr><th>Date</th><th>Allergies</th><th>Status</th></tr></thead><tbody><tr><td>02/12/2014 13:03</td><td>No allergy data is applicable</td><td>active</td></tr></tbody></table></div>"
        },
        "mode": "snapshot",
        "entry": [ {
          "reference": "AllergyIntolerance/77ced457-6946-4eef-aaa5-a4663218052c"
        } ]
      }, {
        "title": "Functional Status",
        "code": {
          "coding": [ {
            "system": "http://loinc.org",
            "code": "47420-5",
            "display": "Functional status assessment note"
          } ]
        },
        "text": {
          "status": "additional",
          "div": "<div xmlns=\"http://www.w3.org/1999/xhtml\"><table border=\"1\" width=\"100%\"><thead><tr><th>Date</th><th>Assessment</th></tr></thead><tbody><tr><td>02/12/2014</td><td>No functional assessment data is applicable</td></tr><tr><td>02/12/2014</td><td>No cognitive assessment data is applicable</td></tr></tbody></table></div>"
        },
        "mode": "snapshot"
      }, {
        "title": "Medications",
        "code": {
          "coding": [ {
            "system": "http://loinc.org",
            "code": "10160-0",
            "display": "History of medication use"
          } ]
        },
        "text": {
          "status": "additional",
          "div": "<div xmlns=\"http://www.w3.org/1999/xhtml\"><table border=\"1\" width=\"100%\"><thead><tr><th>Date</th><th>Medications</th></tr></thead><tbody><tr><td>02/12/2014 13:03</td><td>No medication data is applicable</td></tr></tbody></table></div>"
        },
        "mode": "snapshot",
        "entry": [ {
          "reference": "MedicationStatement/905993af-ac54-426c-a985-4de98cd54dc2",
          "display": "No medication data is applicable"
        } ]
      }, {
        "title": "Procedures",
        "code": {
          "coding": [ {
            "system": "http://loinc.org",
            "code": "47519-4",
            "display": "History of procedures"
          } ]
        },
        "text": {
          "status": "additional",
          "div": "<div xmlns=\"http://www.w3.org/1999/xhtml\"><table border=\"1\" width=\"100%\"><thead><tr><th>Date</th><th>Procedures</th></tr></thead><tbody><tr><td>02/12/2014 13:03</td><td>No procedure data is applicable</td></tr></tbody></table></div>"
        },
        "mode": "snapshot",
        "entry": [ {
          "reference": "Procedure/647b5272-dcbf-40f6-87d1-2fcad7e832dd",
          "display": "No procedure data is applicable"
        } ]
      }, {
        "title": "Immunizations",
        "code": {
          "coding": [ {
            "system": "http://loinc.org",
            "code": "11369-6",
            "display": "History of immunizations"
          } ]
        },
        "text": {
          "status": "additional",
          "div": "<div xmlns=\"http://www.w3.org/1999/xhtml\"><table border=\"1\" width=\"100%\"><thead><tr><th>Date</th><th>Immunizations</th></tr></thead><tbody><tr><td>02/12/2014 13:03</td><td>No immunization data is applicable</td></tr></tbody></table></div>"
        },
        "mode": "snapshot",
        "entry": [ {
          "reference": "Immunization/d8fd1224-da8f-450b-afa5-e4289eae5d28",
          "display": "No immunization data is applicable"
        } ]
      } ]
    }
  }, {
    "resource": {
      "resourceType": "Patient",
      "id": "eb2ba2c5-7aa0-4a54-b9c1-7683a740acd0",
      "extension": [ {
        "url": "http://hl7.org/fhir/us/core/StructureDefinition/us-core-race",
        "extension": [ {
          "url": "text",
          "valueString": "Black or African American"
        }, {
          "url": "ombCategory",
          "valueCoding": {
            "system": "urn:oid:2.16.840.1.113883.6.238",
            "code": "2054-5",
            "display": "Black or African American"
          }
        } ]
      }, {
        "url": "http://hl7.org/fhir/us/core/StructureDefinition/us-core-ethnicity",
        "extension": [ {
          "url": "text",
          "valueString": "Not Hispanic or Latino"
        }, {
          "url": "ombCategory",
          "valueCoding": {
            "system": "urn:oid:2.16.840.1.113883.6.238",
            "code": "2186-5",
            "display": "Not Hispanic or Latino"
          }
        } ]
      } ],
      "identifier": [ {
        "use": "official",
        "system": "urn:oid:1.3.6.1.4.1.16517.1",
        "value": "107624120"
      }, {
        "use": "official",
        "system": "urn:oid:1.3.6.1.4.1.16517.2.2",
        "value": "50068667"
      } ],
      "name": [ {
        "family": "BWHCKDRISKTEST",
        "given": [ "FOURTEST" ]
      } ],
      "telecom": [ {
        "system": "phone",
        "value": "(508)444-1414",
        "use": "home"
      } ],
      "gender": "female",
      "birthDate": "1948-02-02",
      "address": [ {
        "line": [ "456 MAIN STREET" ],
        "city": "BOSTON",
        "state": "MA",
        "postalCode": "02109",
        "country": "US"
      } ]
    }
  }, {
    "resource": {
      "resourceType": "Practitioner",
      "id": "0784804a-085c-43db-9884-4ff5aec1acc6"
    }
  }, {
    "resource": {
      "resourceType": "Organization",
      "id": "9caedb4d-a5b0-4b93-a412-856f4820d492",
      "identifier": [ {
        "use": "official",
        "system": "urn:oid:1.3.6.1.4.1.16517",
        "value": "PHS"
      } ],
      "name": "Partners HealthCare",
      "telecom": [ {
        "system": "phone",
        "value": "(617)278-1000",
        "use": "work"
      } ],
      "address": [ {
        "line": [ "Prudential Tower", "800 Boylston Street, Suite 1150" ],
        "city": "Boston",
        "state": "MA",
        "postalCode": "02199-8001"
      } ]
    }
  }, {
    "resource": {
      "resourceType": "DiagnosticReport",
      "id": "9b83fa15-8fab-4062-9d1a-afd8c54c1370",
      "identifier": [ {
        "use": "official",
        "system": "urn:oid:1.3.6.1.4.1.16517",
        "value": "100025030675-0B029380-9410-11E3-81F5-1CC4B7D83400"
      } ],
      "status": "final",
      "category": [ {
        "coding": [ {
          "system": "http://terminology.hl7.org/CodeSystem/v2-0074",
          "code": "LAB",
          "display": "Laboratory"
        } ]
      } ],
      "code": {
        "coding": [ {
          "system": "http://loinc.org",
          "code": "2028-9",
          "display": "Carbon dioxide, total [Moles/volume] in Serum or Plasma"
        } ]
      },
      "subject": {
        "reference": "Patient/eb2ba2c5-7aa0-4a54-b9c1-7683a740acd0",
        "display": "FOURTEST BWHCKDRISKTEST"
      },
      "result": [ {
        "reference": "Observation/bcda370a-3b7c-402c-94f2-2e0b2dec3d25",
        "display": "TOTAL CO2"
      } ]
    }
  }, {
    "resource": {
      "resourceType": "Observation",
      "id": "bcda370a-3b7c-402c-94f2-2e0b2dec3d25",
      "identifier": [ {
        "use": "official",
        "system": "urn:oid:1.3.6.1.4.1.16517",
        "value": "100025030675-0B029380-9410-11E3-81F5-1CC4B7D83400"
      } ],
      "status": "final",
      "category": [ {
        "coding": [ {
          "system": "http://terminology.hl7.org/CodeSystem/observation-category",
          "code": "laboratory"
        } ]
      } ],
      "code": {
        "coding": [ {
          "system": "http://loinc.org",
          "code": "2028-9",
          "display": "Carbon dioxide, total [Moles/volume] in Serum or Plasma"
        } ],
        "text": "TOTAL CO2"
      },
      "subject": {
        "reference": "Patient/eb2ba2c5-7aa0-4a54-b9c1-7683a740acd0",
        "display": "FOURTEST BWHCKDRISKTEST"
      },
      "effectivePeriod": {
        "start": "2014-02-10T10:00:00+01:00"
      },
      "valueQuantity": {
        "value": 23,
        "unit": "mmol/L",
        "system": "http://unitsofmeasure.org",
        "code": "mmol/L"
      },
      "referenceRange": [ {
        "text": "22-31 mmol/L"
      } ]
    }
  }, {
    "resource": {
      "resourceType": "DiagnosticReport",
      "id": "449fb447-25ef-48aa-971d-e5d7d23e6c67",
      "identifier": [ {
        "use": "official",
        "system": "urn:oid:1.3.6.1.4.1.16517",
        "value": "100025030653-0B058522-9410-11E3-81F5-1CC4B7D83400"
      } ],
      "status": "final",
      "category": [ {
        "coding": [ {
          "system": "http://terminology.hl7.org/CodeSystem/v2-0074",
          "code": "LAB",
          "display": "Laboratory"
        } ]
      } ],
      "code": {
        "coding": [ {
          "system": "http://loinc.org",
          "code": "14959-1",
          "display": "Microalbumin/Creatinine [Mass Ratio] in Urine"
        } ]
      },
      "subject": {
        "reference": "Patient/eb2ba2c5-7aa0-4a54-b9c1-7683a740acd0",
        "display": "FOURTEST BWHCKDRISKTEST"
      },
      "result": [ {
        "reference": "Observation/2b663732-1ac0-437a-94d7-609bd433f910",
        "display": "Malb/Cr"
      } ]
    }
  }, {
    "resource": {
      "resourceType": "Observation",
      "id": "2b663732-1ac0-437a-94d7-609bd433f910",
      "identifier": [ {
        "use": "official",
        "system": "urn:oid:1.3.6.1.4.1.16517",
        "value": "100025030653-0B058522-9410-11E3-81F5-1CC4B7D83400"
      } ],
      "status": "final",
      "category": [ {
        "coding": [ {
          "system": "http://terminology.hl7.org/CodeSystem/observation-category",
          "code": "laboratory"
        } ]
      } ],
      "code": {
        "coding": [ {
          "system": "http://loinc.org",
          "code": "14959-1",
          "display": "Microalbumin/Creatinine [Mass Ratio] in Urine"
        } ],
        "text": "Malb/Cr"
      },
      "subject": {
        "reference": "Patient/eb2ba2c5-7aa0-4a54-b9c1-7683a740acd0",
        "display": "FOURTEST BWHCKDRISKTEST"
      },
      "effectivePeriod": {
        "start": "2014-02-10T09:30:00+01:00"
      },
      "valueQuantity": {
        "value": 165,
        "unit": "mgAlb/gCre",
        "system": "http://unitsofmeasure.org",
        "code": "mgAlb/gCre"
      },
      "referenceRange": [ {
        "text": "0.0-30 mgAlb/gCre"
      } ]
    }
  }, {
    "resource": {
      "resourceType": "DiagnosticReport",
      "id": "dbcd8b7a-7bd0-4761-9e9d-46651040605a",
      "identifier": [ {
        "use": "official",
        "system": "urn:oid:1.3.6.1.4.1.16517",
        "value": "100025030695-0B038EE8-9410-11E3-81F5-1CC4B7D83400"
      } ],
      "status": "final",
      "category": [ {
        "coding": [ {
          "system": "http://terminology.hl7.org/CodeSystem/v2-0074",
          "code": "LAB",
          "display": "Laboratory"
        } ]
      } ],
      "code": {
        "coding": [ {
          "system": "http://loinc.org",
          "code": "1751-7",
          "display": "Albumin [Mass/volume] in Serum or Plasma"
        } ]
      },
      "subject": {
        "reference": "Patient/eb2ba2c5-7aa0-4a54-b9c1-7683a740acd0",
        "display": "FOURTEST BWHCKDRISKTEST"
      },
      "result": [ {
        "reference": "Observation/466e8e20-b3da-4595-a4ae-9202700063dd",
        "display": "ALBUMIN"
      } ]
    }
  }, {
    "resource": {
      "resourceType": "Observation",
      "id": "466e8e20-b3da-4595-a4ae-9202700063dd",
      "identifier": [ {
        "use": "official",
        "system": "urn:oid:1.3.6.1.4.1.16517",
        "value": "100025030695-0B038EE8-9410-11E3-81F5-1CC4B7D83400"
      } ],
      "status": "final",
      "category": [ {
        "coding": [ {
          "system": "http://terminology.hl7.org/CodeSystem/observation-category",
          "code": "laboratory"
        } ]
      } ],
      "code": {
        "coding": [ {
          "system": "http://loinc.org",
          "code": "1751-7",
          "display": "Albumin [Mass/volume] in Serum or Plasma"
        } ],
        "text": "ALBUMIN"
      },
      "subject": {
        "reference": "Patient/eb2ba2c5-7aa0-4a54-b9c1-7683a740acd0",
        "display": "FOURTEST BWHCKDRISKTEST"
      },
      "effectivePeriod": {
        "start": "2014-02-11T13:49:00+01:00"
      },
      "valueQuantity": {
        "value": 4.4,
        "unit": "g/dL",
        "system": "http://unitsofmeasure.org",
        "code": "g/dL"
      },
      "referenceRange": [ {
        "text": "3.5-5.2 g/dL"
      } ]
    }
  }, {
    "resource": {
      "resourceType": "DiagnosticReport",
      "id": "a62935b0-d2e2-4ee3-abaa-ec4d7122c7b5",
      "identifier": [ {
        "use": "official",
        "system": "urn:oid:1.3.6.1.4.1.16517",
        "value": "100025030690-0B02B5A4-9410-11E3-81F5-1CC4B7D83400"
      } ],
      "status": "final",
      "category": [ {
        "coding": [ {
          "system": "http://terminology.hl7.org/CodeSystem/v2-0074",
          "code": "LAB",
          "display": "Laboratory"
        } ]
      } ],
      "code": {
        "coding": [ {
          "system": "http://loinc.org",
          "code": "1742-6",
          "display": "Alanine aminotransferase [Enzymatic activity/volume] in Serum or Plasma"
        } ]
      },
      "subject": {
        "reference": "Patient/eb2ba2c5-7aa0-4a54-b9c1-7683a740acd0",
        "display": "FOURTEST BWHCKDRISKTEST"
      },
      "result": [ {
        "reference": "Observation/3d6b8d51-a319-45fd-8389-d79618896865",
        "display": "ALT/GPT"
      } ]
    }
  }, {
    "resource": {
      "resourceType": "Observation",
      "id": "3d6b8d51-a319-45fd-8389-d79618896865",
      "identifier": [ {
        "use": "official",
        "system": "urn:oid:1.3.6.1.4.1.16517",
        "value": "100025030690-0B02B5A4-9410-11E3-81F5-1CC4B7D83400"
      } ],
      "status": "final",
      "category": [ {
        "coding": [ {
          "system": "http://terminology.hl7.org/CodeSystem/observation-category",
          "code": "laboratory"
        } ]
      } ],
      "code": {
        "coding": [ {
          "system": "http://loinc.org",
          "code": "1742-6",
          "display": "Alanine aminotransferase [Enzymatic activity/volume] in Serum or Plasma"
        } ],
        "text": "ALT/GPT"
      },
      "subject": {
        "reference": "Patient/eb2ba2c5-7aa0-4a54-b9c1-7683a740acd0",
        "display": "FOURTEST BWHCKDRISKTEST"
      },
      "effectivePeriod": {
        "start": "2014-02-11T13:49:00+01:00"
      },
      "valueQuantity": {
        "value": 29,
        "unit": "U/L",
        "system": "http://unitsofmeasure.org",
        "code": "U/L"
      },
      "referenceRange": [ {
        "text": "10-50 U/L"
      } ]
    }
  }, {
    "resource": {
      "resourceType": "DiagnosticReport",
      "id": "fa3670f0-7316-4617-8959-54f887be0c10",
      "identifier": [ {
        "use": "official",
        "system": "urn:oid:1.3.6.1.4.1.16517",
        "value": "100025030693-0B033BBE-9410-11E3-81F5-1CC4B7D83400"
      } ],
      "status": "final",
      "category": [ {
        "coding": [ {
          "system": "http://terminology.hl7.org/CodeSystem/v2-0074",
          "code": "LAB",
          "display": "Laboratory"
        } ]
      } ],
      "code": {
        "coding": [ {
          "system": "http://loinc.org",
          "code": "1975-2",
          "display": "Bilirubin.total [Mass/volume] in Serum or Plasma"
        } ]
      },
      "subject": {
        "reference": "Patient/eb2ba2c5-7aa0-4a54-b9c1-7683a740acd0",
        "display": "FOURTEST BWHCKDRISKTEST"
      },
      "result": [ {
        "reference": "Observation/8b4d7a45-2818-4c24-b245-5b309c43fb1e",
        "display": "TOT BILI"
      } ]
    }
  }, {
    "resource": {
      "resourceType": "Observation",
      "id": "8b4d7a45-2818-4c24-b245-5b309c43fb1e",
      "identifier": [ {
        "use": "official",
        "system": "urn:oid:1.3.6.1.4.1.16517",
        "value": "100025030693-0B033BBE-9410-11E3-81F5-1CC4B7D83400"
      } ],
      "status": "final",
      "category": [ {
        "coding": [ {
          "system": "http://terminology.hl7.org/CodeSystem/observation-category",
          "code": "laboratory"
        } ]
      } ],
      "code": {
        "coding": [ {
          "system": "http://loinc.org",
          "code": "1975-2",
          "display": "Bilirubin.total [Mass/volume] in Serum or Plasma"
        } ],
        "text": "TOT BILI"
      },
      "subject": {
        "reference": "Patient/eb2ba2c5-7aa0-4a54-b9c1-7683a740acd0",
        "display": "FOURTEST BWHCKDRISKTEST"
      },
      "effectivePeriod": {
        "start": "2014-02-11T13:49:00+01:00"
      },
      "valueQuantity": {
        "value": 0.5,
        "unit": "mg/dL",
        "system": "http://unitsofmeasure.org",
        "code": "mg/dL"
      },
      "referenceRange": [ {
        "text": "0.0-1.0 mg/dL"
      } ]
    }
  }, {
    "resource": {
      "resourceType": "DiagnosticReport",
      "id": "9fb5bf4c-8727-4118-b6cf-8be3cda32eab",
      "identifier": [ {
        "use": "official",
        "system": "urn:oid:1.3.6.1.4.1.16517",
        "value": "100025030696-0B03DA7E-9410-11E3-81F5-1CC4B7D83400"
      } ],
      "status": "final",
      "category": [ {
        "coding": [ {
          "system": "http://terminology.hl7.org/CodeSystem/v2-0074",
          "code": "LAB",
          "display": "Laboratory"
        } ]
      } ],
      "code": {
        "coding": [ {
          "system": "http://loinc.org",
          "code": "2336-6",
          "display": "Globulin [Mass/volume] in Serum"
        } ]
      },
      "subject": {
        "reference": "Patient/eb2ba2c5-7aa0-4a54-b9c1-7683a740acd0",
        "display": "FOURTEST BWHCKDRISKTEST"
      },
      "result": [ {
        "reference": "Observation/d2f30ac1-bdb1-4377-a189-a25c90975e3e",
        "display": "GLOBULIN"
      } ]
    }
  }, {
    "resource": {
      "resourceType": "Observation",
      "id": "d2f30ac1-bdb1-4377-a189-a25c90975e3e",
      "identifier": [ {
        "use": "official",
        "system": "urn:oid:1.3.6.1.4.1.16517",
        "value": "100025030696-0B03DA7E-9410-11E3-81F5-1CC4B7D83400"
      } ],
      "status": "final",
      "category": [ {
        "coding": [ {
          "system": "http://terminology.hl7.org/CodeSystem/observation-category",
          "code": "laboratory"
        } ]
      } ],
      "code": {
        "coding": [ {
          "system": "http://loinc.org",
          "code": "2336-6",
          "display": "Globulin [Mass/volume] in Serum"
        } ],
        "text": "GLOBULIN"
      },
      "subject": {
        "reference": "Patient/eb2ba2c5-7aa0-4a54-b9c1-7683a740acd0",
        "display": "FOURTEST BWHCKDRISKTEST"
      },
      "effectivePeriod": {
        "start": "2014-02-11T13:49:00+01:00"
      },
      "valueQuantity": {
        "value": 3.9,
        "unit": "g/dL",
        "system": "http://unitsofmeasure.org",
        "code": "g/dL"
      },
      "referenceRange": [ {
        "text": "2.0-4.0 g/dL"
      } ]
    }
  }, {
    "resource": {
      "resourceType": "DiagnosticReport",
      "id": "3a15a294-a8d6-4370-89ad-fb1b209e0e8c",
      "identifier": [ {
        "use": "official",
        "system": "urn:oid:1.3.6.1.4.1.16517",
        "value": "100025030674-0B03B3AA-9410-11E3-81F5-1CC4B7D83400"
      } ],
      "status": "final",
      "category": [ {
        "coding": [ {
          "system": "http://terminology.hl7.org/CodeSystem/v2-0074",
          "code": "LAB",
          "display": "Laboratory"
        } ]
      } ],
      "code": {
        "coding": [ {
          "system": "http://loinc.org",
          "code": "1751-7",
          "display": "Albumin [Mass/volume] in Serum or Plasma"
        } ]
      },
      "subject": {
        "reference": "Patient/eb2ba2c5-7aa0-4a54-b9c1-7683a740acd0",
        "display": "FOURTEST BWHCKDRISKTEST"
      },
      "result": [ {
        "reference": "Observation/4e0d9b9a-3315-4b06-a537-5561948a99c5",
        "display": "ALBUMIN"
      } ]
    }
  }, {
    "resource": {
      "resourceType": "Observation",
      "id": "4e0d9b9a-3315-4b06-a537-5561948a99c5",
      "identifier": [ {
        "use": "official",
        "system": "urn:oid:1.3.6.1.4.1.16517",
        "value": "100025030674-0B03B3AA-9410-11E3-81F5-1CC4B7D83400"
      } ],
      "status": "final",
      "category": [ {
        "coding": [ {
          "system": "http://terminology.hl7.org/CodeSystem/observation-category",
          "code": "laboratory"
        } ]
      } ],
      "code": {
        "coding": [ {
          "system": "http://loinc.org",
          "code": "1751-7",
          "display": "Albumin [Mass/volume] in Serum or Plasma"
        } ],
        "text": "ALBUMIN"
      },
      "subject": {
        "reference": "Patient/eb2ba2c5-7aa0-4a54-b9c1-7683a740acd0",
        "display": "FOURTEST BWHCKDRISKTEST"
      },
      "effectivePeriod": {
        "start": "2014-02-10T10:00:00+01:00"
      },
      "valueQuantity": {
        "value": 4.4,
        "unit": "g/dL",
        "system": "http://unitsofmeasure.org",
        "code": "g/dL"
      },
      "referenceRange": [ {
        "text": "3.5-5.2 g/dL"
      } ]
    }
  }, {
    "resource": {
      "resourceType": "DiagnosticReport",
      "id": "a1786900-1e29-4993-9fd3-2638c847bc35",
      "identifier": [ {
        "use": "official",
        "system": "urn:oid:1.3.6.1.4.1.16517",
        "value": "100025030683-0B040238-9410-11E3-81F5-1CC4B7D83400"
      } ],
      "status": "final",
      "category": [ {
        "coding": [ {
          "system": "http://terminology.hl7.org/CodeSystem/v2-0074",
          "code": "LAB",
          "display": "Laboratory"
        } ]
      } ],
      "code": {
        "coding": [ {
          "system": "http://loinc.org",
          "code": "3094-0",
          "display": "Urea nitrogen [Mass/volume] in Serum or Plasma"
        } ]
      },
      "subject": {
        "reference": "Patient/eb2ba2c5-7aa0-4a54-b9c1-7683a740acd0",
        "display": "FOURTEST BWHCKDRISKTEST"
      },
      "result": [ {
        "reference": "Observation/7ef9eff2-84fd-466a-a9d1-f3e0373acf63",
        "display": "UREA N"
      } ]
    }
  }, {
    "resource": {
      "resourceType": "Observation",
      "id": "7ef9eff2-84fd-466a-a9d1-f3e0373acf63",
      "identifier": [ {
        "use": "official",
        "system": "urn:oid:1.3.6.1.4.1.16517",
        "value": "100025030683-0B040238-9410-11E3-81F5-1CC4B7D83400"
      } ],
      "status": "final",
      "category": [ {
        "coding": [ {
          "system": "http://terminology.hl7.org/CodeSystem/observation-category",
          "code": "laboratory"
        } ]
      } ],
      "code": {
        "coding": [ {
          "system": "http://loinc.org",
          "code": "3094-0",
          "display": "Urea nitrogen [Mass/volume] in Serum or Plasma"
        } ],
        "text": "UREA N"
      },
      "subject": {
        "reference": "Patient/eb2ba2c5-7aa0-4a54-b9c1-7683a740acd0",
        "display": "FOURTEST BWHCKDRISKTEST"
      },
      "effectivePeriod": {
        "start": "2014-02-11T13:49:00+01:00"
      },
      "valueQuantity": {
        "value": 8,
        "unit": "mg/dL",
        "system": "http://unitsofmeasure.org",
        "code": "mg/dL"
      },
      "referenceRange": [ {
        "text": "6-23 mg/dL"
      } ]
    }
  }, {
    "resource": {
      "resourceType": "DiagnosticReport",
      "id": "1468e425-ecf3-4af9-a681-41b13e226228",
      "identifier": [ {
        "use": "official",
        "system": "urn:oid:1.3.6.1.4.1.16517",
        "value": "100025030688-0B026FA4-9410-11E3-81F5-1CC4B7D83400"
      } ],
      "status": "final",
      "category": [ {
        "coding": [ {
          "system": "http://terminology.hl7.org/CodeSystem/v2-0074",
          "code": "LAB",
          "display": "Laboratory"
        } ]
      } ],
      "code": {
        "coding": [ {
          "system": "http://loinc.org",
          "code": "2028-9",
          "display": "Carbon dioxide, total [Moles/volume] in Serum or Plasma"
        } ]
      },
      "subject": {
        "reference": "Patient/eb2ba2c5-7aa0-4a54-b9c1-7683a740acd0",
        "display": "FOURTEST BWHCKDRISKTEST"
      },
      "result": [ {
        "reference": "Observation/28af7812-41c3-40cb-a465-d0b861753b75",
        "display": "TOTAL CO2"
      } ]
    }
  }, {
    "resource": {
      "resourceType": "Observation",
      "id": "28af7812-41c3-40cb-a465-d0b861753b75",
      "identifier": [ {
        "use": "official",
        "system": "urn:oid:1.3.6.1.4.1.16517",
        "value": "100025030688-0B026FA4-9410-11E3-81F5-1CC4B7D83400"
      } ],
      "status": "final",
      "category": [ {
        "coding": [ {
          "system": "http://terminology.hl7.org/CodeSystem/observation-category",
          "code": "laboratory"
        } ]
      } ],
      "code": {
        "coding": [ {
          "system": "http://loinc.org",
          "code": "2028-9",
          "display": "Carbon dioxide, total [Moles/volume] in Serum or Plasma"
        } ],
        "text": "TOTAL CO2"
      },
      "subject": {
        "reference": "Patient/eb2ba2c5-7aa0-4a54-b9c1-7683a740acd0",
        "display": "FOURTEST BWHCKDRISKTEST"
      },
      "effectivePeriod": {
        "start": "2014-02-11T13:49:00+01:00"
      },
      "valueQuantity": {
        "value": 23,
        "unit": "mmol/L",
        "system": "http://unitsofmeasure.org",
        "code": "mmol/L"
      },
      "referenceRange": [ {
        "text": "22-31 mmol/L"
      } ]
    }
  }, {
    "resource": {
      "resourceType": "DiagnosticReport",
      "id": "11159774-22ce-4e82-b39c-addd173480fa",
      "identifier": [ {
        "use": "official",
        "system": "urn:oid:1.3.6.1.4.1.16517",
        "value": "100025030670-0B04A7A6-9410-11E3-81F5-1CC4B7D83400"
      } ],
      "status": "final",
      "category": [ {
        "coding": [ {
          "system": "http://terminology.hl7.org/CodeSystem/v2-0074",
          "code": "LAB",
          "display": "Laboratory"
        } ]
      } ],
      "code": {
        "coding": [ {
          "system": "http://loinc.org",
          "code": "2160-0",
          "display": "Creatinine [Mass/volume] in Serum or Plasma"
        } ]
      },
      "subject": {
        "reference": "Patient/eb2ba2c5-7aa0-4a54-b9c1-7683a740acd0",
        "display": "FOURTEST BWHCKDRISKTEST"
      },
      "result": [ {
        "reference": "Observation/0e3355a3-f7f1-44a5-abfd-dc5ee84416d0",
        "display": "CREATININE"
      } ]
    }
  }, {
    "resource": {
      "resourceType": "Observation",
      "id": "0e3355a3-f7f1-44a5-abfd-dc5ee84416d0",
      "identifier": [ {
        "use": "official",
        "system": "urn:oid:1.3.6.1.4.1.16517",
        "value": "100025030670-0B04A7A6-9410-11E3-81F5-1CC4B7D83400"
      } ],
      "status": "final",
      "category": [ {
        "coding": [ {
          "system": "http://terminology.hl7.org/CodeSystem/observation-category",
          "code": "laboratory"
        } ]
      } ],
      "code": {
        "coding": [ {
          "system": "http://loinc.org",
          "code": "2160-0",
          "display": "Creatinine [Mass/volume] in Serum or Plasma"
        } ],
        "text": "CREATININE"
      },
      "subject": {
        "reference": "Patient/eb2ba2c5-7aa0-4a54-b9c1-7683a740acd0",
        "display": "FOURTEST BWHCKDRISKTEST"
      },
      "effectivePeriod": {
        "start": "2014-02-10T10:00:00+01:00"
      },
      "valueQuantity": {
        "value": 1.9,
        "unit": "mg/dL",
        "system": "http://unitsofmeasure.org",
        "code": "mg/dL"
      },
      "referenceRange": [ {
        "text": "0.50-1.20 mg/dL"
      } ]
    }
  }, {
    "resource": {
      "resourceType": "DiagnosticReport",
      "id": "8c3925d4-3597-450d-ae55-54e862ea1cd0",
      "identifier": [ {
        "use": "official",
        "system": "urn:oid:1.3.6.1.4.1.16517",
        "value": "100025030672-0B0459F4-9410-11E3-81F5-1CC4B7D83400"
      } ],
      "status": "final",
      "category": [ {
        "coding": [ {
          "system": "http://terminology.hl7.org/CodeSystem/v2-0074",
          "code": "LAB",
          "display": "Laboratory"
        } ]
      } ],
      "code": {
        "coding": [ {
          "system": "http://loinc.org",
          "code": "17861-6",
          "display": "Calcium [Mass/volume] in Serum or Plasma"
        } ]
      },
      "subject": {
        "reference": "Patient/eb2ba2c5-7aa0-4a54-b9c1-7683a740acd0",
        "display": "FOURTEST BWHCKDRISKTEST"
      },
      "result": [ {
        "reference": "Observation/8797883f-62ff-44ac-96d6-d5f43f32fdae",
        "display": "CALCIUM"
      } ]
    }
  }, {
    "resource": {
      "resourceType": "Observation",
      "id": "8797883f-62ff-44ac-96d6-d5f43f32fdae",
      "identifier": [ {
        "use": "official",
        "system": "urn:oid:1.3.6.1.4.1.16517",
        "value": "100025030672-0B0459F4-9410-11E3-81F5-1CC4B7D83400"
      } ],
      "status": "final",
      "category": [ {
        "coding": [ {
          "system": "http://terminology.hl7.org/CodeSystem/observation-category",
          "code": "laboratory"
        } ]
      } ],
      "code": {
        "coding": [ {
          "system": "http://loinc.org",
          "code": "17861-6",
          "display": "Calcium [Mass/volume] in Serum or Plasma"
        } ],
        "text": "CALCIUM"
      },
      "subject": {
        "reference": "Patient/eb2ba2c5-7aa0-4a54-b9c1-7683a740acd0",
        "display": "FOURTEST BWHCKDRISKTEST"
      },
      "effectivePeriod": {
        "start": "2014-02-10T10:00:00+01:00"
      },
      "valueQuantity": {
        "value": 9.9,
        "unit": "mg/dL",
        "system": "http://unitsofmeasure.org",
        "code": "mg/dL"
      },
      "referenceRange": [ {
        "text": "8.8-10.7 mg/dL"
      } ]
    }
  }, {
    "resource": {
      "resourceType": "DiagnosticReport",
      "id": "9a8b4a6e-2f50-4543-af03-9ac14d2cbbfd",
      "identifier": [ {
        "use": "official",
        "system": "urn:oid:1.3.6.1.4.1.16517",
        "value": "100025030673-0B050548-9410-11E3-81F5-1CC4B7D83400"
      } ],
      "status": "final",
      "category": [ {
        "coding": [ {
          "system": "http://terminology.hl7.org/CodeSystem/v2-0074",
          "code": "LAB",
          "display": "Laboratory"
        } ]
      } ],
      "code": {
        "coding": [ {
          "system": "http://loinc.org",
          "code": "2777-1",
          "display": "Phosphate [Mass/volume] in Serum or Plasma"
        } ]
      },
      "subject": {
        "reference": "Patient/eb2ba2c5-7aa0-4a54-b9c1-7683a740acd0",
        "display": "FOURTEST BWHCKDRISKTEST"
      },
      "result": [ {
        "reference": "Observation/732feea5-e6e6-4836-b287-f677713bede1",
        "display": "PHOSPHATE"
      } ]
    }
  }, {
    "resource": {
      "resourceType": "Observation",
      "id": "732feea5-e6e6-4836-b287-f677713bede1",
      "identifier": [ {
        "use": "official",
        "system": "urn:oid:1.3.6.1.4.1.16517",
        "value": "100025030673-0B050548-9410-11E3-81F5-1CC4B7D83400"
      } ],
      "status": "final",
      "category": [ {
        "coding": [ {
          "system": "http://terminology.hl7.org/CodeSystem/observation-category",
          "code": "laboratory"
        } ]
      } ],
      "code": {
        "coding": [ {
          "system": "http://loinc.org",
          "code": "2777-1",
          "display": "Phosphate [Mass/volume] in Serum or Plasma"
        } ],
        "text": "PHOSPHATE"
      },
      "subject": {
        "reference": "Patient/eb2ba2c5-7aa0-4a54-b9c1-7683a740acd0",
        "display": "FOURTEST BWHCKDRISKTEST"
      },
      "effectivePeriod": {
        "start": "2014-02-10T10:00:00+01:00"
      },
      "valueQuantity": {
        "value": 4.9,
        "unit": "mg/dL",
        "system": "http://unitsofmeasure.org",
        "code": "mg/dL"
      },
      "referenceRange": [ {
        "text": "2.4-4.3 mg/dL"
      } ]
    }
  }, {
    "resource": {
      "resourceType": "DiagnosticReport",
      "id": "33f3eb34-5d4d-41a7-8b2b-2831ca4098ef",
      "identifier": [ {
        "use": "official",
        "system": "urn:oid:1.3.6.1.4.1.16517",
        "value": "100025030671-0B069FFC-9410-11E3-81F5-1CC4B7D83400"
      } ],
      "status": "final",
      "category": [ {
        "coding": [ {
          "system": "http://terminology.hl7.org/CodeSystem/v2-0074",
          "code": "LAB",
          "display": "Laboratory"
        } ]
      } ],
      "code": {
        "coding": [ {
          "system": "http://loinc.org",
          "code": "33914-3",
          "display": "Glomerular filtration rate/1.73 sq M.predicted by Creatinine-based formula (MDRD)"
        } ]
      },
      "subject": {
        "reference": "Patient/eb2ba2c5-7aa0-4a54-b9c1-7683a740acd0",
        "display": "FOURTEST BWHCKDRISKTEST"
      },
      "result": [ {
        "reference": "Observation/103389a0-18c5-4198-9b70-41887a328997",
        "display": "eGFR"
      } ]
    }
  }, {
    "resource": {
      "resourceType": "Observation",
      "id": "103389a0-18c5-4198-9b70-41887a328997",
      "identifier": [ {
        "use": "official",
        "system": "urn:oid:1.3.6.1.4.1.16517",
        "value": "100025030671-0B069FFC-9410-11E3-81F5-1CC4B7D83400"
      } ],
      "status": "final",
      "category": [ {
        "coding": [ {
          "system": "http://terminology.hl7.org/CodeSystem/observation-category",
          "code": "laboratory"
        } ]
      } ],
      "code": {
        "coding": [ {
          "system": "http://loinc.org",
          "code": "33914-3",
          "display": "Glomerular filtration rate/1.73 sq M.predicted by Creatinine-based formula (MDRD)"
        } ],
        "text": "eGFR"
      },
      "subject": {
        "reference": "Patient/eb2ba2c5-7aa0-4a54-b9c1-7683a740acd0",
        "display": "FOURTEST BWHCKDRISKTEST"
      },
      "effectivePeriod": {
        "start": "2014-02-10T10:00:00+01:00"
      },
      "valueQuantity": {
        "value": 31,
        "unit": "1",
        "system": "http://unitsofmeasure.org",
        "code": "1"
      }
    }
  }, {
    "resource": {
      "resourceType": "DiagnosticReport",
      "id": "beb4dbda-daab-44e0-acf6-83c63e1f50a1",
      "identifier": [ {
        "use": "official",
        "system": "urn:oid:1.3.6.1.4.1.16517",
        "value": "100025030654-0B055D90-9410-11E3-81F5-1CC4B7D83400"
      } ],
      "status": "final",
      "category": [ {
        "coding": [ {
          "system": "http://terminology.hl7.org/CodeSystem/v2-0074",
          "code": "LAB",
          "display": "Laboratory"
        } ]
      } ],
      "code": {
        "coding": [ {
          "system": "http://loinc.org",
          "code": "14957-5",
          "display": "Microalbumin [Mass/volume] in Urine"
        } ]
      },
      "subject": {
        "reference": "Patient/eb2ba2c5-7aa0-4a54-b9c1-7683a740acd0",
        "display": "FOURTEST BWHCKDRISKTEST"
      },
      "result": [ {
        "reference": "Observation/0e3d3f24-f0f2-4de5-a2bb-6ceb2b93fe99",
        "display": "Malb"
      } ]
    }
  }, {
    "resource": {
      "resourceType": "Observation",
      "id": "0e3d3f24-f0f2-4de5-a2bb-6ceb2b93fe99",
      "identifier": [ {
        "use": "official",
        "system": "urn:oid:1.3.6.1.4.1.16517",
        "value": "100025030654-0B055D90-9410-11E3-81F5-1CC4B7D83400"
      } ],
      "status": "final",
      "category": [ {
        "coding": [ {
          "system": "http://terminology.hl7.org/CodeSystem/observation-category",
          "code": "laboratory"
        } ]
      } ],
      "code": {
        "coding": [ {
          "system": "http://loinc.org",
          "code": "14957-5",
          "display": "Microalbumin [Mass/volume] in Urine"
        } ],
        "text": "Malb"
      },
      "subject": {
        "reference": "Patient/eb2ba2c5-7aa0-4a54-b9c1-7683a740acd0",
        "display": "FOURTEST BWHCKDRISKTEST"
      },
      "effectivePeriod": {
        "start": "2014-02-10T09:30:00+01:00"
      },
      "valueQuantity": {
        "value": 4.4,
        "unit": "mg/dL",
        "system": "http://unitsofmeasure.org",
        "code": "mg/dL"
      },
      "referenceRange": [ {
        "text": "0.0-2.0 mg/dL"
      } ]
    }
  }, {
    "resource": {
      "resourceType": "DiagnosticReport",
      "id": "f27677bf-14f2-4558-ba04-9d08bc619087",
      "identifier": [ {
        "use": "official",
        "system": "urn:oid:1.3.6.1.4.1.16517",
        "value": "100025030698-0B05D4C8-9410-11E3-81F5-1CC4B7D83400"
      } ],
      "status": "final",
      "category": [ {
        "coding": [ {
          "system": "http://terminology.hl7.org/CodeSystem/v2-0074",
          "code": "LAB",
          "display": "Laboratory"
        } ]
      } ],
      "code": {
        "coding": [ {
          "system": "http://loinc.org",
          "code": "33914-3",
          "display": "Glomerular filtration rate/1.73 sq M.predicted by Creatinine-based formula (MDRD)"
        } ]
      },
      "subject": {
        "reference": "Patient/eb2ba2c5-7aa0-4a54-b9c1-7683a740acd0",
        "display": "FOURTEST BWHCKDRISKTEST"
      },
      "result": [ {
        "reference": "Observation/ae1c7c65-613c-471d-a1b7-60c2129ce635",
        "display": "eGFR"
      } ]
    }
  }, {
    "resource": {
      "resourceType": "Observation",
      "id": "ae1c7c65-613c-471d-a1b7-60c2129ce635",
      "identifier": [ {
        "use": "official",
        "system": "urn:oid:1.3.6.1.4.1.16517",
        "value": "100025030698-0B05D4C8-9410-11E3-81F5-1CC4B7D83400"
      } ],
      "status": "final",
      "category": [ {
        "coding": [ {
          "system": "http://terminology.hl7.org/CodeSystem/observation-category",
          "code": "laboratory"
        } ]
      } ],
      "code": {
        "coding": [ {
          "system": "http://loinc.org",
          "code": "33914-3",
          "display": "Glomerular filtration rate/1.73 sq M.predicted by Creatinine-based formula (MDRD)"
        } ],
        "text": "eGFR"
      },
      "subject": {
        "reference": "Patient/eb2ba2c5-7aa0-4a54-b9c1-7683a740acd0",
        "display": "FOURTEST BWHCKDRISKTEST"
      },
      "effectivePeriod": {
        "start": "2014-02-11T13:49:00+01:00"
      },
      "valueQuantity": {
        "value": 31,
        "unit": "1",
        "system": "http://unitsofmeasure.org",
        "code": "1"
      }
    }
  }, {
    "resource": {
      "resourceType": "DiagnosticReport",
      "id": "d11e1011-b27a-455e-9fd3-ac07ca4474b0",
      "identifier": [ {
        "use": "official",
        "system": "urn:oid:1.3.6.1.4.1.16517",
        "value": "100025030687-0B02477C-9410-11E3-81F5-1CC4B7D83400"
      } ],
      "status": "final",
      "category": [ {
        "coding": [ {
          "system": "http://terminology.hl7.org/CodeSystem/v2-0074",
          "code": "LAB",
          "display": "Laboratory"
        } ]
      } ],
      "code": {
        "coding": [ {
          "system": "http://loinc.org",
          "code": "2075-0",
          "display": "Chloride [Moles/volume] in Serum or Plasma"
        } ]
      },
      "subject": {
        "reference": "Patient/eb2ba2c5-7aa0-4a54-b9c1-7683a740acd0",
        "display": "FOURTEST BWHCKDRISKTEST"
      },
      "result": [ {
        "reference": "Observation/dd866010-da1c-454f-963b-0ba7c57cfeba",
        "display": "CHLORIDE"
      } ]
    }
  }, {
    "resource": {
      "resourceType": "Observation",
      "id": "dd866010-da1c-454f-963b-0ba7c57cfeba",
      "identifier": [ {
        "use": "official",
        "system": "urn:oid:1.3.6.1.4.1.16517",
        "value": "100025030687-0B02477C-9410-11E3-81F5-1CC4B7D83400"
      } ],
      "status": "final",
      "category": [ {
        "coding": [ {
          "system": "http://terminology.hl7.org/CodeSystem/observation-category",
          "code": "laboratory"
        } ]
      } ],
      "code": {
        "coding": [ {
          "system": "http://loinc.org",
          "code": "2075-0",
          "display": "Chloride [Moles/volume] in Serum or Plasma"
        } ],
        "text": "CHLORIDE"
      },
      "subject": {
        "reference": "Patient/eb2ba2c5-7aa0-4a54-b9c1-7683a740acd0",
        "display": "FOURTEST BWHCKDRISKTEST"
      },
      "effectivePeriod": {
        "start": "2014-02-11T13:49:00+01:00"
      },
      "valueQuantity": {
        "value": 98,
        "unit": "mmol/L",
        "system": "http://unitsofmeasure.org",
        "code": "mmol/L"
      },
      "referenceRange": [ {
        "text": "98-107 mmol/L"
      } ]
    }
  }, {
    "resource": {
      "resourceType": "DiagnosticReport",
      "id": "39a668ae-7bd5-4b45-a274-56f554cfc767",
      "identifier": [ {
        "use": "official",
        "system": "urn:oid:1.3.6.1.4.1.16517",
        "value": "100025030697-0B042CC2-9410-11E3-81F5-1CC4B7D83400"
      } ],
      "status": "final",
      "category": [ {
        "coding": [ {
          "system": "http://terminology.hl7.org/CodeSystem/v2-0074",
          "code": "LAB",
          "display": "Laboratory"
        } ]
      } ],
      "code": {
        "coding": [ {
          "system": "http://loinc.org",
          "code": "17861-6",
          "display": "Calcium [Mass/volume] in Serum or Plasma"
        } ]
      },
      "subject": {
        "reference": "Patient/eb2ba2c5-7aa0-4a54-b9c1-7683a740acd0",
        "display": "FOURTEST BWHCKDRISKTEST"
      },
      "result": [ {
        "reference": "Observation/e91ef227-bbf9-42ea-bdb3-e43a465bc2b9",
        "display": "CALCIUM"
      } ]
    }
  }, {
    "resource": {
      "resourceType": "Observation",
      "id": "e91ef227-bbf9-42ea-bdb3-e43a465bc2b9",
      "identifier": [ {
        "use": "official",
        "system": "urn:oid:1.3.6.1.4.1.16517",
        "value": "100025030697-0B042CC2-9410-11E3-81F5-1CC4B7D83400"
      } ],
      "status": "final",
      "category": [ {
        "coding": [ {
          "system": "http://terminology.hl7.org/CodeSystem/observation-category",
          "code": "laboratory"
        } ]
      } ],
      "code": {
        "coding": [ {
          "system": "http://loinc.org",
          "code": "17861-6",
          "display": "Calcium [Mass/volume] in Serum or Plasma"
        } ],
        "text": "CALCIUM"
      },
      "subject": {
        "reference": "Patient/eb2ba2c5-7aa0-4a54-b9c1-7683a740acd0",
        "display": "FOURTEST BWHCKDRISKTEST"
      },
      "effectivePeriod": {
        "start": "2014-02-11T13:49:00+01:00"
      },
      "valueQuantity": {
        "value": 9.9,
        "unit": "mg/dL",
        "system": "http://unitsofmeasure.org",
        "code": "mg/dL"
      },
      "referenceRange": [ {
        "text": "8.8-10.7 mg/dL"
      } ]
    }
  }, {
    "resource": {
      "resourceType": "DiagnosticReport",
      "id": "58f56d6e-4c24-497a-91c9-50c3cb74919e",
      "identifier": [ {
        "use": "official",
        "system": "urn:oid:1.3.6.1.4.1.16517",
        "value": "100025030684-0B04817C-9410-11E3-81F5-1CC4B7D83400"
      } ],
      "status": "final",
      "category": [ {
        "coding": [ {
          "system": "http://terminology.hl7.org/CodeSystem/v2-0074",
          "code": "LAB",
          "display": "Laboratory"
        } ]
      } ],
      "code": {
        "coding": [ {
          "system": "http://loinc.org",
          "code": "2160-0",
          "display": "Creatinine [Mass/volume] in Serum or Plasma"
        } ]
      },
      "subject": {
        "reference": "Patient/eb2ba2c5-7aa0-4a54-b9c1-7683a740acd0",
        "display": "FOURTEST BWHCKDRISKTEST"
      },
      "result": [ {
        "reference": "Observation/eb8b531a-9b8e-4154-8082-86d0b17f3028",
        "display": "CREATININE"
      } ]
    }
  }, {
    "resource": {
      "resourceType": "Observation",
      "id": "eb8b531a-9b8e-4154-8082-86d0b17f3028",
      "identifier": [ {
        "use": "official",
        "system": "urn:oid:1.3.6.1.4.1.16517",
        "value": "100025030684-0B04817C-9410-11E3-81F5-1CC4B7D83400"
      } ],
      "status": "final",
      "category": [ {
        "coding": [ {
          "system": "http://terminology.hl7.org/CodeSystem/observation-category",
          "code": "laboratory"
        } ]
      } ],
      "code": {
        "coding": [ {
          "system": "http://loinc.org",
          "code": "2160-0",
          "display": "Creatinine [Mass/volume] in Serum or Plasma"
        } ],
        "text": "CREATININE"
      },
      "subject": {
        "reference": "Patient/eb2ba2c5-7aa0-4a54-b9c1-7683a740acd0",
        "display": "FOURTEST BWHCKDRISKTEST"
      },
      "effectivePeriod": {
        "start": "2014-02-11T13:49:00+01:00"
      },
      "valueQuantity": {
        "value": 1.90,
        "unit": "mg/dL",
        "system": "http://unitsofmeasure.org",
        "code": "mg/dL"
      },
      "referenceRange": [ {
        "text": "0.50-1.20 mg/dL"
      } ]
    }
  }, {
    "resource": {
      "resourceType": "DiagnosticReport",
      "id": "c48fb1af-9280-4f7c-9c8d-fbd74dc63a4d",
      "identifier": [ {
        "use": "official",
        "system": "urn:oid:1.3.6.1.4.1.16517",
        "value": "100025030689-0B0536D0-9410-11E3-81F5-1CC4B7D83400"
      } ],
      "status": "final",
      "category": [ {
        "coding": [ {
          "system": "http://terminology.hl7.org/CodeSystem/v2-0074",
          "code": "LAB",
          "display": "Laboratory"
        } ]
      } ],
      "code": {
        "coding": [ {
          "system": "http://loinc.org",
          "code": "10466-1",
          "display": "Anion gap 3 in Serum or Plasma"
        } ]
      },
      "subject": {
        "reference": "Patient/eb2ba2c5-7aa0-4a54-b9c1-7683a740acd0",
        "display": "FOURTEST BWHCKDRISKTEST"
      },
      "result": [ {
        "reference": "Observation/46bc1bb1-a05f-4d76-9f28-74ec2f265439",
        "display": "ANION GAP"
      } ]
    }
  }, {
    "resource": {
      "resourceType": "Observation",
      "id": "46bc1bb1-a05f-4d76-9f28-74ec2f265439",
      "identifier": [ {
        "use": "official",
        "system": "urn:oid:1.3.6.1.4.1.16517",
        "value": "100025030689-0B0536D0-9410-11E3-81F5-1CC4B7D83400"
      } ],
      "status": "final",
      "category": [ {
        "coding": [ {
          "system": "http://terminology.hl7.org/CodeSystem/observation-category",
          "code": "laboratory"
        } ]
      } ],
      "code": {
        "coding": [ {
          "system": "http://loinc.org",
          "code": "10466-1",
          "display": "Anion gap 3 in Serum or Plasma"
        } ],
        "text": "ANION GAP"
      },
      "subject": {
        "reference": "Patient/eb2ba2c5-7aa0-4a54-b9c1-7683a740acd0",
        "display": "FOURTEST BWHCKDRISKTEST"
      },
      "effectivePeriod": {
        "start": "2014-02-11T13:49:00+01:00"
      },
      "valueQuantity": {
        "value": 14,
        "unit": "mmol/L",
        "system": "http://unitsofmeasure.org",
        "code": "mmol/L"
      },
      "referenceRange": [ {
        "text": "5-17 mmol/L"
      } ]
    }
  }, {
    "resource": {
      "resourceType": "DiagnosticReport",
      "id": "fc1e9005-904e-4605-899b-cb9c5c1af35b",
      "identifier": [ {
        "use": "official",
        "system": "urn:oid:1.3.6.1.4.1.16517",
        "value": "100025030686-0B0222F6-9410-11E3-81F5-1CC4B7D83400"
      } ],
      "status": "final",
      "category": [ {
        "coding": [ {
          "system": "http://terminology.hl7.org/CodeSystem/v2-0074",
          "code": "LAB",
          "display": "Laboratory"
        } ]
      } ],
      "code": {
        "coding": [ {
          "system": "http://loinc.org",
          "code": "2823-3",
          "display": "Potassium [Moles/volume] in Serum or Plasma"
        } ]
      },
      "subject": {
        "reference": "Patient/eb2ba2c5-7aa0-4a54-b9c1-7683a740acd0",
        "display": "FOURTEST BWHCKDRISKTEST"
      },
      "result": [ {
        "reference": "Observation/2fa1e551-f456-4728-8928-2754034db64c",
        "display": "POTASSIUM"
      } ]
    }
  }, {
    "resource": {
      "resourceType": "Observation",
      "id": "2fa1e551-f456-4728-8928-2754034db64c",
      "identifier": [ {
        "use": "official",
        "system": "urn:oid:1.3.6.1.4.1.16517",
        "value": "100025030686-0B0222F6-9410-11E3-81F5-1CC4B7D83400"
      } ],
      "status": "final",
      "category": [ {
        "coding": [ {
          "system": "http://terminology.hl7.org/CodeSystem/observation-category",
          "code": "laboratory"
        } ]
      } ],
      "code": {
        "coding": [ {
          "system": "http://loinc.org",
          "code": "2823-3",
          "display": "Potassium [Moles/volume] in Serum or Plasma"
        } ],
        "text": "POTASSIUM"
      },
      "subject": {
        "reference": "Patient/eb2ba2c5-7aa0-4a54-b9c1-7683a740acd0",
        "display": "FOURTEST BWHCKDRISKTEST"
      },
      "effectivePeriod": {
        "start": "2014-02-11T13:49:00+01:00"
      },
      "valueQuantity": {
        "value": 4.0,
        "unit": "mmol/L",
        "system": "http://unitsofmeasure.org",
        "code": "mmol/L"
      },
      "referenceRange": [ {
        "text": "3.4-5.0 mmol/L"
      } ]
    }
  }, {
    "resource": {
      "resourceType": "DiagnosticReport",
      "id": "b137e757-08f7-459d-9501-7b9f38c8aec2",
      "identifier": [ {
        "use": "official",
        "system": "urn:oid:1.3.6.1.4.1.16517",
        "value": "100025030692-0B0313D2-9410-11E3-81F5-1CC4B7D83400"
      } ],
      "status": "final",
      "category": [ {
        "coding": [ {
          "system": "http://terminology.hl7.org/CodeSystem/v2-0074",
          "code": "LAB",
          "display": "Laboratory"
        } ]
      } ],
      "code": {
        "coding": [ {
          "system": "http://loinc.org",
          "code": "6768-6",
          "display": "Alkaline phosphatase [Enzymatic activity/volume] in Serum or Plasma"
        } ]
      },
      "subject": {
        "reference": "Patient/eb2ba2c5-7aa0-4a54-b9c1-7683a740acd0",
        "display": "FOURTEST BWHCKDRISKTEST"
      },
      "result": [ {
        "reference": "Observation/5b0f3864-6247-4755-a00e-2dafb08c009c",
        "display": "ALK PHOS"
      } ]
    }
  }, {
    "resource": {
      "resourceType": "Observation",
      "id": "5b0f3864-6247-4755-a00e-2dafb08c009c",
      "identifier": [ {
        "use": "official",
        "system": "urn:oid:1.3.6.1.4.1.16517",
        "value": "100025030692-0B0313D2-9410-11E3-81F5-1CC4B7D83400"
      } ],
      "status": "final",
      "category": [ {
        "coding": [ {
          "system": "http://terminology.hl7.org/CodeSystem/observation-category",
          "code": "laboratory"
        } ]
      } ],
      "code": {
        "coding": [ {
          "system": "http://loinc.org",
          "code": "6768-6",
          "display": "Alkaline phosphatase [Enzymatic activity/volume] in Serum or Plasma"
        } ],
        "text": "ALK PHOS"
      },
      "subject": {
        "reference": "Patient/eb2ba2c5-7aa0-4a54-b9c1-7683a740acd0",
        "display": "FOURTEST BWHCKDRISKTEST"
      },
      "effectivePeriod": {
        "start": "2014-02-11T13:49:00+01:00"
      },
      "valueQuantity": {
        "value": 99,
        "unit": "U/L",
        "system": "http://unitsofmeasure.org",
        "code": "U/L"
      },
      "referenceRange": [ {
        "text": "35-130 U/L"
      } ]
    }
  }, {
    "resource": {
      "resourceType": "DiagnosticReport",
      "id": "02e82539-200a-45b7-913c-cc0e1410af60",
      "identifier": [ {
        "use": "official",
        "system": "urn:oid:1.3.6.1.4.1.16517",
        "value": "100025030691-0B02EC90-9410-11E3-81F5-1CC4B7D83400"
      } ],
      "status": "final",
      "category": [ {
        "coding": [ {
          "system": "http://terminology.hl7.org/CodeSystem/v2-0074",
          "code": "LAB",
          "display": "Laboratory"
        } ]
      } ],
      "code": {
        "coding": [ {
          "system": "http://loinc.org",
          "code": "1920-8",
          "display": "Aspartate aminotransferase [Enzymatic activity/volume] in Serum or Plasma"
        } ]
      },
      "subject": {
        "reference": "Patient/eb2ba2c5-7aa0-4a54-b9c1-7683a740acd0",
        "display": "FOURTEST BWHCKDRISKTEST"
      },
      "result": [ {
        "reference": "Observation/ceedbd92-e421-433d-bceb-e667ee47360e",
        "display": "AST/GOT"
      } ]
    }
  }, {
    "resource": {
      "resourceType": "Observation",
      "id": "ceedbd92-e421-433d-bceb-e667ee47360e",
      "identifier": [ {
        "use": "official",
        "system": "urn:oid:1.3.6.1.4.1.16517",
        "value": "100025030691-0B02EC90-9410-11E3-81F5-1CC4B7D83400"
      } ],
      "status": "final",
      "category": [ {
        "coding": [ {
          "system": "http://terminology.hl7.org/CodeSystem/observation-category",
          "code": "laboratory"
        } ]
      } ],
      "code": {
        "coding": [ {
          "system": "http://loinc.org",
          "code": "1920-8",
          "display": "Aspartate aminotransferase [Enzymatic activity/volume] in Serum or Plasma"
        } ],
        "text": "AST/GOT"
      },
      "subject": {
        "reference": "Patient/eb2ba2c5-7aa0-4a54-b9c1-7683a740acd0",
        "display": "FOURTEST BWHCKDRISKTEST"
      },
      "effectivePeriod": {
        "start": "2014-02-11T13:49:00+01:00"
      },
      "valueQuantity": {
        "value": 28,
        "unit": "U/L",
        "system": "http://unitsofmeasure.org",
        "code": "U/L"
      },
      "referenceRange": [ {
        "text": "10-50 U/L"
      } ]
    }
  }, {
    "resource": {
      "resourceType": "DiagnosticReport",
      "id": "92a25992-5351-4961-9c6e-50114aa90c58",
      "identifier": [ {
        "use": "official",
        "system": "urn:oid:1.3.6.1.4.1.16517",
        "value": "100025030682-0B04CFF6-9410-11E3-81F5-1CC4B7D83400"
      } ],
      "status": "final",
      "category": [ {
        "coding": [ {
          "system": "http://terminology.hl7.org/CodeSystem/v2-0074",
          "code": "LAB",
          "display": "Laboratory"
        } ]
      } ],
      "code": {
        "coding": [ {
          "system": "http://loinc.org",
          "code": "6777-7",
          "display": "Deprecated Glucose [Mass/volume] in Serum or Plasma"
        } ]
      },
      "subject": {
        "reference": "Patient/eb2ba2c5-7aa0-4a54-b9c1-7683a740acd0",
        "display": "FOURTEST BWHCKDRISKTEST"
      },
      "result": [ {
        "reference": "Observation/9401248e-4a1b-49bb-b835-911c9aa4eeab",
        "display": "GLUCOSE"
      } ]
    }
  }, {
    "resource": {
      "resourceType": "Observation",
      "id": "9401248e-4a1b-49bb-b835-911c9aa4eeab",
      "identifier": [ {
        "use": "official",
        "system": "urn:oid:1.3.6.1.4.1.16517",
        "value": "100025030682-0B04CFF6-9410-11E3-81F5-1CC4B7D83400"
      } ],
      "status": "final",
      "category": [ {
        "coding": [ {
          "system": "http://terminology.hl7.org/CodeSystem/observation-category",
          "code": "laboratory"
        } ]
      } ],
      "code": {
        "coding": [ {
          "system": "http://loinc.org",
          "code": "6777-7",
          "display": "Deprecated Glucose [Mass/volume] in Serum or Plasma"
        } ],
        "text": "GLUCOSE"
      },
      "subject": {
        "reference": "Patient/eb2ba2c5-7aa0-4a54-b9c1-7683a740acd0",
        "display": "FOURTEST BWHCKDRISKTEST"
      },
      "effectivePeriod": {
        "start": "2014-02-11T13:49:00+01:00"
      },
      "valueQuantity": {
        "value": 110,
        "unit": "mg/dL",
        "system": "http://unitsofmeasure.org",
        "code": "mg/dL"
      },
      "referenceRange": [ {
        "text": "70-100 mg/dL"
      } ]
    }
  }, {
    "resource": {
      "resourceType": "DiagnosticReport",
      "id": "2d0a8091-d25c-406c-ae42-cfb251a29b2a",
      "identifier": [ {
        "use": "official",
        "system": "urn:oid:1.3.6.1.4.1.16517",
        "value": "100025030652-0B05AA84-9410-11E3-81F5-1CC4B7D83400"
      } ],
      "category": [ {
        "coding": [ {
          "system": "http://terminology.hl7.org/CodeSystem/v2-0074",
          "code": "LAB",
          "display": "Laboratory"
        } ]
      } ],
      "code": {
        "coding": [ {
          "system": "http://loinc.org",
          "code": "13362-9",
          "display": "Collection duration of Urine"
        } ]
      },
      "subject": {
        "reference": "Patient/eb2ba2c5-7aa0-4a54-b9c1-7683a740acd0",
        "display": "FOURTEST BWHCKDRISKTEST"
      },
      "result": [ {
        "reference": "Observation/ae8d3ab0-5175-4358-a19b-04a66f6a6b28",
        "display": "TIME SPAN"
      } ]
    }
  }, {
    "resource": {
      "resourceType": "Observation",
      "id": "ae8d3ab0-5175-4358-a19b-04a66f6a6b28",
      "identifier": [ {
        "use": "official",
        "system": "urn:oid:1.3.6.1.4.1.16517",
        "value": "100025030652-0B05AA84-9410-11E3-81F5-1CC4B7D83400"
      } ],
      "category": [ {
        "coding": [ {
          "system": "http://terminology.hl7.org/CodeSystem/observation-category",
          "code": "laboratory"
        } ]
      } ],
      "code": {
        "coding": [ {
          "system": "http://loinc.org",
          "code": "13362-9",
          "display": "Collection duration of Urine"
        } ],
        "text": "TIME SPAN"
      },
      "subject": {
        "reference": "Patient/eb2ba2c5-7aa0-4a54-b9c1-7683a740acd0",
        "display": "FOURTEST BWHCKDRISKTEST"
      },
      "effectivePeriod": {
        "start": "2014-02-10T09:30:00+01:00"
      },
      "valueString": "RANDOM"
    }
  }, {
    "resource": {
      "resourceType": "DiagnosticReport",
      "id": "caed804d-5ff4-4cb0-a08e-19e430639748",
      "identifier": [ {
        "use": "official",
        "system": "urn:oid:1.3.6.1.4.1.16517",
        "value": "100025030685-0B01CF86-9410-11E3-81F5-1CC4B7D83400"
      } ],
      "status": "final",
      "category": [ {
        "coding": [ {
          "system": "http://terminology.hl7.org/CodeSystem/v2-0074",
          "code": "LAB",
          "display": "Laboratory"
        } ]
      } ],
      "code": {
        "coding": [ {
          "system": "http://loinc.org",
          "code": "2951-2",
          "display": "Sodium [Moles/volume] in Serum or Plasma"
        } ]
      },
      "subject": {
        "reference": "Patient/eb2ba2c5-7aa0-4a54-b9c1-7683a740acd0",
        "display": "FOURTEST BWHCKDRISKTEST"
      },
      "result": [ {
        "reference": "Observation/317ff9dc-d85b-442f-887a-efda66ddf0b0",
        "display": "SODIUM"
      } ]
    }
  }, {
    "resource": {
      "resourceType": "Observation",
      "id": "317ff9dc-d85b-442f-887a-efda66ddf0b0",
      "identifier": [ {
        "use": "official",
        "system": "urn:oid:1.3.6.1.4.1.16517",
        "value": "100025030685-0B01CF86-9410-11E3-81F5-1CC4B7D83400"
      } ],
      "status": "final",
      "category": [ {
        "coding": [ {
          "system": "http://terminology.hl7.org/CodeSystem/observation-category",
          "code": "laboratory"
        } ]
      } ],
      "code": {
        "coding": [ {
          "system": "http://loinc.org",
          "code": "2951-2",
          "display": "Sodium [Moles/volume] in Serum or Plasma"
        } ],
        "text": "SODIUM"
      },
      "subject": {
        "reference": "Patient/eb2ba2c5-7aa0-4a54-b9c1-7683a740acd0",
        "display": "FOURTEST BWHCKDRISKTEST"
      },
      "effectivePeriod": {
        "start": "2014-02-11T13:49:00+01:00"
      },
      "valueQuantity": {
        "value": 140,
        "unit": "mmol/L",
        "system": "http://unitsofmeasure.org",
        "code": "mmol/L"
      },
      "referenceRange": [ {
        "text": "136-145 mmol/L"
      } ]
    }
  }, {
    "resource": {
      "resourceType": "DiagnosticReport",
      "id": "da102ae7-b687-4857-9825-0560fbac5fcb",
      "identifier": [ {
        "use": "official",
        "system": "urn:oid:1.3.6.1.4.1.16517",
        "value": "100025030694-0B035F9A-9410-11E3-81F5-1CC4B7D83400"
      } ],
      "status": "final",
      "category": [ {
        "coding": [ {
          "system": "http://terminology.hl7.org/CodeSystem/v2-0074",
          "code": "LAB",
          "display": "Laboratory"
        } ]
      } ],
      "code": {
        "coding": [ {
          "system": "http://loinc.org",
          "code": "2885-2",
          "display": "Protein [Mass/volume] in Serum or Plasma"
        } ]
      },
      "subject": {
        "reference": "Patient/eb2ba2c5-7aa0-4a54-b9c1-7683a740acd0",
        "display": "FOURTEST BWHCKDRISKTEST"
      },
      "result": [ {
        "reference": "Observation/4d524a9e-366d-4b61-b4b3-39cf0793b250",
        "display": "TOT PROT"
      } ]
    }
  }, {
    "resource": {
      "resourceType": "Observation",
      "id": "4d524a9e-366d-4b61-b4b3-39cf0793b250",
      "identifier": [ {
        "use": "official",
        "system": "urn:oid:1.3.6.1.4.1.16517",
        "value": "100025030694-0B035F9A-9410-11E3-81F5-1CC4B7D83400"
      } ],
      "status": "final",
      "category": [ {
        "coding": [ {
          "system": "http://terminology.hl7.org/CodeSystem/observation-category",
          "code": "laboratory"
        } ]
      } ],
      "code": {
        "coding": [ {
          "system": "http://loinc.org",
          "code": "2885-2",
          "display": "Protein [Mass/volume] in Serum or Plasma"
        } ],
        "text": "TOT PROT"
      },
      "subject": {
        "reference": "Patient/eb2ba2c5-7aa0-4a54-b9c1-7683a740acd0",
        "display": "FOURTEST BWHCKDRISKTEST"
      },
      "effectivePeriod": {
        "start": "2014-02-11T13:49:00+01:00"
      },
      "valueQuantity": {
        "value": 8.3,
        "unit": "g/dL",
        "system": "http://unitsofmeasure.org",
        "code": "g/dL"
      },
      "referenceRange": [ {
        "text": "6.4-8.3 g/dL"
      } ]
    }
  }, {
    "resource": {
      "resourceType": "Encounter",
      "id": "1dd6a214-c561-4866-932e-c3f0a6da8489",
      "status": "finished",
      "type": [ {
        "coding": [ {
          "system": "http://snomed.info/sct",
          "code": "371531000",
          "display": "encounter report"
        } ],
        "text": "No encounter diagnosis data is applicable"
      } ],
      "subject": {
        "reference": "Patient/eb2ba2c5-7aa0-4a54-b9c1-7683a740acd0",
        "display": "FOURTEST BWHCKDRISKTEST"
      },
      "period": {
        "start": "2014-02-12T13:03:57+01:00"
      }
    }
  }, {
    "resource": {
      "resourceType": "Condition",
      "id": "beb09bf0-973c-4acf-b7f9-f879dae96dda",
      "clinicalStatus": {
        "coding": [ {
          "system": "http://terminology.hl7.org/CodeSystem/condition-clinical",
          "code": "active",
          "display": "Active"
        } ]
      },
      "verificationStatus": {
        "coding": [ {
          "system": "http://terminology.hl7.org/CodeSystem/condition-ver-status",
          "code": "confirmed",
          "display": "Confirmed"
        } ]
      },
      "category": [ {
        "coding": [ {
          "system": "http://terminology.hl7.org/CodeSystem/condition-category",
          "code": "problem-list-item",
          "display": "Problem List Item"
        } ]
      } ],
      "subject": {
        "reference": "Patient/eb2ba2c5-7aa0-4a54-b9c1-7683a740acd0",
        "display": "FOURTEST BWHCKDRISKTEST"
      },
      "onsetDateTime": "2014-02-12T13:03:57+01:00"
    }
  }, {
    "resource": {
      "resourceType": "CarePlan",
      "id": "14f504a6-c631-4db4-a154-32d11b512ddf",
      "text": {
        "status": "additional",
        "div": "<div xmlns=\"http://www.w3.org/1999/xhtml\"><table border=\"1\" width=\"100%\"><thead><tr><th>Date</th><th>Care Plan</th></tr></thead><tbody><tr><td>02/12/2014 13:03</td><td>No goal and instruction data is applicable</td></tr></tbody></table></div>"
      },
      "status": "active",
      "intent": "plan",
      "category": [ {
        "coding": [ {
          "system": "http://hl7.org/fhir/us/core/CodeSystem/careplan-category",
          "code": "assess-plan"
        } ]
      } ],
      "title": "Plan of Care",
      "description": "<div><table border=\"1\" width=\"100%\"><thead><tr><th>Date</th><th>Care Plan</th></tr></thead><tbody><tr><td>02/12/2014 13:03</td><td>No goal and instruction data is applicable</td></tr></tbody></table></div>",
      "subject": {
        "reference": "Patient/eb2ba2c5-7aa0-4a54-b9c1-7683a740acd0",
        "display": "FOURTEST BWHCKDRISKTEST"
      }
    }
  }, {
    "resource": {
      "resourceType": "Observation",
      "id": "a976bd4b-5b9e-4119-bc94-79da04598fe2",
      "status": "final",
      "category": [ {
        "coding": [ {
          "system": "http://terminology.hl7.org/CodeSystem/observation-category",
          "code": "vital-signs",
          "display": "Vital Signs"
        } ]
      } ],
      "code": {
        "text": "No vital sign data is applicable"
      },
      "subject": {
        "reference": "Patient/eb2ba2c5-7aa0-4a54-b9c1-7683a740acd0",
        "display": "FOURTEST BWHCKDRISKTEST"
      },
      "effectivePeriod": {
        "start": "2014-02-12T13:03:57+01:00"
      },
      "dataAbsentReason": {
        "coding": [ {
          "system": "http://hl7.org/fhir/data-absent-reason",
          "code": "temp",
          "display": "Temp"
        } ]
      }
    }
  }, {
    "resource": {
      "resourceType": "Observation",
      "id": "2a4fe488-19fc-4854-80d7-08cd60a537b7",
      "identifier": [ {
        "use": "official",
        "system": "urn:oid:1.3.6.1.4.1.16517",
        "value": "1"
      } ],
      "status": "final",
      "code": {
        "coding": [ {
          "system": "urn:oid:2.16.840.1.113883.5.4",
          "code": "ASSERTION"
        } ]
      },
      "subject": {
        "reference": "Patient/eb2ba2c5-7aa0-4a54-b9c1-7683a740acd0",
        "display": "FOURTEST BWHCKDRISKTEST"
      },
      "effectivePeriod": {
        "start": "2014-02-12"
      },
      "dataAbsentReason": {
        "coding": [ {
          "system": "http://hl7.org/fhir/data-absent-reason",
          "code": "unknown",
          "display": "Unkown"
        } ]
      }
    }
  }, {
    "resource": {
      "resourceType": "AllergyIntolerance",
      "id": "77ced457-6946-4eef-aaa5-a4663218052c",
      "identifier": [ {
        "use": "official",
        "system": "urn:oid:1.3.6.1.4.1.16517",
        "value": "1"
      } ],
      "clinicalStatus": {
        "coding": [ {
          "system": "http://terminology.hl7.org/CodeSystem/allergyintolerance-clinical",
          "code": "active",
          "display": "Active"
        } ]
      },
      "verificationStatus": {
        "coding": [ {
          "system": "http://terminology.hl7.org/CodeSystem/allergyintolerance-verification",
          "code": "confirmed",
          "display": "Confirmed"
        } ]
      },
      "patient": {
        "reference": "Patient/eb2ba2c5-7aa0-4a54-b9c1-7683a740acd0",
        "display": "FOURTEST BWHCKDRISKTEST"
      },
      "recordedDate": "2014-02-12T13:03:57+01:00"
    }
  }, {
    "resource": {
      "resourceType": "MedicationStatement",
      "id": "905993af-ac54-426c-a985-4de98cd54dc2",
      "extension": [ {
        "url": "http://hl7.org/fhir/3.0/StructureDefinition/extension-MedicationStatement.status",
        "valueCode": "UNKNOWN"
      } ],
      "status": "completed",
      "medicationReference": {
        "reference": "Medication/76bdfc7c-bb4c-41c1-94c8-1fc5080993b2",
        "display": "No medication data is applicable"
      },
      "subject": {
        "reference": "Patient/eb2ba2c5-7aa0-4a54-b9c1-7683a740acd0",
        "display": "FOURTEST BWHCKDRISKTEST"
      },
      "effectivePeriod": {
        "start": "2014-02-12T13:03:57+01:00"
      }
    }
  }, {
    "resource": {
      "resourceType": "Medication",
      "id": "76bdfc7c-bb4c-41c1-94c8-1fc5080993b2",
      "code": {
        "text": "No medication data is applicable"
      }
    }
  }, {
    "resource": {
      "resourceType": "Procedure",
      "id": "647b5272-dcbf-40f6-87d1-2fcad7e832dd",
      "status": "completed",
      "code": {
        "text": "No procedure data is applicable"
      },
      "subject": {
        "reference": "Patient/eb2ba2c5-7aa0-4a54-b9c1-7683a740acd0",
        "display": "FOURTEST BWHCKDRISKTEST"
      },
      "performedPeriod": {
        "start": "2014-02-12T13:03:57+01:00"
      }
    }
  }, {
    "resource": {
      "resourceType": "Immunization",
      "id": "d8fd1224-da8f-450b-afa5-e4289eae5d28",
      "status": "completed",
      "vaccineCode": {
        "text": "No immunization data is applicable"
      },
      "patient": {
        "reference": "Patient/eb2ba2c5-7aa0-4a54-b9c1-7683a740acd0",
        "display": "FOURTEST BWHCKDRISKTEST"
      },
      "occurrenceDateTime": "2014-02-12T13:03:57+01:00",
      "primarySource": false
    }
  } ]
}