{
  "resourceType": "Bundle",
  "entry": [ {
    "resource": {
      "resourceType": "Composition",
      "id": "6cf4e5a5-17e2-45e3-b9b9-92f178a86c80",
      "identifier": {
        "use": "official",
        "system": "urn:oid:1.3.6.1.4.1.16517",
        "value": "A976582C-940F-11E3-8D0E-1CC4B7D83400"
      },
      "status": "preliminary",
      "type": {
        "coding": [ {
          "system": "http://loinc.org",
          "code": "34133-9",
          "display": "Summarization of Episode Note"
        } ]
      },
      "category": [ {
        "coding": [ {
          "system": "http://hl7.org/fhir/ValueSet/doc-classcodes",
          "code": "LP173421-7",
          "display": "Note"
        } ]
      } ],
      "subject": {
        "reference": "Patient/3b438731-377f-4c2d-b24e-e25f634b00b1",
        "display": "ONETEST BWHCKDRISKTEST"
      },
      "date": "2014-02-12T13:01:13-05:00",
      "title": "BPG AT 850 BOYLSTON - INTERNAL MEDICINE  Summarization of Episode Note",
      "confidentiality": "N",
      "custodian": {
        "reference": "Organization/f8ce947f-dc5d-466c-b3b9-338e9161abad",
        "display": "Partners HealthCare"
      },
      "event": [ {
        "period": {
          "end": "2014-02-12T13:01:13+01:00"
        },
        "detail": [ {
          "reference": "Practitioner/3dfb8893-2de5-4536-b16d-38c4aa8936df"
        } ]
      } ],
      "section": [ {
        "title": "Encounters",
        "code": {
          "coding": [ {
            "system": "http://loinc.org",
            "code": "46240-8",
            "display": "History of Encounters"
          } ]
        },
        "text": {
          "status": "additional",
          "div": "<div xmlns=\"http://www.w3.org/1999/xhtml\"><table border=\"1\" width=\"100%\"><thead><tr><th>Date</th><th>Description</th></tr></thead><tbody><tr><td>02/12/2014 13:01</td><td>No encounter diagnosis data is applicable</td></tr></tbody></table></div>"
        },
        "mode": "snapshot",
        "entry": [ {
          "reference": "Encounter/33ad2966-3075-44e1-9793-c67450fdce4a",
          "display": "No encounter diagnosis data is applicable"
        } ]
      }, {
        "title": "Social History",
        "code": {
          "coding": [ {
            "system": "http://loinc.org",
            "code": "29762-2",
            "display": "Social History"
          } ]
        },
        "text": {
          "status": "additional",
          "div": "<div xmlns=\"http://www.w3.org/1999/xhtml\"><table border=\"1\" width=\"100%\"><thead><tr><th>Date</th><th>Type</th></tr></thead><tbody><tr><td>02/12/2014</td><td>No smoking status data is applicable</td></tr></tbody></table></div>"
        },
        "mode": "snapshot",
        "entry": [ {
          "reference": "Observation/5055b4b7-c37f-45e2-b931-d66c732790a7"
        } ]
      }, {
        "title": "Medications",
        "code": {
          "coding": [ {
            "system": "http://loinc.org",
            "code": "10160-0",
            "display": "History of medication use"
          } ]
        },
        "text": {
          "status": "additional",
          "div": "<div xmlns=\"http://www.w3.org/1999/xhtml\"><table border=\"1\" width=\"100%\"><thead><tr><th>Date</th><th>Medications</th></tr></thead><tbody><tr><td>02/12/2014 13:01</td><td>No medication data is applicable</td></tr></tbody></table></div>"
        },
        "mode": "snapshot",
        "entry": [ {
          "reference": "MedicationStatement/9e08fb14-560f-4470-bb94-f7a9420547a1",
          "display": "No medication data is applicable"
        } ]
      }, {
        "title": "Results",
        "code": {
          "coding": [ {
            "system": "http://loinc.org",
            "code": "30954-2",
            "display": "Relevant diagnostic tests and/or laboratory data"
          } ]
        },
        "text": {
          "status": "additional",
          "div": "<div xmlns=\"http://www.w3.org/1999/xhtml\"><table border=\"1\" width=\"100%\"><thead><tr><th>Date</th><th>Test</th><th>Value</th><th>Reference Range</th><th>Abnormal Flag</th><th>Comments</th><th>Ordering Provider</th></tr></thead><tbody><tr><td>02/11/2014 13:54</td><td>SODIUM</td><td>141 mmol/L</td><td>136-145 mmol/L</td><td>Not available</td><td>Not available</td><td>HUSSAIN,SADIA S. M.D.</td></tr><tr><td>02/11/2014 13:54</td><td>POTASSIUM</td><td>4.4 mmol/L</td><td>3.4-5.0 mmol/L</td><td>Not available</td><td>Not available</td><td>HUSSAIN,SADIA S. M.D.</td></tr><tr><td>02/11/2014 13:54</td><td>CHLORIDE</td><td>103 mmol/L</td><td>98-107 mmol/L</td><td>Not available</td><td>Not available</td><td>HUSSAIN,SADIA S. M.D.</td></tr><tr><td>02/11/2014 13:54</td><td>TOTAL CO2</td><td>22 mmol/L</td><td>22-31 mmol/L</td><td>Not available</td><td>Not available</td><td>HUSSAIN,SADIA S. M.D.</td></tr><tr><td>02/11/2014 13:54</td><td>UREA N</td><td>14 mg/dL</td><td>6-23 mg/dL</td><td>Not available</td><td>Not available</td><td>HUSSAIN,SADIA S. M.D.</td></tr><tr><td>02/11/2014 13:54</td><td>CALCIUM</td><td>8.8 mg/dL</td><td>8.8-10.7 mg/dL</td><td>Not available</td><td>Not available</td><td>HUSSAIN,SADIA S. M.D.</td></tr><tr><td>02/11/2014 13:54</td><td>CREATININE</td><td>1.90 mg/dL</td><td>0.50-1.20 mg/dL</td><td>Not available</td><td>Not available</td><td>HUSSAIN,SADIA S. M.D.</td></tr><tr><td>02/11/2014 13:54</td><td>GLUCOSE</td><td>91 mg/dL</td><td>70-100 mg/dL</td><td>Not available</td><td>Not available</td><td>HUSSAIN,SADIA S. M.D.</td></tr><tr><td>02/11/2014 13:54</td><td>ANION GAP</td><td>10 mmol/L</td><td>5-17 mmol/L</td><td>Not available</td><td>Not available</td><td>HUSSAIN,SADIA S. M.D.</td></tr><tr><td>02/11/2014 13:54</td><td>eGFR</td><td>40 </td><td>Not available</td><td>Not available</td><td>(Abnormal if &amp;lt;60 mL/min/1.73m2If patient is black, multiply by 1.21)</td><td>HUSSAIN,SADIA S. M.D.</td></tr><tr><td>02/10/2014 10:00</td><td>TOTAL CO2</td><td>22 mmol/L</td><td>22-31 mmol/L</td><td>Not available</td><td>Not available</td><td>Not available</td></tr><tr><td>02/10/2014 10:00</td><td>ALBUMIN</td><td>3.9 g/dL</td><td>3.5-5.2 g/dL</td><td>Not available</td><td>Not available</td><td>Not available</td></tr><tr><td>02/10/2014 10:00</td><td>CALCIUM</td><td>8.8 mg/dL</td><td>8.8-10.7 mg/dL</td><td>Not available</td><td>Not available</td><td>Not available</td></tr><tr><td>02/10/2014 10:00</td><td>CREATININE</td><td>1.9 mg/dL</td><td>0.50-1.20 mg/dL</td><td>Not available</td><td>Not available</td><td>Not available</td></tr><tr><td>02/10/2014 10:00</td><td>PHOSPHATE</td><td>5.1 mg/dL</td><td>2.4-4.3 mg/dL</td><td>Not available</td><td>Not available</td><td>Not available</td></tr><tr><td>02/10/2014 10:00</td><td>eGFR</td><td>40 </td><td>Not available</td><td>Not available</td><td>(Abnormal if &amp;lt;60 mL/min/1.73m2If patient is black, multiply by 1.21)</td><td>Not available</td></tr><tr><td>02/10/2014 09:30</td><td>CREATININE</td><td>1.9 mg/dL</td><td>Not available</td><td>Not available</td><td>Not available</td><td>SINGH,KARANDEEP M.D.</td></tr><tr><td>02/10/2014 09:30</td><td>Malb</td><td>3.9 mg/dL</td><td>0.0-2.0 mg/dL</td><td>*</td><td>Not available</td><td>SINGH,KARANDEEP M.D.</td></tr><tr><td>02/10/2014 09:30</td><td>Malb/Cr</td><td>287 mgAlb/gCre</td><td>0.0-30 mgAlb/gCre</td><td>*</td><td>Not available</td><td>SINGH,KARANDEEP M.D.</td></tr><tr><td>02/10/2014 09:30</td><td>TIME SPAN</td><td>RANDOM</td><td>Not available</td><td>Not available</td><td>Not available</td><td>SINGH,KARANDEEP M.D.</td></tr><tr><td>02/10/2014 08:22</td><td>ALBUMIN</td><td>3.9 g/dL</td><td>3.5-5.2 g/dL</td><td>Not available</td><td>Not available</td><td>Not available</td></tr><tr><td>02/10/2014 08:22</td><td>CALCIUM</td><td>8.8 mg/dL</td><td>8.8-10.7 mg/dL</td><td>Not available</td><td>Not available</td><td>Not available</td></tr><tr><td>02/10/2014 08:22</td><td>CREATININE</td><td>1.9 mg/dL</td><td>0.50-1.20 mg/dL</td><td>*</td><td>Not available</td><td>Not available</td></tr><tr><td>02/10/2014 08:22</td><td>PHOSPHATE</td><td>5.1 mg/dL</td><td>2.4-4.3 mg/dL</td><td>Not available</td><td>Not available</td><td>Not available</td></tr><tr><td>02/10/2014 08:22</td><td> vHCO3</td><td>22 mEq/L</td><td>25.9-30.0 mEq/L</td><td>Not available</td><td>Not available</td><td>Not available</td></tr><tr><td>02/10/2014 08:22</td><td>eGFR</td><td>40 </td><td>Not available</td><td>Not available</td><td>(Abnormal if &amp;lt;60 mL/min/1.73m2If patient is black, multiply by 1.21)</td><td>Not available</td></tr><tr><td>01/30/2014 07:57</td><td>SODIUM</td><td>143 mmol/L</td><td>136-145 mmol/L</td><td>Not available</td><td>Not available</td><td>NAYAK,LAKSHMI M.D.</td></tr><tr><td>01/30/2014 07:57</td><td>POTASSIUM</td><td>4.7 mmol/L</td><td>3.4-5.0 mmol/L</td><td>#</td><td>Not available</td><td>NAYAK,LAKSHMI M.D.</td></tr><tr><td>01/30/2014 07:57</td><td>CHLORIDE</td><td>100 mmol/L</td><td>98-107 mmol/L</td><td>Not available</td><td>Not available</td><td>NAYAK,LAKSHMI M.D.</td></tr><tr><td>01/30/2014 07:57</td><td>TOTAL CO2</td><td>32 mmol/L</td><td>22-31 mmol/L</td><td>*</td><td>Not available</td><td>NAYAK,LAKSHMI M.D.</td></tr><tr><td>01/30/2014 07:57</td><td>ALT/GPT</td><td>64 U/L</td><td>10-50 U/L</td><td>*</td><td>Not available</td><td>NAYAK,LAKSHMI M.D.</td></tr><tr><td>01/30/2014 07:57</td><td>AST/GOT</td><td>43 U/L</td><td>10-50 U/L</td><td>Not available</td><td>Not available</td><td>NAYAK,LAKSHMI M.D.</td></tr><tr><td>01/30/2014 07:57</td><td>ALK PHOS</td><td>94 U/L</td><td>35-130 U/L</td><td>Not available</td><td>Not available</td><td>NAYAK,LAKSHMI M.D.</td></tr><tr><td>01/30/2014 07:57</td><td>TOT BILI</td><td>0.5 mg/dL</td><td>0.0-1.0 mg/dL</td><td>#</td><td>Not available</td><td>NAYAK,LAKSHMI M.D.</td></tr><tr><td>01/30/2014 07:57</td><td>TOT PROT</td><td>6.8 g/dL</td><td>6.4-8.3 g/dL</td><td>Not available</td><td>Not available</td><td>NAYAK,LAKSHMI M.D.</td></tr><tr><td>01/30/2014 07:57</td><td>ALBUMIN</td><td>4.1 g/dL</td><td>3.5-5.2 g/dL</td><td>Not available</td><td>Not available</td><td>NAYAK,LAKSHMI M.D.</td></tr><tr><td>01/30/2014 07:57</td><td>GLOBULIN</td><td>2.7 g/dL</td><td>2.0-4.0 g/dL</td><td>Not available</td><td>Not available</td><td>NAYAK,LAKSHMI M.D.</td></tr><tr><td>01/30/2014 07:57</td><td>UREA N</td><td>17 mg/dL</td><td>6-23 mg/dL</td><td>Not available</td><td>Not available</td><td>NAYAK,LAKSHMI M.D.</td></tr><tr><td>01/30/2014 07:57</td><td>CALCIUM</td><td>10.1 mg/dL</td><td>8.8-10.7 mg/dL</td><td>Not available</td><td>Not available</td><td>NAYAK,LAKSHMI M.D.</td></tr><tr><td>01/30/2014 07:57</td><td>CREATININE</td><td>1.01 mg/dL</td><td>0.50-1.20 mg/dL</td><td>Not available</td><td>Not available</td><td>NAYAK,LAKSHMI M.D.</td></tr><tr><td>01/30/2014 07:57</td><td>GLUCOSE</td><td>136 mg/dL</td><td>70-100 mg/dL</td><td>*</td><td>Not available</td><td>NAYAK,LAKSHMI M.D.</td></tr><tr><td>01/30/2014 07:57</td><td>ANION GAP</td><td>11 mmol/L</td><td>5-17 mmol/L</td><td>Not available</td><td>Not available</td><td>NAYAK,LAKSHMI M.D.</td></tr><tr><td>01/30/2014 07:57</td><td>eGFR</td><td>54 </td><td>Not available</td><td>Not available</td><td>(Abnormal if &amp;lt;60 mL/min/1.73m2If patient is black, multiply by 1.21)</td><td>NAYAK,LAKSHMI M.D.</td></tr></tbody></table></div>"
        },
        "mode": "snapshot",
        "entry": [ {
          "reference": "DiagnosticReport/ca1d8d26-7520-41ac-a1f9-b6a3a10d8b3e",
          "display": "Deprecated Glucose [Mass/volume] in Serum or Plasma"
        }, {
          "reference": "DiagnosticReport/bdf59e71-a7b0-4043-ab3a-59def59d051b",
          "display": "Aspartate aminotransferase [Enzymatic activity/volume] in Serum or Plasma"
        }, {
          "reference": "DiagnosticReport/e644858e-f1f3-434b-bb3f-47b1a6159e9d",
          "display": "Calcium [Mass/volume] in Serum or Plasma"
        }, {
          "reference": "DiagnosticReport/079e4b10-7f08-43de-9fff-ce7e987eb508",
          "display": "Protein [Mass/volume] in Serum or Plasma"
        }, {
          "reference": "DiagnosticReport/286cbe61-6e69-4550-80dd-20fba9d4b9b7",
          "display": "Microalbumin [Mass/volume] in Urine"
        }, {
          "reference": "DiagnosticReport/53de0d75-9793-4a68-b143-b0f2720adf00",
          "display": "Creatinine [Mass/volume] in unspecified time Urine"
        }, {
          "reference": "DiagnosticReport/306e81a4-d9cd-485c-92c2-c0924214af4b",
          "display": "Albumin [Mass/volume] in Serum or Plasma"
        }, {
          "reference": "DiagnosticReport/82722e7b-588d-4983-bf93-ff27b9953cf7",
          "display": "Urea nitrogen [Mass/volume] in Serum or Plasma"
        }, {
          "reference": "DiagnosticReport/bf462628-9a4e-44a1-9c2a-d0848fb726e8",
          "display": "Bilirubin.total [Mass/volume] in Serum or Plasma"
        }, {
          "reference": "DiagnosticReport/c5e9fa58-0451-43df-a9e7-266c359f2246",
          "display": "Alanine aminotransferase [Enzymatic activity/volume] in Serum or Plasma"
        }, {
          "reference": "DiagnosticReport/a60c9d2c-e160-4e30-9f9e-e118bd78b5b2",
          "display": "Glomerular filtration rate/1.73 sq M.predicted by Creatinine-based formula (MDRD)"
        }, {
          "reference": "DiagnosticReport/dc1daf0d-367e-41c9-8084-faf8af854bcc",
          "display": "Collection duration of Urine"
        }, {
          "reference": "DiagnosticReport/cb1c0d06-53b4-4086-a1fc-961effa4c9d2",
          "display": "Urea nitrogen [Mass/volume] in Serum or Plasma"
        }, {
          "reference": "DiagnosticReport/02d463e7-0a77-45ef-9877-f78d3146500c",
          "display": "Creatinine [Mass/volume] in Serum or Plasma"
        }, {
          "reference": "DiagnosticReport/b7dd9088-6f43-48a9-b41f-d2d21ed5567d",
          "display": "Calcium [Mass/volume] in Serum or Plasma"
        }, {
          "reference": "DiagnosticReport/812286dc-cbf7-4759-8ff9-ad1329ac25b1",
          "display": "Calcium [Mass/volume] in Serum or Plasma"
        }, {
          "reference": "DiagnosticReport/98c64bbe-8d01-438e-b82f-b182c989141b",
          "display": "Albumin [Mass/volume] in Serum or Plasma"
        }, {
          "reference": "DiagnosticReport/b38a7157-bb91-423b-9831-c9f189932013",
          "display": "Deprecated Glucose [Mass/volume] in Serum or Plasma"
        }, {
          "reference": "DiagnosticReport/1e71e1c9-515e-487e-92e5-9f201069cce0",
          "display": "Sodium [Moles/volume] in Serum or Plasma"
        }, {
          "reference": "DiagnosticReport/b37267c9-d318-4f59-99b1-d275eebd19ee",
          "display": "Globulin [Mass/volume] in Serum"
        }, {
          "reference": "DiagnosticReport/85685c82-c35a-4c37-95d6-621e77922a03",
          "display": "Bicarbonate [Moles/volume] in Venous blood"
        }, {
          "reference": "DiagnosticReport/b70b4205-40f3-435e-a05b-63009bdf9614",
          "display": "Anion gap 3 in Serum or Plasma"
        }, {
          "reference": "DiagnosticReport/2b40f728-8481-41d0-8721-88969fee3b6b",
          "display": "Chloride [Moles/volume] in Serum or Plasma"
        }, {
          "reference": "DiagnosticReport/dd31fe29-170b-447c-a5fe-87f73188f961",
          "display": "Phosphate [Mass/volume] in Serum or Plasma"
        }, {
          "reference": "DiagnosticReport/dd72c0ee-be6a-4658-bb25-3e3399858680",
          "display": "Alkaline phosphatase [Enzymatic activity/volume] in Serum or Plasma"
        }, {
          "reference": "DiagnosticReport/0c0843f6-107a-4a9b-a3ca-7492544db1d3",
          "display": "Phosphate [Mass/volume] in Serum or Plasma"
        }, {
          "reference": "DiagnosticReport/c962b046-91ea-4cf5-a2a9-db9c5fb0700e",
          "display": "Albumin [Mass/volume] in Serum or Plasma"
        }, {
          "reference": "DiagnosticReport/608261f8-5ffb-4d86-917f-88438c934248",
          "display": "Anion gap 3 in Serum or Plasma"
        }, {
          "reference": "DiagnosticReport/07a93b07-0a44-486d-9f7c-b85a9a2c0235",
          "display": "Chloride [Moles/volume] in Serum or Plasma"
        }, {
          "reference": "DiagnosticReport/a9e2d0e3-d056-414b-aa0a-97c58b351afa",
          "display": "Creatinine [Mass/volume] in Serum or Plasma"
        }, {
          "reference": "DiagnosticReport/3da4a7ca-85ff-4964-8417-50afe112954d",
          "display": "Microalbumin/Creatinine [Mass Ratio] in Urine"
        }, {
          "reference": "DiagnosticReport/df99963c-8706-406b-b835-af47fb48f8a3",
          "display": "Glomerular filtration rate/1.73 sq M.predicted by Creatinine-based formula (MDRD)"
        }, {
          "reference": "DiagnosticReport/adcd073e-c626-46c7-8a39-02210a53fb1b",
          "display": "Glomerular filtration rate/1.73 sq M.predicted by Creatinine-based formula (MDRD)"
        }, {
          "reference": "DiagnosticReport/832475c9-87fd-4b81-9aec-8139af5ae1d5",
          "display": "Potassium [Moles/volume] in Serum or Plasma"
        }, {
          "reference": "DiagnosticReport/e336c25d-647f-454e-96a1-976a31099616",
          "display": "Potassium [Moles/volume] in Serum or Plasma"
        }, {
          "reference": "DiagnosticReport/8679043d-8cf5-4711-ba92-4ce5b310c85b",
          "display": "Carbon dioxide, total [Moles/volume] in Serum or Plasma"
        }, {
          "reference": "DiagnosticReport/5a66caf7-6c31-4cd2-8155-82f395f331c5",
          "display": "Carbon dioxide, total [Moles/volume] in Serum or Plasma"
        }, {
          "reference": "DiagnosticReport/a039dc45-0654-4bc3-9565-aaff884b19a8",
          "display": "Glomerular filtration rate/1.73 sq M.predicted by Creatinine-based formula (MDRD)"
        }, {
          "reference": "DiagnosticReport/108af1b1-f456-481b-b456-20ef532ee4c7",
          "display": "Creatinine [Mass/volume] in Serum or Plasma"
        }, {
          "reference": "DiagnosticReport/f5dfd5a8-71ba-4f79-af0f-5bc5ffd1ba7c",
          "display": "Calcium [Mass/volume] in Serum or Plasma"
        }, {
          "reference": "DiagnosticReport/7bbca849-552a-4d5c-bbfd-3be3fd00007b",
          "display": "Carbon dioxide, total [Moles/volume] in Serum or Plasma"
        }, {
          "reference": "DiagnosticReport/7d6a9f05-cc75-476c-af57-75d7a19d054d",
          "display": "Creatinine [Mass/volume] in Serum or Plasma"
        }, {
          "reference": "DiagnosticReport/f2fe13c6-d18e-4ecc-a4c7-06ca66e96013",
          "display": "Sodium [Moles/volume] in Serum or Plasma"
        } ]
      }, {
        "title": "Vital Signs",
        "code": {
          "coding": [ {
            "system": "http://loinc.org",
            "code": "8716-3",
            "display": "Vital signs"
          } ]
        },
        "text": {
          "status": "additional",
          "div": "<div xmlns=\"http://www.w3.org/1999/xhtml\"><table border=\"1\" width=\"100%\"><thead><tr><th>Date</th><th>Vital Sign</th></tr></thead><tbody><tr><td>02/12/2014 13:01</td><td>No vital sign data is applicable</td></tr></tbody></table></div>"
        },
        "mode": "snapshot",
        "entry": [ {
          "reference": "Observation/c79af066-8ae8-46b0-85ed-2cc425aade83",
          "display": "No vital sign data is applicable"
        } ]
      }, {
        "title": "Problems",
        "code": {
          "coding": [ {
            "system": "http://loinc.org",
            "code": "11450-4",
            "display": "Problem List"
          } ]
        },
        "text": {
          "status": "additional",
          "div": "<div xmlns=\"http://www.w3.org/1999/xhtml\"><table border=\"1\" width=\"100%\"><thead><tr><th>Date</th><th>Problems</th></tr></thead><tbody><tr><td>02/12/2014 13:01</td><td>No problem data is applicable</td></tr></tbody></table></div>"
        },
        "mode": "snapshot",
        "entry": [ {
          "reference": "Condition/78778131-e5d8-4eeb-941a-69e98ecf183d"
        } ]
      }, {
        "title": "Functional Status",
        "code": {
          "coding": [ {
            "system": "http://loinc.org",
            "code": "47420-5",
            "display": "Functional status assessment note"
          } ]
        },
        "text": {
          "status": "additional",
          "div": "<div xmlns=\"http://www.w3.org/1999/xhtml\"><table border=\"1\" width=\"100%\"><thead><tr><th>Date</th><th>Assessment</th></tr></thead><tbody><tr><td>02/12/2014</td><td>No functional assessment data is applicable</td></tr><tr><td>02/12/2014</td><td>No cognitive assessment data is applicable</td></tr></tbody></table></div>"
        },
        "mode": "snapshot"
      }, {
        "title": "Immunizations",
        "code": {
          "coding": [ {
            "system": "http://loinc.org",
            "code": "11369-6",
            "display": "History of immunizations"
          } ]
        },
        "text": {
          "status": "additional",
          "div": "<div xmlns=\"http://www.w3.org/1999/xhtml\"><table border=\"1\" width=\"100%\"><thead><tr><th>Date</th><th>Immunizations</th></tr></thead><tbody><tr><td>02/12/2014 13:01</td><td>No immunization data is applicable</td></tr></tbody></table></div>"
        },
        "mode": "snapshot",
        "entry": [ {
          "reference": "Immunization/801e48af-0f97-49d7-91be-b3e65de4fc2d",
          "display": "No immunization data is applicable"
        } ]
      }, {
        "title": "Procedures",
        "code": {
          "coding": [ {
            "system": "http://loinc.org",
            "code": "47519-4",
            "display": "History of procedures"
          } ]
        },
        "text": {
          "status": "additional",
          "div": "<div xmlns=\"http://www.w3.org/1999/xhtml\"><table border=\"1\" width=\"100%\"><thead><tr><th>Date</th><th>Procedures</th></tr></thead><tbody><tr><td>02/12/2014 13:01</td><td>No procedure data is applicable</td></tr></tbody></table></div>"
        },
        "mode": "snapshot",
        "entry": [ {
          "reference": "Procedure/a83db906-d54e-4609-8bd2-bfbe24d77d6f",
          "display": "No procedure data is applicable"
        } ]
      }, {
        "title": "Plan of Care",
        "code": {
          "coding": [ {
            "system": "http://loinc.org",
            "code": "18776-5",
            "display": "Treatment plan"
          } ]
        },
        "text": {
          "status": "additional",
          "div": "<div xmlns=\"http://www.w3.org/1999/xhtml\"><table border=\"1\" width=\"100%\"><thead><tr><th>Date</th><th>Care Plan</th></tr></thead><tbody><tr><td>02/12/2014 13:01</td><td>No goal and instruction data is applicable</td></tr></tbody></table></div>"
        },
        "mode": "snapshot",
        "entry": [ {
          "reference": "CarePlan/a1bd3c6e-4f7a-4870-873a-5289e9241fad"
        } ]
      }, {
        "title": "Allergies",
        "code": {
          "coding": [ {
            "system": "http://loinc.org",
            "code": "48765-2",
            "display": "Allergies, adverse reactions, alert "
          } ]
        },
        "text": {
          "status": "additional",
          "div": "<div xmlns=\"http://www.w3.org/1999/xhtml\"><table border=\"1\" width=\"100%\"><thead><tr><th>Date</th><th>Allergies</th><th>Status</th></tr></thead><tbody><tr><td>02/12/2014 13:01</td><td>No allergy data is applicable</td><td>active</td></tr></tbody></table></div>"
        },
        "mode": "snapshot",
        "entry": [ {
          "reference": "AllergyIntolerance/8c0d5fcf-4fcc-482d-8951-90762757c867"
        } ]
      } ]
    }
  }, {
    "resource": {
      "resourceType": "Patient",
      "id": "3b438731-377f-4c2d-b24e-e25f634b00b1",
      "extension": [ {
        "url": "http://hl7.org/fhir/us/core/StructureDefinition/us-core-race",
        "extension": [ {
          "url": "text",
          "valueString": "Black or African American"
        }, {
          "url": "ombCategory",
          "valueCoding": {
            "system": "urn:oid:2.16.840.1.113883.6.238",
            "code": "2054-5",
            "display": "Black or African American"
          }
        } ]
      }, {
        "url": "http://hl7.org/fhir/us/core/StructureDefinition/us-core-ethnicity",
        "extension": [ {
          "url": "text",
          "valueString": "Not Hispanic or Latino"
        }, {
          "url": "ombCategory",
          "valueCoding": {
            "system": "urn:oid:2.16.840.1.113883.6.238",
            "code": "2186-5",
            "display": "Not Hispanic or Latino"
          }
        } ]
      } ],
      "identifier": [ {
        "use": "official",
        "system": "urn:oid:1.3.6.1.4.1.16517.1",
        "value": "107624055"
      }, {
        "use": "official",
        "system": "urn:oid:1.3.6.1.4.1.16517.2.2",
        "value": "50068626"
      } ],
      "name": [ {
        "family": "BWHCKDRISKTEST",
        "given": [ "ONETEST" ]
      } ],
      "telecom": [ {
        "system": "phone",
        "value": "(508)661-1616",
        "use": "home"
      } ],
      "gender": "male",
      "birthDate": "1944-01-01",
      "address": [ {
        "line": [ "123 MAIN STREET" ],
        "city": "BOSTON",
        "state": "MA",
        "postalCode": "02109",
        "country": "US"
      } ]
    }
  }, {
    "resource": {
      "resourceType": "Practitioner",
      "id": "3dfb8893-2de5-4536-b16d-38c4aa8936df"
    }
  }, {
    "resource": {
      "resourceType": "Organization",
      "id": "f8ce947f-dc5d-466c-b3b9-338e9161abad",
      "identifier": [ {
        "use": "official",
        "system": "urn:oid:1.3.6.1.4.1.16517",
        "value": "PHS"
      } ],
      "name": "Partners HealthCare",
      "telecom": [ {
        "system": "phone",
        "value": "(617)278-1000",
        "use": "work"
      } ],
      "address": [ {
        "line": [ "Prudential Tower", "800 Boylston Street, Suite 1150" ],
        "city": "Boston",
        "state": "MA",
        "postalCode": "02199-8001"
      } ]
    }
  }, {
    "resource": {
      "resourceType": "Encounter",
      "id": "33ad2966-3075-44e1-9793-c67450fdce4a",
      "status": "finished",
      "type": [ {
        "coding": [ {
          "system": "http://snomed.info/sct",
          "code": "371531000",
          "display": "encounter report"
        } ],
        "text": "No encounter diagnosis data is applicable"
      } ],
      "subject": {
        "reference": "Patient/3b438731-377f-4c2d-b24e-e25f634b00b1",
        "display": "ONETEST BWHCKDRISKTEST"
      },
      "period": {
        "start": "2014-02-12T13:01:14+01:00"
      }
    }
  }, {
    "resource": {
      "resourceType": "Observation",
      "id": "5055b4b7-c37f-45e2-b931-d66c732790a7",
      "identifier": [ {
        "use": "official",
        "system": "urn:oid:1.3.6.1.4.1.16517",
        "value": "1"
      } ],
      "status": "final",
      "code": {
        "coding": [ {
          "system": "urn:oid:2.16.840.1.113883.5.4",
          "code": "ASSERTION"
        } ]
      },
      "subject": {
        "reference": "Patient/3b438731-377f-4c2d-b24e-e25f634b00b1",
        "display": "ONETEST BWHCKDRISKTEST"
      },
      "effectivePeriod": {
        "start": "2014-02-12"
      },
      "dataAbsentReason": {
        "coding": [ {
          "system": "http://hl7.org/fhir/data-absent-reason",
          "code": "unknown",
          "display": "Unkown"
        } ]
      }
    }
  }, {
    "resource": {
      "resourceType": "MedicationStatement",
      "id": "9e08fb14-560f-4470-bb94-f7a9420547a1",
      "extension": [ {
        "url": "http://hl7.org/fhir/3.0/StructureDefinition/extension-MedicationStatement.status",
        "valueCode": "UNKNOWN"
      } ],
      "status": "completed",
      "medicationReference": {
        "reference": "Medication/f55d43aa-627d-4b2a-8932-f3b14a36ca2b",
        "display": "No medication data is applicable"
      },
      "subject": {
        "reference": "Patient/3b438731-377f-4c2d-b24e-e25f634b00b1",
        "display": "ONETEST BWHCKDRISKTEST"
      },
      "effectivePeriod": {
        "start": "2014-02-12T13:01:14+01:00"
      }
    }
  }, {
    "resource": {
      "resourceType": "Medication",
      "id": "f55d43aa-627d-4b2a-8932-f3b14a36ca2b",
      "code": {
        "text": "No medication data is applicable"
      }
    }
  }, {
    "resource": {
      "resourceType": "DiagnosticReport",
      "id": "ca1d8d26-7520-41ac-a1f9-b6a3a10d8b3e",
      "identifier": [ {
        "use": "official",
        "system": "urn:oid:1.3.6.1.4.1.16517",
        "value": "100025030716-A9916702-940F-11E3-90AC-1CC4B7D83400"
      } ],
      "status": "final",
      "category": [ {
        "coding": [ {
          "system": "http://terminology.hl7.org/CodeSystem/v2-0074",
          "code": "LAB",
          "display": "Laboratory"
        } ]
      } ],
      "code": {
        "coding": [ {
          "system": "http://loinc.org",
          "code": "6777-7",
          "display": "Deprecated Glucose [Mass/volume] in Serum or Plasma"
        } ]
      },
      "subject": {
        "reference": "Patient/3b438731-377f-4c2d-b24e-e25f634b00b1",
        "display": "ONETEST BWHCKDRISKTEST"
      },
      "result": [ {
        "reference": "Observation/f7fa3d05-fd95-4df5-815c-e1d90c039b59",
        "display": "GLUCOSE"
      } ]
    }
  }, {
    "resource": {
      "resourceType": "Observation",
      "id": "f7fa3d05-fd95-4df5-815c-e1d90c039b59",
      "identifier": [ {
        "use": "official",
        "system": "urn:oid:1.3.6.1.4.1.16517",
        "value": "100025030716-A9916702-940F-11E3-90AC-1CC4B7D83400"
      } ],
      "status": "final",
      "category": [ {
        "coding": [ {
          "system": "http://terminology.hl7.org/CodeSystem/observation-category",
          "code": "laboratory"
        } ]
      } ],
      "code": {
        "coding": [ {
          "system": "http://loinc.org",
          "code": "6777-7",
          "display": "Deprecated Glucose [Mass/volume] in Serum or Plasma"
        } ],
        "text": "GLUCOSE"
      },
      "subject": {
        "reference": "Patient/3b438731-377f-4c2d-b24e-e25f634b00b1",
        "display": "ONETEST BWHCKDRISKTEST"
      },
      "effectivePeriod": {
        "start": "2014-02-11T13:54:00+01:00"
      },
      "valueQuantity": {
        "value": 91,
        "unit": "mg/dL",
        "system": "http://unitsofmeasure.org",
        "code": "mg/dL"
      },
      "referenceRange": [ {
        "text": "70-100 mg/dL"
      } ]
    }
  }, {
    "resource": {
      "resourceType": "DiagnosticReport",
      "id": "bdf59e71-a7b0-4043-ab3a-59def59d051b",
      "identifier": [ {
        "use": "official",
        "system": "urn:oid:1.3.6.1.4.1.16517",
        "value": "100025030584-A9884B90-940F-11E3-90AC-1CC4B7D83400"
      } ],
      "status": "final",
      "category": [ {
        "coding": [ {
          "system": "http://terminology.hl7.org/CodeSystem/v2-0074",
          "code": "LAB",
          "display": "Laboratory"
        } ]
      } ],
      "code": {
        "coding": [ {
          "system": "http://loinc.org",
          "code": "1920-8",
          "display": "Aspartate aminotransferase [Enzymatic activity/volume] in Serum or Plasma"
        } ]
      },
      "subject": {
        "reference": "Patient/3b438731-377f-4c2d-b24e-e25f634b00b1",
        "display": "ONETEST BWHCKDRISKTEST"
      },
      "result": [ {
        "reference": "Observation/9e464bdf-7ca8-466f-93f5-ad54205930f1",
        "display": "AST/GOT"
      } ]
    }
  }, {
    "resource": {
      "resourceType": "Observation",
      "id": "9e464bdf-7ca8-466f-93f5-ad54205930f1",
      "identifier": [ {
        "use": "official",
        "system": "urn:oid:1.3.6.1.4.1.16517",
        "value": "100025030584-A9884B90-940F-11E3-90AC-1CC4B7D83400"
      } ],
      "status": "final",
      "category": [ {
        "coding": [ {
          "system": "http://terminology.hl7.org/CodeSystem/observation-category",
          "code": "laboratory"
        } ]
      } ],
      "code": {
        "coding": [ {
          "system": "http://loinc.org",
          "code": "1920-8",
          "display": "Aspartate aminotransferase [Enzymatic activity/volume] in Serum or Plasma"
        } ],
        "text": "AST/GOT"
      },
      "subject": {
        "reference": "Patient/3b438731-377f-4c2d-b24e-e25f634b00b1",
        "display": "ONETEST BWHCKDRISKTEST"
      },
      "effectivePeriod": {
        "start": "2014-01-30T07:57:00+01:00"
      },
      "valueQuantity": {
        "value": 43,
        "unit": "U/L",
        "system": "http://unitsofmeasure.org",
        "code": "U/L"
      },
      "referenceRange": [ {
        "text": "10-50 U/L"
      } ]
    }
  }, {
    "resource": {
      "resourceType": "DiagnosticReport",
      "id": "e644858e-f1f3-434b-bb3f-47b1a6159e9d",
      "identifier": [ {
        "use": "official",
        "system": "urn:oid:1.3.6.1.4.1.16517",
        "value": "100025030724-A98EE4C8-940F-11E3-90AC-1CC4B7D83400"
      } ],
      "status": "final",
      "category": [ {
        "coding": [ {
          "system": "http://terminology.hl7.org/CodeSystem/v2-0074",
          "code": "LAB",
          "display": "Laboratory"
        } ]
      } ],
      "code": {
        "coding": [ {
          "system": "http://loinc.org",
          "code": "17861-6",
          "display": "Calcium [Mass/volume] in Serum or Plasma"
        } ]
      },
      "subject": {
        "reference": "Patient/3b438731-377f-4c2d-b24e-e25f634b00b1",
        "display": "ONETEST BWHCKDRISKTEST"
      },
      "result": [ {
        "reference": "Observation/59c56607-b3f1-4882-badb-a9f386ec1e85",
        "display": "CALCIUM"
      } ]
    }
  }, {
    "resource": {
      "resourceType": "Observation",
      "id": "59c56607-b3f1-4882-badb-a9f386ec1e85",
      "identifier": [ {
        "use": "official",
        "system": "urn:oid:1.3.6.1.4.1.16517",
        "value": "100025030724-A98EE4C8-940F-11E3-90AC-1CC4B7D83400"
      } ],
      "status": "final",
      "category": [ {
        "coding": [ {
          "system": "http://terminology.hl7.org/CodeSystem/observation-category",
          "code": "laboratory"
        } ]
      } ],
      "code": {
        "coding": [ {
          "system": "http://loinc.org",
          "code": "17861-6",
          "display": "Calcium [Mass/volume] in Serum or Plasma"
        } ],
        "text": "CALCIUM"
      },
      "subject": {
        "reference": "Patient/3b438731-377f-4c2d-b24e-e25f634b00b1",
        "display": "ONETEST BWHCKDRISKTEST"
      },
      "effectivePeriod": {
        "start": "2014-02-11T13:54:00+01:00"
      },
      "valueQuantity": {
        "value": 8.8,
        "unit": "mg/dL",
        "system": "http://unitsofmeasure.org",
        "code": "mg/dL"
      },
      "referenceRange": [ {
        "text": "8.8-10.7 mg/dL"
      } ]
    }
  }, {
    "resource": {
      "resourceType": "DiagnosticReport",
      "id": "079e4b10-7f08-43de-9fff-ce7e987eb508",
      "identifier": [ {
        "use": "official",
        "system": "urn:oid:1.3.6.1.4.1.16517",
        "value": "100025030587-A98DBEE0-940F-11E3-90AC-1CC4B7D83400"
      } ],
      "status": "final",
      "category": [ {
        "coding": [ {
          "system": "http://terminology.hl7.org/CodeSystem/v2-0074",
          "code": "LAB",
          "display": "Laboratory"
        } ]
      } ],
      "code": {
        "coding": [ {
          "system": "http://loinc.org",
          "code": "2885-2",
          "display": "Protein [Mass/volume] in Serum or Plasma"
        } ]
      },
      "subject": {
        "reference": "Patient/3b438731-377f-4c2d-b24e-e25f634b00b1",
        "display": "ONETEST BWHCKDRISKTEST"
      },
      "result": [ {
        "reference": "Observation/c24f08bd-7ea9-4a01-88c7-3d6687cd9656",
        "display": "TOT PROT"
      } ]
    }
  }, {
    "resource": {
      "resourceType": "Observation",
      "id": "c24f08bd-7ea9-4a01-88c7-3d6687cd9656",
      "identifier": [ {
        "use": "official",
        "system": "urn:oid:1.3.6.1.4.1.16517",
        "value": "100025030587-A98DBEE0-940F-11E3-90AC-1CC4B7D83400"
      } ],
      "status": "final",
      "category": [ {
        "coding": [ {
          "system": "http://terminology.hl7.org/CodeSystem/observation-category",
          "code": "laboratory"
        } ]
      } ],
      "code": {
        "coding": [ {
          "system": "http://loinc.org",
          "code": "2885-2",
          "display": "Protein [Mass/volume] in Serum or Plasma"
        } ],
        "text": "TOT PROT"
      },
      "subject": {
        "reference": "Patient/3b438731-377f-4c2d-b24e-e25f634b00b1",
        "display": "ONETEST BWHCKDRISKTEST"
      },
      "effectivePeriod": {
        "start": "2014-01-30T07:57:00+01:00"
      },
      "valueQuantity": {
        "value": 6.8,
        "unit": "g/dL",
        "system": "http://unitsofmeasure.org",
        "code": "g/dL"
      },
      "referenceRange": [ {
        "text": "6.4-8.3 g/dL"
      } ]
    }
  }, {
    "resource": {
      "resourceType": "DiagnosticReport",
      "id": "286cbe61-6e69-4550-80dd-20fba9d4b9b7",
      "identifier": [ {
        "use": "official",
        "system": "urn:oid:1.3.6.1.4.1.16517",
        "value": "100025030635-A9928E7A-940F-11E3-90AC-1CC4B7D83400"
      } ],
      "status": "final",
      "category": [ {
        "coding": [ {
          "system": "http://terminology.hl7.org/CodeSystem/v2-0074",
          "code": "LAB",
          "display": "Laboratory"
        } ]
      } ],
      "code": {
        "coding": [ {
          "system": "http://loinc.org",
          "code": "14957-5",
          "display": "Microalbumin [Mass/volume] in Urine"
        } ]
      },
      "subject": {
        "reference": "Patient/3b438731-377f-4c2d-b24e-e25f634b00b1",
        "display": "ONETEST BWHCKDRISKTEST"
      },
      "result": [ {
        "reference": "Observation/4be7d299-a6c6-46c2-b546-626496dbdad7",
        "display": "Malb"
      } ]
    }
  }, {
    "resource": {
      "resourceType": "Observation",
      "id": "4be7d299-a6c6-46c2-b546-626496dbdad7",
      "identifier": [ {
        "use": "official",
        "system": "urn:oid:1.3.6.1.4.1.16517",
        "value": "100025030635-A9928E7A-940F-11E3-90AC-1CC4B7D83400"
      } ],
      "status": "final",
      "category": [ {
        "coding": [ {
          "system": "http://terminology.hl7.org/CodeSystem/observation-category",
          "code": "laboratory"
        } ]
      } ],
      "code": {
        "coding": [ {
          "system": "http://loinc.org",
          "code": "14957-5",
          "display": "Microalbumin [Mass/volume] in Urine"
        } ],
        "text": "Malb"
      },
      "subject": {
        "reference": "Patient/3b438731-377f-4c2d-b24e-e25f634b00b1",
        "display": "ONETEST BWHCKDRISKTEST"
      },
      "effectivePeriod": {
        "start": "2014-02-10T09:30:00+01:00"
      },
      "valueQuantity": {
        "value": 3.9,
        "unit": "mg/dL",
        "system": "http://unitsofmeasure.org",
        "code": "mg/dL"
      },
      "referenceRange": [ {
        "text": "0.0-2.0 mg/dL"
      } ]
    }
  }, {
    "resource": {
      "resourceType": "DiagnosticReport",
      "id": "53de0d75-9793-4a68-b143-b0f2720adf00",
      "identifier": [ {
        "use": "official",
        "system": "urn:oid:1.3.6.1.4.1.16517",
        "value": "100025030633-A9920A54-940F-11E3-90AC-1CC4B7D83400"
      } ],
      "status": "final",
      "category": [ {
        "coding": [ {
          "system": "http://terminology.hl7.org/CodeSystem/v2-0074",
          "code": "LAB",
          "display": "Laboratory"
        } ]
      } ],
      "code": {
        "coding": [ {
          "system": "http://loinc.org",
          "code": "35674-1",
          "display": "Creatinine [Mass/volume] in unspecified time Urine"
        } ]
      },
      "subject": {
        "reference": "Patient/3b438731-377f-4c2d-b24e-e25f634b00b1",
        "display": "ONETEST BWHCKDRISKTEST"
      },
      "result": [ {
        "reference": "Observation/289e285e-1802-4a3d-ab58-f50f0c28117f",
        "display": "CREATININE"
      } ]
    }
  }, {
    "resource": {
      "resourceType": "Observation",
      "id": "289e285e-1802-4a3d-ab58-f50f0c28117f",
      "identifier": [ {
        "use": "official",
        "system": "urn:oid:1.3.6.1.4.1.16517",
        "value": "100025030633-A9920A54-940F-11E3-90AC-1CC4B7D83400"
      } ],
      "status": "final",
      "category": [ {
        "coding": [ {
          "system": "http://terminology.hl7.org/CodeSystem/observation-category",
          "code": "laboratory"
        } ]
      } ],
      "code": {
        "coding": [ {
          "system": "http://loinc.org",
          "code": "35674-1",
          "display": "Creatinine [Mass/volume] in unspecified time Urine"
        } ],
        "text": "CREATININE"
      },
      "subject": {
        "reference": "Patient/3b438731-377f-4c2d-b24e-e25f634b00b1",
        "display": "ONETEST BWHCKDRISKTEST"
      },
      "effectivePeriod": {
        "start": "2014-02-10T09:30:00+01:00"
      },
      "valueQuantity": {
        "value": 1.9,
        "unit": "mg/dL",
        "system": "http://unitsofmeasure.org",
        "code": "mg/dL"
      }
    }
  }, {
    "resource": {
      "resourceType": "DiagnosticReport",
      "id": "306e81a4-d9cd-485c-92c2-c0924214af4b",
      "identifier": [ {
        "use": "official",
        "system": "urn:oid:1.3.6.1.4.1.16517",
        "value": "100025030644-A98DE3A2-940F-11E3-90AC-1CC4B7D83400"
      } ],
      "status": "final",
      "category": [ {
        "coding": [ {
          "system": "http://terminology.hl7.org/CodeSystem/v2-0074",
          "code": "LAB",
          "display": "Laboratory"
        } ]
      } ],
      "code": {
        "coding": [ {
          "system": "http://loinc.org",
          "code": "1751-7",
          "display": "Albumin [Mass/volume] in Serum or Plasma"
        } ]
      },
      "subject": {
        "reference": "Patient/3b438731-377f-4c2d-b24e-e25f634b00b1",
        "display": "ONETEST BWHCKDRISKTEST"
      },
      "result": [ {
        "reference": "Observation/77f631af-9320-4016-bd03-c2dfc0852fb3",
        "display": "ALBUMIN"
      } ]
    }
  }, {
    "resource": {
      "resourceType": "Observation",
      "id": "77f631af-9320-4016-bd03-c2dfc0852fb3",
      "identifier": [ {
        "use": "official",
        "system": "urn:oid:1.3.6.1.4.1.16517",
        "value": "100025030644-A98DE3A2-940F-11E3-90AC-1CC4B7D83400"
      } ],
      "status": "final",
      "category": [ {
        "coding": [ {
          "system": "http://terminology.hl7.org/CodeSystem/observation-category",
          "code": "laboratory"
        } ]
      } ],
      "code": {
        "coding": [ {
          "system": "http://loinc.org",
          "code": "1751-7",
          "display": "Albumin [Mass/volume] in Serum or Plasma"
        } ],
        "text": "ALBUMIN"
      },
      "subject": {
        "reference": "Patient/3b438731-377f-4c2d-b24e-e25f634b00b1",
        "display": "ONETEST BWHCKDRISKTEST"
      },
      "effectivePeriod": {
        "start": "2014-02-10T10:00:00+01:00"
      },
      "valueQuantity": {
        "value": 3.9,
        "unit": "g/dL",
        "system": "http://unitsofmeasure.org",
        "code": "g/dL"
      },
      "referenceRange": [ {
        "text": "3.5-5.2 g/dL"
      } ]
    }
  }, {
    "resource": {
      "resourceType": "DiagnosticReport",
      "id": "82722e7b-588d-4983-bf93-ff27b9953cf7",
      "identifier": [ {
        "use": "official",
        "system": "urn:oid:1.3.6.1.4.1.16517",
        "value": "100025030717-A98E9216-940F-11E3-90AC-1CC4B7D83400"
      } ],
      "status": "final",
      "category": [ {
        "coding": [ {
          "system": "http://terminology.hl7.org/CodeSystem/v2-0074",
          "code": "LAB",
          "display": "Laboratory"
        } ]
      } ],
      "code": {
        "coding": [ {
          "system": "http://loinc.org",
          "code": "3094-0",
          "display": "Urea nitrogen [Mass/volume] in Serum or Plasma"
        } ]
      },
      "subject": {
        "reference": "Patient/3b438731-377f-4c2d-b24e-e25f634b00b1",
        "display": "ONETEST BWHCKDRISKTEST"
      },
      "result": [ {
        "reference": "Observation/15463025-dce9-4afd-a251-221de2cc82ae",
        "display": "UREA N"
      } ]
    }
  }, {
    "resource": {
      "resourceType": "Observation",
      "id": "15463025-dce9-4afd-a251-221de2cc82ae",
      "identifier": [ {
        "use": "official",
        "system": "urn:oid:1.3.6.1.4.1.16517",
        "value": "100025030717-A98E9216-940F-11E3-90AC-1CC4B7D83400"
      } ],
      "status": "final",
      "category": [ {
        "coding": [ {
          "system": "http://terminology.hl7.org/CodeSystem/observation-category",
          "code": "laboratory"
        } ]
      } ],
      "code": {
        "coding": [ {
          "system": "http://loinc.org",
          "code": "3094-0",
          "display": "Urea nitrogen [Mass/volume] in Serum or Plasma"
        } ],
        "text": "UREA N"
      },
      "subject": {
        "reference": "Patient/3b438731-377f-4c2d-b24e-e25f634b00b1",
        "display": "ONETEST BWHCKDRISKTEST"
      },
      "effectivePeriod": {
        "start": "2014-02-11T13:54:00+01:00"
      },
      "valueQuantity": {
        "value": 14,
        "unit": "mg/dL",
        "system": "http://unitsofmeasure.org",
        "code": "mg/dL"
      },
      "referenceRange": [ {
        "text": "6-23 mg/dL"
      } ]
    }
  }, {
    "resource": {
      "resourceType": "DiagnosticReport",
      "id": "bf462628-9a4e-44a1-9c2a-d0848fb726e8",
      "identifier": [ {
        "use": "official",
        "system": "urn:oid:1.3.6.1.4.1.16517",
        "value": "100025030586-A98D8542-940F-11E3-90AC-1CC4B7D83400"
      } ],
      "status": "final",
      "category": [ {
        "coding": [ {
          "system": "http://terminology.hl7.org/CodeSystem/v2-0074",
          "code": "LAB",
          "display": "Laboratory"
        } ]
      } ],
      "code": {
        "coding": [ {
          "system": "http://loinc.org",
          "code": "1975-2",
          "display": "Bilirubin.total [Mass/volume] in Serum or Plasma"
        } ]
      },
      "subject": {
        "reference": "Patient/3b438731-377f-4c2d-b24e-e25f634b00b1",
        "display": "ONETEST BWHCKDRISKTEST"
      },
      "result": [ {
        "reference": "Observation/144f8537-d0c4-406c-831e-320a64ed74ac",
        "display": "TOT BILI"
      } ]
    }
  }, {
    "resource": {
      "resourceType": "Observation",
      "id": "144f8537-d0c4-406c-831e-320a64ed74ac",
      "identifier": [ {
        "use": "official",
        "system": "urn:oid:1.3.6.1.4.1.16517",
        "value": "100025030586-A98D8542-940F-11E3-90AC-1CC4B7D83400"
      } ],
      "status": "final",
      "category": [ {
        "coding": [ {
          "system": "http://terminology.hl7.org/CodeSystem/observation-category",
          "code": "laboratory"
        } ]
      } ],
      "code": {
        "coding": [ {
          "system": "http://loinc.org",
          "code": "1975-2",
          "display": "Bilirubin.total [Mass/volume] in Serum or Plasma"
        } ],
        "text": "TOT BILI"
      },
      "subject": {
        "reference": "Patient/3b438731-377f-4c2d-b24e-e25f634b00b1",
        "display": "ONETEST BWHCKDRISKTEST"
      },
      "effectivePeriod": {
        "start": "2014-01-30T07:57:00+01:00"
      },
      "valueQuantity": {
        "value": 0.5,
        "unit": "mg/dL",
        "system": "http://unitsofmeasure.org",
        "code": "mg/dL"
      },
      "referenceRange": [ {
        "text": "0.0-1.0 mg/dL"
      } ]
    }
  }, {
    "resource": {
      "resourceType": "DiagnosticReport",
      "id": "c5e9fa58-0451-43df-a9e7-266c359f2246",
      "identifier": [ {
        "use": "official",
        "system": "urn:oid:1.3.6.1.4.1.16517",
        "value": "100025030583-A9881FD0-940F-11E3-90AC-1CC4B7D83400"
      } ],
      "status": "final",
      "category": [ {
        "coding": [ {
          "system": "http://terminology.hl7.org/CodeSystem/v2-0074",
          "code": "LAB",
          "display": "Laboratory"
        } ]
      } ],
      "code": {
        "coding": [ {
          "system": "http://loinc.org",
          "code": "1742-6",
          "display": "Alanine aminotransferase [Enzymatic activity/volume] in Serum or Plasma"
        } ]
      },
      "subject": {
        "reference": "Patient/3b438731-377f-4c2d-b24e-e25f634b00b1",
        "display": "ONETEST BWHCKDRISKTEST"
      },
      "result": [ {
        "reference": "Observation/a142d9aa-14ce-4ed7-9398-fd0bd2701cff",
        "display": "ALT/GPT"
      } ]
    }
  }, {
    "resource": {
      "resourceType": "Observation",
      "id": "a142d9aa-14ce-4ed7-9398-fd0bd2701cff",
      "identifier": [ {
        "use": "official",
        "system": "urn:oid:1.3.6.1.4.1.16517",
        "value": "100025030583-A9881FD0-940F-11E3-90AC-1CC4B7D83400"
      } ],
      "status": "final",
      "category": [ {
        "coding": [ {
          "system": "http://terminology.hl7.org/CodeSystem/observation-category",
          "code": "laboratory"
        } ]
      } ],
      "code": {
        "coding": [ {
          "system": "http://loinc.org",
          "code": "1742-6",
          "display": "Alanine aminotransferase [Enzymatic activity/volume] in Serum or Plasma"
        } ],
        "text": "ALT/GPT"
      },
      "subject": {
        "reference": "Patient/3b438731-377f-4c2d-b24e-e25f634b00b1",
        "display": "ONETEST BWHCKDRISKTEST"
      },
      "effectivePeriod": {
        "start": "2014-01-30T07:57:00+01:00"
      },
      "valueQuantity": {
        "value": 64,
        "unit": "U/L",
        "system": "http://unitsofmeasure.org",
        "code": "U/L"
      },
      "referenceRange": [ {
        "text": "10-50 U/L"
      } ]
    }
  }, {
    "resource": {
      "resourceType": "DiagnosticReport",
      "id": "a60c9d2c-e160-4e30-9f9e-e118bd78b5b2",
      "identifier": [ {
        "use": "official",
        "system": "urn:oid:1.3.6.1.4.1.16517",
        "value": "100025030640-A99358FA-940F-11E3-90AC-1CC4B7D83400"
      } ],
      "status": "final",
      "category": [ {
        "coding": [ {
          "system": "http://terminology.hl7.org/CodeSystem/v2-0074",
          "code": "LAB",
          "display": "Laboratory"
        } ]
      } ],
      "code": {
        "coding": [ {
          "system": "http://loinc.org",
          "code": "33914-3",
          "display": "Glomerular filtration rate/1.73 sq M.predicted by Creatinine-based formula (MDRD)"
        } ]
      },
      "subject": {
        "reference": "Patient/3b438731-377f-4c2d-b24e-e25f634b00b1",
        "display": "ONETEST BWHCKDRISKTEST"
      },
      "result": [ {
        "reference": "Observation/caaa3a91-f865-4b3e-a8d1-558c584cf08c",
        "display": "eGFR"
      } ]
    }
  }, {
    "resource": {
      "resourceType": "Observation",
      "id": "caaa3a91-f865-4b3e-a8d1-558c584cf08c",
      "identifier": [ {
        "use": "official",
        "system": "urn:oid:1.3.6.1.4.1.16517",
        "value": "100025030640-A99358FA-940F-11E3-90AC-1CC4B7D83400"
      } ],
      "status": "final",
      "category": [ {
        "coding": [ {
          "system": "http://terminology.hl7.org/CodeSystem/observation-category",
          "code": "laboratory"
        } ]
      } ],
      "code": {
        "coding": [ {
          "system": "http://loinc.org",
          "code": "33914-3",
          "display": "Glomerular filtration rate/1.73 sq M.predicted by Creatinine-based formula (MDRD)"
        } ],
        "text": "eGFR"
      },
      "subject": {
        "reference": "Patient/3b438731-377f-4c2d-b24e-e25f634b00b1",
        "display": "ONETEST BWHCKDRISKTEST"
      },
      "effectivePeriod": {
        "start": "2014-02-10T10:00:00+01:00"
      },
      "valueQuantity": {
        "value": 40,
        "unit": "1",
        "system": "http://unitsofmeasure.org",
        "code": "1"
      }
    }
  }, {
    "resource": {
      "resourceType": "DiagnosticReport",
      "id": "dc1daf0d-367e-41c9-8084-faf8af854bcc",
      "identifier": [ {
        "use": "official",
        "system": "urn:oid:1.3.6.1.4.1.16517",
        "value": "100025030632-A992DCF4-940F-11E3-90AC-1CC4B7D83400"
      } ],
      "category": [ {
        "coding": [ {
          "system": "http://terminology.hl7.org/CodeSystem/v2-0074",
          "code": "LAB",
          "display": "Laboratory"
        } ]
      } ],
      "code": {
        "coding": [ {
          "system": "http://loinc.org",
          "code": "13362-9",
          "display": "Collection duration of Urine"
        } ]
      },
      "subject": {
        "reference": "Patient/3b438731-377f-4c2d-b24e-e25f634b00b1",
        "display": "ONETEST BWHCKDRISKTEST"
      },
      "result": [ {
        "reference": "Observation/4f79b137-e66b-48a0-b758-157318d1dc79",
        "display": "TIME SPAN"
      } ]
    }
  }, {
    "resource": {
      "resourceType": "Observation",
      "id": "4f79b137-e66b-48a0-b758-157318d1dc79",
      "identifier": [ {
        "use": "official",
        "system": "urn:oid:1.3.6.1.4.1.16517",
        "value": "100025030632-A992DCF4-940F-11E3-90AC-1CC4B7D83400"
      } ],
      "category": [ {
        "coding": [ {
          "system": "http://terminology.hl7.org/CodeSystem/observation-category",
          "code": "laboratory"
        } ]
      } ],
      "code": {
        "coding": [ {
          "system": "http://loinc.org",
          "code": "13362-9",
          "display": "Collection duration of Urine"
        } ],
        "text": "TIME SPAN"
      },
      "subject": {
        "reference": "Patient/3b438731-377f-4c2d-b24e-e25f634b00b1",
        "display": "ONETEST BWHCKDRISKTEST"
      },
      "effectivePeriod": {
        "start": "2014-02-10T09:30:00+01:00"
      },
      "valueString": "RANDOM"
    }
  }, {
    "resource": {
      "resourceType": "DiagnosticReport",
      "id": "cb1c0d06-53b4-4086-a1fc-961effa4c9d2",
      "identifier": [ {
        "use": "official",
        "system": "urn:oid:1.3.6.1.4.1.16517",
        "value": "100025030576-A98EBD54-940F-11E3-90AC-1CC4B7D83400"
      } ],
      "status": "final",
      "category": [ {
        "coding": [ {
          "system": "http://terminology.hl7.org/CodeSystem/v2-0074",
          "code": "LAB",
          "display": "Laboratory"
        } ]
      } ],
      "code": {
        "coding": [ {
          "system": "http://loinc.org",
          "code": "3094-0",
          "display": "Urea nitrogen [Mass/volume] in Serum or Plasma"
        } ]
      },
      "subject": {
        "reference": "Patient/3b438731-377f-4c2d-b24e-e25f634b00b1",
        "display": "ONETEST BWHCKDRISKTEST"
      },
      "result": [ {
        "reference": "Observation/bfccd30d-e70e-40b7-8d37-cb61f0c19368",
        "display": "UREA N"
      } ]
    }
  }, {
    "resource": {
      "resourceType": "Observation",
      "id": "bfccd30d-e70e-40b7-8d37-cb61f0c19368",
      "identifier": [ {
        "use": "official",
        "system": "urn:oid:1.3.6.1.4.1.16517",
        "value": "100025030576-A98EBD54-940F-11E3-90AC-1CC4B7D83400"
      } ],
      "status": "final",
      "category": [ {
        "coding": [ {
          "system": "http://terminology.hl7.org/CodeSystem/observation-category",
          "code": "laboratory"
        } ]
      } ],
      "code": {
        "coding": [ {
          "system": "http://loinc.org",
          "code": "3094-0",
          "display": "Urea nitrogen [Mass/volume] in Serum or Plasma"
        } ],
        "text": "UREA N"
      },
      "subject": {
        "reference": "Patient/3b438731-377f-4c2d-b24e-e25f634b00b1",
        "display": "ONETEST BWHCKDRISKTEST"
      },
      "effectivePeriod": {
        "start": "2014-01-30T07:57:00+01:00"
      },
      "valueQuantity": {
        "value": 17,
        "unit": "mg/dL",
        "system": "http://unitsofmeasure.org",
        "code": "mg/dL"
      },
      "referenceRange": [ {
        "text": "6-23 mg/dL"
      } ]
    }
  }, {
    "resource": {
      "resourceType": "DiagnosticReport",
      "id": "02d463e7-0a77-45ef-9877-f78d3146500c",
      "identifier": [ {
        "use": "official",
        "system": "urn:oid:1.3.6.1.4.1.16517",
        "value": "100025030626-A99113D8-940F-11E3-90AC-1CC4B7D83400"
      } ],
      "status": "final",
      "category": [ {
        "coding": [ {
          "system": "http://terminology.hl7.org/CodeSystem/v2-0074",
          "code": "LAB",
          "display": "Laboratory"
        } ]
      } ],
      "code": {
        "coding": [ {
          "system": "http://loinc.org",
          "code": "2160-0",
          "display": "Creatinine [Mass/volume] in Serum or Plasma"
        } ]
      },
      "subject": {
        "reference": "Patient/3b438731-377f-4c2d-b24e-e25f634b00b1",
        "display": "ONETEST BWHCKDRISKTEST"
      },
      "result": [ {
        "reference": "Observation/adf320ad-eb4b-49da-96d5-eaf3687ff46b",
        "display": "CREATININE"
      } ]
    }
  }, {
    "resource": {
      "resourceType": "Observation",
      "id": "adf320ad-eb4b-49da-96d5-eaf3687ff46b",
      "identifier": [ {
        "use": "official",
        "system": "urn:oid:1.3.6.1.4.1.16517",
        "value": "100025030626-A99113D8-940F-11E3-90AC-1CC4B7D83400"
      } ],
      "status": "final",
      "category": [ {
        "coding": [ {
          "system": "http://terminology.hl7.org/CodeSystem/observation-category",
          "code": "laboratory"
        } ]
      } ],
      "code": {
        "coding": [ {
          "system": "http://loinc.org",
          "code": "2160-0",
          "display": "Creatinine [Mass/volume] in Serum or Plasma"
        } ],
        "text": "CREATININE"
      },
      "subject": {
        "reference": "Patient/3b438731-377f-4c2d-b24e-e25f634b00b1",
        "display": "ONETEST BWHCKDRISKTEST"
      },
      "effectivePeriod": {
        "start": "2014-02-10T08:22:00+01:00"
      },
      "valueQuantity": {
        "value": 1.9,
        "unit": "mg/dL",
        "system": "http://unitsofmeasure.org",
        "code": "mg/dL"
      },
      "referenceRange": [ {
        "text": "0.50-1.20 mg/dL"
      } ]
    }
  }, {
    "resource": {
      "resourceType": "DiagnosticReport",
      "id": "b7dd9088-6f43-48a9-b41f-d2d21ed5567d",
      "identifier": [ {
        "use": "official",
        "system": "urn:oid:1.3.6.1.4.1.16517",
        "value": "100025030590-A9906D7A-940F-11E3-90AC-1CC4B7D83400"
      } ],
      "status": "final",
      "category": [ {
        "coding": [ {
          "system": "http://terminology.hl7.org/CodeSystem/v2-0074",
          "code": "LAB",
          "display": "Laboratory"
        } ]
      } ],
      "code": {
        "coding": [ {
          "system": "http://loinc.org",
          "code": "17861-6",
          "display": "Calcium [Mass/volume] in Serum or Plasma"
        } ]
      },
      "subject": {
        "reference": "Patient/3b438731-377f-4c2d-b24e-e25f634b00b1",
        "display": "ONETEST BWHCKDRISKTEST"
      },
      "result": [ {
        "reference": "Observation/8f390242-05c5-446b-9fde-e85d1980dc2f",
        "display": "CALCIUM"
      } ]
    }
  }, {
    "resource": {
      "resourceType": "Observation",
      "id": "8f390242-05c5-446b-9fde-e85d1980dc2f",
      "identifier": [ {
        "use": "official",
        "system": "urn:oid:1.3.6.1.4.1.16517",
        "value": "100025030590-A9906D7A-940F-11E3-90AC-1CC4B7D83400"
      } ],
      "status": "final",
      "category": [ {
        "coding": [ {
          "system": "http://terminology.hl7.org/CodeSystem/observation-category",
          "code": "laboratory"
        } ]
      } ],
      "code": {
        "coding": [ {
          "system": "http://loinc.org",
          "code": "17861-6",
          "display": "Calcium [Mass/volume] in Serum or Plasma"
        } ],
        "text": "CALCIUM"
      },
      "subject": {
        "reference": "Patient/3b438731-377f-4c2d-b24e-e25f634b00b1",
        "display": "ONETEST BWHCKDRISKTEST"
      },
      "effectivePeriod": {
        "start": "2014-01-30T07:57:00+01:00"
      },
      "valueQuantity": {
        "value": 10.1,
        "unit": "mg/dL",
        "system": "http://unitsofmeasure.org",
        "code": "mg/dL"
      },
      "referenceRange": [ {
        "text": "8.8-10.7 mg/dL"
      } ]
    }
  }, {
    "resource": {
      "resourceType": "DiagnosticReport",
      "id": "812286dc-cbf7-4759-8ff9-ad1329ac25b1",
      "identifier": [ {
        "use": "official",
        "system": "urn:oid:1.3.6.1.4.1.16517",
        "value": "100025030628-A9904A98-940F-11E3-90AC-1CC4B7D83400"
      } ],
      "status": "final",
      "category": [ {
        "coding": [ {
          "system": "http://terminology.hl7.org/CodeSystem/v2-0074",
          "code": "LAB",
          "display": "Laboratory"
        } ]
      } ],
      "code": {
        "coding": [ {
          "system": "http://loinc.org",
          "code": "17861-6",
          "display": "Calcium [Mass/volume] in Serum or Plasma"
        } ]
      },
      "subject": {
        "reference": "Patient/3b438731-377f-4c2d-b24e-e25f634b00b1",
        "display": "ONETEST BWHCKDRISKTEST"
      },
      "result": [ {
        "reference": "Observation/f13eb568-7962-4a9e-8f29-92c40638e4bb",
        "display": "CALCIUM"
      } ]
    }
  }, {
    "resource": {
      "resourceType": "Observation",
      "id": "f13eb568-7962-4a9e-8f29-92c40638e4bb",
      "identifier": [ {
        "use": "official",
        "system": "urn:oid:1.3.6.1.4.1.16517",
        "value": "100025030628-A9904A98-940F-11E3-90AC-1CC4B7D83400"
      } ],
      "status": "final",
      "category": [ {
        "coding": [ {
          "system": "http://terminology.hl7.org/CodeSystem/observation-category",
          "code": "laboratory"
        } ]
      } ],
      "code": {
        "coding": [ {
          "system": "http://loinc.org",
          "code": "17861-6",
          "display": "Calcium [Mass/volume] in Serum or Plasma"
        } ],
        "text": "CALCIUM"
      },
      "subject": {
        "reference": "Patient/3b438731-377f-4c2d-b24e-e25f634b00b1",
        "display": "ONETEST BWHCKDRISKTEST"
      },
      "effectivePeriod": {
        "start": "2014-02-10T08:22:00+01:00"
      },
      "valueQuantity": {
        "value": 8.8,
        "unit": "mg/dL",
        "system": "http://unitsofmeasure.org",
        "code": "mg/dL"
      },
      "referenceRange": [ {
        "text": "8.8-10.7 mg/dL"
      } ]
    }
  }, {
    "resource": {
      "resourceType": "DiagnosticReport",
      "id": "98c64bbe-8d01-438e-b82f-b182c989141b",
      "identifier": [ {
        "use": "official",
        "system": "urn:oid:1.3.6.1.4.1.16517",
        "value": "100025030630-A98E0FA8-940F-11E3-90AC-1CC4B7D83400"
      } ],
      "status": "final",
      "category": [ {
        "coding": [ {
          "system": "http://terminology.hl7.org/CodeSystem/v2-0074",
          "code": "LAB",
          "display": "Laboratory"
        } ]
      } ],
      "code": {
        "coding": [ {
          "system": "http://loinc.org",
          "code": "1751-7",
          "display": "Albumin [Mass/volume] in Serum or Plasma"
        } ]
      },
      "subject": {
        "reference": "Patient/3b438731-377f-4c2d-b24e-e25f634b00b1",
        "display": "ONETEST BWHCKDRISKTEST"
      },
      "result": [ {
        "reference": "Observation/ccaabd02-4b60-4513-95a6-e4315b7363cb",
        "display": "ALBUMIN"
      } ]
    }
  }, {
    "resource": {
      "resourceType": "Observation",
      "id": "ccaabd02-4b60-4513-95a6-e4315b7363cb",
      "identifier": [ {
        "use": "official",
        "system": "urn:oid:1.3.6.1.4.1.16517",
        "value": "100025030630-A98E0FA8-940F-11E3-90AC-1CC4B7D83400"
      } ],
      "status": "final",
      "category": [ {
        "coding": [ {
          "system": "http://terminology.hl7.org/CodeSystem/observation-category",
          "code": "laboratory"
        } ]
      } ],
      "code": {
        "coding": [ {
          "system": "http://loinc.org",
          "code": "1751-7",
          "display": "Albumin [Mass/volume] in Serum or Plasma"
        } ],
        "text": "ALBUMIN"
      },
      "subject": {
        "reference": "Patient/3b438731-377f-4c2d-b24e-e25f634b00b1",
        "display": "ONETEST BWHCKDRISKTEST"
      },
      "effectivePeriod": {
        "start": "2014-02-10T08:22:00+01:00"
      },
      "valueQuantity": {
        "value": 3.9,
        "unit": "g/dL",
        "system": "http://unitsofmeasure.org",
        "code": "g/dL"
      },
      "referenceRange": [ {
        "text": "3.5-5.2 g/dL"
      } ]
    }
  }, {
    "resource": {
      "resourceType": "DiagnosticReport",
      "id": "b38a7157-bb91-423b-9831-c9f189932013",
      "identifier": [ {
        "use": "official",
        "system": "urn:oid:1.3.6.1.4.1.16517",
        "value": "100025030575-A9918D36-940F-11E3-90AC-1CC4B7D83400"
      } ],
      "status": "final",
      "category": [ {
        "coding": [ {
          "system": "http://terminology.hl7.org/CodeSystem/v2-0074",
          "code": "LAB",
          "display": "Laboratory"
        } ]
      } ],
      "code": {
        "coding": [ {
          "system": "http://loinc.org",
          "code": "6777-7",
          "display": "Deprecated Glucose [Mass/volume] in Serum or Plasma"
        } ]
      },
      "subject": {
        "reference": "Patient/3b438731-377f-4c2d-b24e-e25f634b00b1",
        "display": "ONETEST BWHCKDRISKTEST"
      },
      "result": [ {
        "reference": "Observation/113abc5f-2bf3-4372-b077-b4c4d7e2803a",
        "display": "GLUCOSE"
      } ]
    }
  }, {
    "resource": {
      "resourceType": "Observation",
      "id": "113abc5f-2bf3-4372-b077-b4c4d7e2803a",
      "identifier": [ {
        "use": "official",
        "system": "urn:oid:1.3.6.1.4.1.16517",
        "value": "100025030575-A9918D36-940F-11E3-90AC-1CC4B7D83400"
      } ],
      "status": "final",
      "category": [ {
        "coding": [ {
          "system": "http://terminology.hl7.org/CodeSystem/observation-category",
          "code": "laboratory"
        } ]
      } ],
      "code": {
        "coding": [ {
          "system": "http://loinc.org",
          "code": "6777-7",
          "display": "Deprecated Glucose [Mass/volume] in Serum or Plasma"
        } ],
        "text": "GLUCOSE"
      },
      "subject": {
        "reference": "Patient/3b438731-377f-4c2d-b24e-e25f634b00b1",
        "display": "ONETEST BWHCKDRISKTEST"
      },
      "effectivePeriod": {
        "start": "2014-01-30T07:57:00+01:00"
      },
      "valueQuantity": {
        "value": 136,
        "unit": "mg/dL",
        "system": "http://unitsofmeasure.org",
        "code": "mg/dL"
      },
      "referenceRange": [ {
        "text": "70-100 mg/dL"
      } ]
    }
  }, {
    "resource": {
      "resourceType": "DiagnosticReport",
      "id": "1e71e1c9-515e-487e-92e5-9f201069cce0",
      "identifier": [ {
        "use": "official",
        "system": "urn:oid:1.3.6.1.4.1.16517",
        "value": "100025030719-A97875DA-940F-11E3-90AC-1CC4B7D83400"
      } ],
      "status": "final",
      "category": [ {
        "coding": [ {
          "system": "http://terminology.hl7.org/CodeSystem/v2-0074",
          "code": "LAB",
          "display": "Laboratory"
        } ]
      } ],
      "code": {
        "coding": [ {
          "system": "http://loinc.org",
          "code": "2951-2",
          "display": "Sodium [Moles/volume] in Serum or Plasma"
        } ]
      },
      "subject": {
        "reference": "Patient/3b438731-377f-4c2d-b24e-e25f634b00b1",
        "display": "ONETEST BWHCKDRISKTEST"
      },
      "result": [ {
        "reference": "Observation/efc72961-b936-4503-b6a3-26af9b60f93d",
        "display": "SODIUM"
      } ]
    }
  }, {
    "resource": {
      "resourceType": "Observation",
      "id": "efc72961-b936-4503-b6a3-26af9b60f93d",
      "identifier": [ {
        "use": "official",
        "system": "urn:oid:1.3.6.1.4.1.16517",
        "value": "100025030719-A97875DA-940F-11E3-90AC-1CC4B7D83400"
      } ],
      "status": "final",
      "category": [ {
        "coding": [ {
          "system": "http://terminology.hl7.org/CodeSystem/observation-category",
          "code": "laboratory"
        } ]
      } ],
      "code": {
        "coding": [ {
          "system": "http://loinc.org",
          "code": "2951-2",
          "display": "Sodium [Moles/volume] in Serum or Plasma"
        } ],
        "text": "SODIUM"
      },
      "subject": {
        "reference": "Patient/3b438731-377f-4c2d-b24e-e25f634b00b1",
        "display": "ONETEST BWHCKDRISKTEST"
      },
      "effectivePeriod": {
        "start": "2014-02-11T13:54:00+01:00"
      },
      "valueQuantity": {
        "value": 141,
        "unit": "mmol/L",
        "system": "http://unitsofmeasure.org",
        "code": "mmol/L"
      },
      "referenceRange": [ {
        "text": "136-145 mmol/L"
      } ]
    }
  }, {
    "resource": {
      "resourceType": "DiagnosticReport",
      "id": "b37267c9-d318-4f59-99b1-d275eebd19ee",
      "identifier": [ {
        "use": "official",
        "system": "urn:oid:1.3.6.1.4.1.16517",
        "value": "100025030589-A98E6912-940F-11E3-90AC-1CC4B7D83400"
      } ],
      "status": "final",
      "category": [ {
        "coding": [ {
          "system": "http://terminology.hl7.org/CodeSystem/v2-0074",
          "code": "LAB",
          "display": "Laboratory"
        } ]
      } ],
      "code": {
        "coding": [ {
          "system": "http://loinc.org",
          "code": "2336-6",
          "display": "Globulin [Mass/volume] in Serum"
        } ]
      },
      "subject": {
        "reference": "Patient/3b438731-377f-4c2d-b24e-e25f634b00b1",
        "display": "ONETEST BWHCKDRISKTEST"
      },
      "result": [ {
        "reference": "Observation/1e178667-fcf0-499d-946b-ae2ad85357d3",
        "display": "GLOBULIN"
      } ]
    }
  }, {
    "resource": {
      "resourceType": "Observation",
      "id": "1e178667-fcf0-499d-946b-ae2ad85357d3",
      "identifier": [ {
        "use": "official",
        "system": "urn:oid:1.3.6.1.4.1.16517",
        "value": "100025030589-A98E6912-940F-11E3-90AC-1CC4B7D83400"
      } ],
      "status": "final",
      "category": [ {
        "coding": [ {
          "system": "http://terminology.hl7.org/CodeSystem/observation-category",
          "code": "laboratory"
        } ]
      } ],
      "code": {
        "coding": [ {
          "system": "http://loinc.org",
          "code": "2336-6",
          "display": "Globulin [Mass/volume] in Serum"
        } ],
        "text": "GLOBULIN"
      },
      "subject": {
        "reference": "Patient/3b438731-377f-4c2d-b24e-e25f634b00b1",
        "display": "ONETEST BWHCKDRISKTEST"
      },
      "effectivePeriod": {
        "start": "2014-01-30T07:57:00+01:00"
      },
      "valueQuantity": {
        "value": 2.7,
        "unit": "g/dL",
        "system": "http://unitsofmeasure.org",
        "code": "g/dL"
      },
      "referenceRange": [ {
        "text": "2.0-4.0 g/dL"
      } ]
    }
  }, {
    "resource": {
      "resourceType": "DiagnosticReport",
      "id": "85685c82-c35a-4c37-95d6-621e77922a03",
      "identifier": [ {
        "use": "official",
        "system": "urn:oid:1.3.6.1.4.1.16517",
        "value": "100025030631-A9930224-940F-11E3-90AC-1CC4B7D83400"
      } ],
      "status": "final",
      "category": [ {
        "coding": [ {
          "system": "http://terminology.hl7.org/CodeSystem/v2-0074",
          "code": "LAB",
          "display": "Laboratory"
        } ]
      } ],
      "code": {
        "coding": [ {
          "system": "http://loinc.org",
          "code": "14627-4",
          "display": "Bicarbonate [Moles/volume] in Venous blood"
        } ]
      },
      "subject": {
        "reference": "Patient/3b438731-377f-4c2d-b24e-e25f634b00b1",
        "display": "ONETEST BWHCKDRISKTEST"
      },
      "result": [ {
        "reference": "Observation/b93fa9de-2a21-4749-b02e-0b050ed2bf9f",
        "display": "vHCO3"
      } ]
    }
  }, {
    "resource": {
      "resourceType": "Observation",
      "id": "b93fa9de-2a21-4749-b02e-0b050ed2bf9f",
      "identifier": [ {
        "use": "official",
        "system": "urn:oid:1.3.6.1.4.1.16517",
        "value": "100025030631-A9930224-940F-11E3-90AC-1CC4B7D83400"
      } ],
      "status": "final",
      "category": [ {
        "coding": [ {
          "system": "http://terminology.hl7.org/CodeSystem/observation-category",
          "code": "laboratory"
        } ]
      } ],
      "code": {
        "coding": [ {
          "system": "http://loinc.org",
          "code": "14627-4",
          "display": "Bicarbonate [Moles/volume] in Venous blood"
        } ],
        "text": "vHCO3"
      },
      "subject": {
        "reference": "Patient/3b438731-377f-4c2d-b24e-e25f634b00b1",
        "display": "ONETEST BWHCKDRISKTEST"
      },
      "effectivePeriod": {
        "start": "2014-02-10T08:22:00+01:00"
      },
      "valueQuantity": {
        "value": 22,
        "unit": "mEq/L",
        "system": "http://unitsofmeasure.org",
        "code": "mEq/L"
      },
      "referenceRange": [ {
        "text": "25.9-30.0 mEq/L"
      } ]
    }
  }, {
    "resource": {
      "resourceType": "DiagnosticReport",
      "id": "b70b4205-40f3-435e-a05b-63009bdf9614",
      "identifier": [ {
        "use": "official",
        "system": "urn:oid:1.3.6.1.4.1.16517",
        "value": "100025030582-A992645E-940F-11E3-90AC-1CC4B7D83400"
      } ],
      "status": "final",
      "category": [ {
        "coding": [ {
          "system": "http://terminology.hl7.org/CodeSystem/v2-0074",
          "code": "LAB",
          "display": "Laboratory"
        } ]
      } ],
      "code": {
        "coding": [ {
          "system": "http://loinc.org",
          "code": "10466-1",
          "display": "Anion gap 3 in Serum or Plasma"
        } ]
      },
      "subject": {
        "reference": "Patient/3b438731-377f-4c2d-b24e-e25f634b00b1",
        "display": "ONETEST BWHCKDRISKTEST"
      },
      "result": [ {
        "reference": "Observation/ff58dded-9ae4-4ffd-a342-b00bb0b8e96b",
        "display": "ANION GAP"
      } ]
    }
  }, {
    "resource": {
      "resourceType": "Observation",
      "id": "ff58dded-9ae4-4ffd-a342-b00bb0b8e96b",
      "identifier": [ {
        "use": "official",
        "system": "urn:oid:1.3.6.1.4.1.16517",
        "value": "100025030582-A992645E-940F-11E3-90AC-1CC4B7D83400"
      } ],
      "status": "final",
      "category": [ {
        "coding": [ {
          "system": "http://terminology.hl7.org/CodeSystem/observation-category",
          "code": "laboratory"
        } ]
      } ],
      "code": {
        "coding": [ {
          "system": "http://loinc.org",
          "code": "10466-1",
          "display": "Anion gap 3 in Serum or Plasma"
        } ],
        "text": "ANION GAP"
      },
      "subject": {
        "reference": "Patient/3b438731-377f-4c2d-b24e-e25f634b00b1",
        "display": "ONETEST BWHCKDRISKTEST"
      },
      "effectivePeriod": {
        "start": "2014-01-30T07:57:00+01:00"
      },
      "valueQuantity": {
        "value": 11,
        "unit": "mmol/L",
        "system": "http://unitsofmeasure.org",
        "code": "mmol/L"
      },
      "referenceRange": [ {
        "text": "5-17 mmol/L"
      } ]
    }
  }, {
    "resource": {
      "resourceType": "DiagnosticReport",
      "id": "2b40f728-8481-41d0-8721-88969fee3b6b",
      "identifier": [ {
        "use": "official",
        "system": "urn:oid:1.3.6.1.4.1.16517",
        "value": "100025030721-A979220A-940F-11E3-90AC-1CC4B7D83400"
      } ],
      "status": "final",
      "category": [ {
        "coding": [ {
          "system": "http://terminology.hl7.org/CodeSystem/v2-0074",
          "code": "LAB",
          "display": "Laboratory"
        } ]
      } ],
      "code": {
        "coding": [ {
          "system": "http://loinc.org",
          "code": "2075-0",
          "display": "Chloride [Moles/volume] in Serum or Plasma"
        } ]
      },
      "subject": {
        "reference": "Patient/3b438731-377f-4c2d-b24e-e25f634b00b1",
        "display": "ONETEST BWHCKDRISKTEST"
      },
      "result": [ {
        "reference": "Observation/904cee56-4a6e-4f2c-9012-0228b92aad1c",
        "display": "CHLORIDE"
      } ]
    }
  }, {
    "resource": {
      "resourceType": "Observation",
      "id": "904cee56-4a6e-4f2c-9012-0228b92aad1c",
      "identifier": [ {
        "use": "official",
        "system": "urn:oid:1.3.6.1.4.1.16517",
        "value": "100025030721-A979220A-940F-11E3-90AC-1CC4B7D83400"
      } ],
      "status": "final",
      "category": [ {
        "coding": [ {
          "system": "http://terminology.hl7.org/CodeSystem/observation-category",
          "code": "laboratory"
        } ]
      } ],
      "code": {
        "coding": [ {
          "system": "http://loinc.org",
          "code": "2075-0",
          "display": "Chloride [Moles/volume] in Serum or Plasma"
        } ],
        "text": "CHLORIDE"
      },
      "subject": {
        "reference": "Patient/3b438731-377f-4c2d-b24e-e25f634b00b1",
        "display": "ONETEST BWHCKDRISKTEST"
      },
      "effectivePeriod": {
        "start": "2014-02-11T13:54:00+01:00"
      },
      "valueQuantity": {
        "value": 103,
        "unit": "mmol/L",
        "system": "http://unitsofmeasure.org",
        "code": "mmol/L"
      },
      "referenceRange": [ {
        "text": "98-107 mmol/L"
      } ]
    }
  }, {
    "resource": {
      "resourceType": "DiagnosticReport",
      "id": "dd31fe29-170b-447c-a5fe-87f73188f961",
      "identifier": [ {
        "use": "official",
        "system": "urn:oid:1.3.6.1.4.1.16517",
        "value": "100025030629-A991E1C8-940F-11E3-90AC-1CC4B7D83400"
      } ],
      "status": "final",
      "category": [ {
        "coding": [ {
          "system": "http://terminology.hl7.org/CodeSystem/v2-0074",
          "code": "LAB",
          "display": "Laboratory"
        } ]
      } ],
      "code": {
        "coding": [ {
          "system": "http://loinc.org",
          "code": "2777-1",
          "display": "Phosphate [Mass/volume] in Serum or Plasma"
        } ]
      },
      "subject": {
        "reference": "Patient/3b438731-377f-4c2d-b24e-e25f634b00b1",
        "display": "ONETEST BWHCKDRISKTEST"
      },
      "result": [ {
        "reference": "Observation/6ffc9ff8-e9a4-481b-a4e3-06707d576396",
        "display": "PHOSPHATE"
      } ]
    }
  }, {
    "resource": {
      "resourceType": "Observation",
      "id": "6ffc9ff8-e9a4-481b-a4e3-06707d576396",
      "identifier": [ {
        "use": "official",
        "system": "urn:oid:1.3.6.1.4.1.16517",
        "value": "100025030629-A991E1C8-940F-11E3-90AC-1CC4B7D83400"
      } ],
      "status": "final",
      "category": [ {
        "coding": [ {
          "system": "http://terminology.hl7.org/CodeSystem/observation-category",
          "code": "laboratory"
        } ]
      } ],
      "code": {
        "coding": [ {
          "system": "http://loinc.org",
          "code": "2777-1",
          "display": "Phosphate [Mass/volume] in Serum or Plasma"
        } ],
        "text": "PHOSPHATE"
      },
      "subject": {
        "reference": "Patient/3b438731-377f-4c2d-b24e-e25f634b00b1",
        "display": "ONETEST BWHCKDRISKTEST"
      },
      "effectivePeriod": {
        "start": "2014-02-10T08:22:00+01:00"
      },
      "valueQuantity": {
        "value": 5.1,
        "unit": "mg/dL",
        "system": "http://unitsofmeasure.org",
        "code": "mg/dL"
      },
      "referenceRange": [ {
        "text": "2.4-4.3 mg/dL"
      } ]
    }
  }, {
    "resource": {
      "resourceType": "DiagnosticReport",
      "id": "dd72c0ee-be6a-4658-bb25-3e3399858680",
      "identifier": [ {
        "use": "official",
        "system": "urn:oid:1.3.6.1.4.1.16517",
        "value": "100025030585-A98D5F2C-940F-11E3-90AC-1CC4B7D83400"
      } ],
      "status": "final",
      "category": [ {
        "coding": [ {
          "system": "http://terminology.hl7.org/CodeSystem/v2-0074",
          "code": "LAB",
          "display": "Laboratory"
        } ]
      } ],
      "code": {
        "coding": [ {
          "system": "http://loinc.org",
          "code": "6768-6",
          "display": "Alkaline phosphatase [Enzymatic activity/volume] in Serum or Plasma"
        } ]
      },
      "subject": {
        "reference": "Patient/3b438731-377f-4c2d-b24e-e25f634b00b1",
        "display": "ONETEST BWHCKDRISKTEST"
      },
      "result": [ {
        "reference": "Observation/f79c6e50-333d-4c95-a014-cb5140328bc9",
        "display": "ALK PHOS"
      } ]
    }
  }, {
    "resource": {
      "resourceType": "Observation",
      "id": "f79c6e50-333d-4c95-a014-cb5140328bc9",
      "identifier": [ {
        "use": "official",
        "system": "urn:oid:1.3.6.1.4.1.16517",
        "value": "100025030585-A98D5F2C-940F-11E3-90AC-1CC4B7D83400"
      } ],
      "status": "final",
      "category": [ {
        "coding": [ {
          "system": "http://terminology.hl7.org/CodeSystem/observation-category",
          "code": "laboratory"
        } ]
      } ],
      "code": {
        "coding": [ {
          "system": "http://loinc.org",
          "code": "6768-6",
          "display": "Alkaline phosphatase [Enzymatic activity/volume] in Serum or Plasma"
        } ],
        "text": "ALK PHOS"
      },
      "subject": {
        "reference": "Patient/3b438731-377f-4c2d-b24e-e25f634b00b1",
        "display": "ONETEST BWHCKDRISKTEST"
      },
      "effectivePeriod": {
        "start": "2014-01-30T07:57:00+01:00"
      },
      "valueQuantity": {
        "value": 94,
        "unit": "U/L",
        "system": "http://unitsofmeasure.org",
        "code": "U/L"
      },
      "referenceRange": [ {
        "text": "35-130 U/L"
      } ]
    }
  }, {
    "resource": {
      "resourceType": "DiagnosticReport",
      "id": "0c0843f6-107a-4a9b-a3ca-7492544db1d3",
      "identifier": [ {
        "use": "official",
        "system": "urn:oid:1.3.6.1.4.1.16517",
        "value": "100025030643-A991BA36-940F-11E3-90AC-1CC4B7D83400"
      } ],
      "status": "final",
      "category": [ {
        "coding": [ {
          "system": "http://terminology.hl7.org/CodeSystem/v2-0074",
          "code": "LAB",
          "display": "Laboratory"
        } ]
      } ],
      "code": {
        "coding": [ {
          "system": "http://loinc.org",
          "code": "2777-1",
          "display": "Phosphate [Mass/volume] in Serum or Plasma"
        } ]
      },
      "subject": {
        "reference": "Patient/3b438731-377f-4c2d-b24e-e25f634b00b1",
        "display": "ONETEST BWHCKDRISKTEST"
      },
      "result": [ {
        "reference": "Observation/81173784-69d5-4762-94ed-067c9aa48105",
        "display": "PHOSPHATE"
      } ]
    }
  }, {
    "resource": {
      "resourceType": "Observation",
      "id": "81173784-69d5-4762-94ed-067c9aa48105",
      "identifier": [ {
        "use": "official",
        "system": "urn:oid:1.3.6.1.4.1.16517",
        "value": "100025030643-A991BA36-940F-11E3-90AC-1CC4B7D83400"
      } ],
      "status": "final",
      "category": [ {
        "coding": [ {
          "system": "http://terminology.hl7.org/CodeSystem/observation-category",
          "code": "laboratory"
        } ]
      } ],
      "code": {
        "coding": [ {
          "system": "http://loinc.org",
          "code": "2777-1",
          "display": "Phosphate [Mass/volume] in Serum or Plasma"
        } ],
        "text": "PHOSPHATE"
      },
      "subject": {
        "reference": "Patient/3b438731-377f-4c2d-b24e-e25f634b00b1",
        "display": "ONETEST BWHCKDRISKTEST"
      },
      "effectivePeriod": {
        "start": "2014-02-10T10:00:00+01:00"
      },
      "valueQuantity": {
        "value": 5.1,
        "unit": "mg/dL",
        "system": "http://unitsofmeasure.org",
        "code": "mg/dL"
      },
      "referenceRange": [ {
        "text": "2.4-4.3 mg/dL"
      } ]
    }
  }, {
    "resource": {
      "resourceType": "DiagnosticReport",
      "id": "c962b046-91ea-4cf5-a2a9-db9c5fb0700e",
      "identifier": [ {
        "use": "official",
        "system": "urn:oid:1.3.6.1.4.1.16517",
        "value": "100025030588-A98E3848-940F-11E3-90AC-1CC4B7D83400"
      } ],
      "status": "final",
      "category": [ {
        "coding": [ {
          "system": "http://terminology.hl7.org/CodeSystem/v2-0074",
          "code": "LAB",
          "display": "Laboratory"
        } ]
      } ],
      "code": {
        "coding": [ {
          "system": "http://loinc.org",
          "code": "1751-7",
          "display": "Albumin [Mass/volume] in Serum or Plasma"
        } ]
      },
      "subject": {
        "reference": "Patient/3b438731-377f-4c2d-b24e-e25f634b00b1",
        "display": "ONETEST BWHCKDRISKTEST"
      },
      "result": [ {
        "reference": "Observation/a6cdcfae-434e-47f2-87f9-0292946d3fa9",
        "display": "ALBUMIN"
      } ]
    }
  }, {
    "resource": {
      "resourceType": "Observation",
      "id": "a6cdcfae-434e-47f2-87f9-0292946d3fa9",
      "identifier": [ {
        "use": "official",
        "system": "urn:oid:1.3.6.1.4.1.16517",
        "value": "100025030588-A98E3848-940F-11E3-90AC-1CC4B7D83400"
      } ],
      "status": "final",
      "category": [ {
        "coding": [ {
          "system": "http://terminology.hl7.org/CodeSystem/observation-category",
          "code": "laboratory"
        } ]
      } ],
      "code": {
        "coding": [ {
          "system": "http://loinc.org",
          "code": "1751-7",
          "display": "Albumin [Mass/volume] in Serum or Plasma"
        } ],
        "text": "ALBUMIN"
      },
      "subject": {
        "reference": "Patient/3b438731-377f-4c2d-b24e-e25f634b00b1",
        "display": "ONETEST BWHCKDRISKTEST"
      },
      "effectivePeriod": {
        "start": "2014-01-30T07:57:00+01:00"
      },
      "valueQuantity": {
        "value": 4.1,
        "unit": "g/dL",
        "system": "http://unitsofmeasure.org",
        "code": "g/dL"
      },
      "referenceRange": [ {
        "text": "3.5-5.2 g/dL"
      } ]
    }
  }, {
    "resource": {
      "resourceType": "DiagnosticReport",
      "id": "608261f8-5ffb-4d86-917f-88438c934248",
      "identifier": [ {
        "use": "official",
        "system": "urn:oid:1.3.6.1.4.1.16517",
        "value": "100025030723-A9923DD0-940F-11E3-90AC-1CC4B7D83400"
      } ],
      "status": "final",
      "category": [ {
        "coding": [ {
          "system": "http://terminology.hl7.org/CodeSystem/v2-0074",
          "code": "LAB",
          "display": "Laboratory"
        } ]
      } ],
      "code": {
        "coding": [ {
          "system": "http://loinc.org",
          "code": "10466-1",
          "display": "Anion gap 3 in Serum or Plasma"
        } ]
      },
      "subject": {
        "reference": "Patient/3b438731-377f-4c2d-b24e-e25f634b00b1",
        "display": "ONETEST BWHCKDRISKTEST"
      },
      "result": [ {
        "reference": "Observation/4ed1ce65-7447-4306-aa64-f563e907ca30",
        "display": "ANION GAP"
      } ]
    }
  }, {
    "resource": {
      "resourceType": "Observation",
      "id": "4ed1ce65-7447-4306-aa64-f563e907ca30",
      "identifier": [ {
        "use": "official",
        "system": "urn:oid:1.3.6.1.4.1.16517",
        "value": "100025030723-A9923DD0-940F-11E3-90AC-1CC4B7D83400"
      } ],
      "status": "final",
      "category": [ {
        "coding": [ {
          "system": "http://terminology.hl7.org/CodeSystem/observation-category",
          "code": "laboratory"
        } ]
      } ],
      "code": {
        "coding": [ {
          "system": "http://loinc.org",
          "code": "10466-1",
          "display": "Anion gap 3 in Serum or Plasma"
        } ],
        "text": "ANION GAP"
      },
      "subject": {
        "reference": "Patient/3b438731-377f-4c2d-b24e-e25f634b00b1",
        "display": "ONETEST BWHCKDRISKTEST"
      },
      "effectivePeriod": {
        "start": "2014-02-11T13:54:00+01:00"
      },
      "valueQuantity": {
        "value": 10,
        "unit": "mmol/L",
        "system": "http://unitsofmeasure.org",
        "code": "mmol/L"
      },
      "referenceRange": [ {
        "text": "5-17 mmol/L"
      } ]
    }
  }, {
    "resource": {
      "resourceType": "DiagnosticReport",
      "id": "07a93b07-0a44-486d-9f7c-b85a9a2c0235",
      "identifier": [ {
        "use": "official",
        "system": "urn:oid:1.3.6.1.4.1.16517",
        "value": "100025030580-A9794762-940F-11E3-90AC-1CC4B7D83400"
      } ],
      "status": "final",
      "category": [ {
        "coding": [ {
          "system": "http://terminology.hl7.org/CodeSystem/v2-0074",
          "code": "LAB",
          "display": "Laboratory"
        } ]
      } ],
      "code": {
        "coding": [ {
          "system": "http://loinc.org",
          "code": "2075-0",
          "display": "Chloride [Moles/volume] in Serum or Plasma"
        } ]
      },
      "subject": {
        "reference": "Patient/3b438731-377f-4c2d-b24e-e25f634b00b1",
        "display": "ONETEST BWHCKDRISKTEST"
      },
      "result": [ {
        "reference": "Observation/ebc53671-20ca-4297-9b39-99d2ed1cad0f",
        "display": "CHLORIDE"
      } ]
    }
  }, {
    "resource": {
      "resourceType": "Observation",
      "id": "ebc53671-20ca-4297-9b39-99d2ed1cad0f",
      "identifier": [ {
        "use": "official",
        "system": "urn:oid:1.3.6.1.4.1.16517",
        "value": "100025030580-A9794762-940F-11E3-90AC-1CC4B7D83400"
      } ],
      "status": "final",
      "category": [ {
        "coding": [ {
          "system": "http://terminology.hl7.org/CodeSystem/observation-category",
          "code": "laboratory"
        } ]
      } ],
      "code": {
        "coding": [ {
          "system": "http://loinc.org",
          "code": "2075-0",
          "display": "Chloride [Moles/volume] in Serum or Plasma"
        } ],
        "text": "CHLORIDE"
      },
      "subject": {
        "reference": "Patient/3b438731-377f-4c2d-b24e-e25f634b00b1",
        "display": "ONETEST BWHCKDRISKTEST"
      },
      "effectivePeriod": {
        "start": "2014-01-30T07:57:00+01:00"
      },
      "valueQuantity": {
        "value": 100,
        "unit": "mmol/L",
        "system": "http://unitsofmeasure.org",
        "code": "mmol/L"
      },
      "referenceRange": [ {
        "text": "98-107 mmol/L"
      } ]
    }
  }, {
    "resource": {
      "resourceType": "DiagnosticReport",
      "id": "a9e2d0e3-d056-414b-aa0a-97c58b351afa",
      "identifier": [ {
        "use": "official",
        "system": "urn:oid:1.3.6.1.4.1.16517",
        "value": "100025030577-A9913C00-940F-11E3-90AC-1CC4B7D83400"
      } ],
      "status": "final",
      "category": [ {
        "coding": [ {
          "system": "http://terminology.hl7.org/CodeSystem/v2-0074",
          "code": "LAB",
          "display": "Laboratory"
        } ]
      } ],
      "code": {
        "coding": [ {
          "system": "http://loinc.org",
          "code": "2160-0",
          "display": "Creatinine [Mass/volume] in Serum or Plasma"
        } ]
      },
      "subject": {
        "reference": "Patient/3b438731-377f-4c2d-b24e-e25f634b00b1",
        "display": "ONETEST BWHCKDRISKTEST"
      },
      "result": [ {
        "reference": "Observation/3ddb9776-4e79-4ac7-995a-9828d6a18dd8",
        "display": "CREATININE"
      } ]
    }
  }, {
    "resource": {
      "resourceType": "Observation",
      "id": "3ddb9776-4e79-4ac7-995a-9828d6a18dd8",
      "identifier": [ {
        "use": "official",
        "system": "urn:oid:1.3.6.1.4.1.16517",
        "value": "100025030577-A9913C00-940F-11E3-90AC-1CC4B7D83400"
      } ],
      "status": "final",
      "category": [ {
        "coding": [ {
          "system": "http://terminology.hl7.org/CodeSystem/observation-category",
          "code": "laboratory"
        } ]
      } ],
      "code": {
        "coding": [ {
          "system": "http://loinc.org",
          "code": "2160-0",
          "display": "Creatinine [Mass/volume] in Serum or Plasma"
        } ],
        "text": "CREATININE"
      },
      "subject": {
        "reference": "Patient/3b438731-377f-4c2d-b24e-e25f634b00b1",
        "display": "ONETEST BWHCKDRISKTEST"
      },
      "effectivePeriod": {
        "start": "2014-01-30T07:57:00+01:00"
      },
      "valueQuantity": {
        "value": 1.01,
        "unit": "mg/dL",
        "system": "http://unitsofmeasure.org",
        "code": "mg/dL"
      },
      "referenceRange": [ {
        "text": "0.50-1.20 mg/dL"
      } ]
    }
  }, {
    "resource": {
      "resourceType": "DiagnosticReport",
      "id": "3da4a7ca-85ff-4964-8417-50afe112954d",
      "identifier": [ {
        "use": "official",
        "system": "urn:oid:1.3.6.1.4.1.16517",
        "value": "100025030634-A992B22E-940F-11E3-90AC-1CC4B7D83400"
      } ],
      "status": "final",
      "category": [ {
        "coding": [ {
          "system": "http://terminology.hl7.org/CodeSystem/v2-0074",
          "code": "LAB",
          "display": "Laboratory"
        } ]
      } ],
      "code": {
        "coding": [ {
          "system": "http://loinc.org",
          "code": "14959-1",
          "display": "Microalbumin/Creatinine [Mass Ratio] in Urine"
        } ]
      },
      "subject": {
        "reference": "Patient/3b438731-377f-4c2d-b24e-e25f634b00b1",
        "display": "ONETEST BWHCKDRISKTEST"
      },
      "result": [ {
        "reference": "Observation/a1ede4d6-59c3-4588-bd43-ecd329d32914",
        "display": "Malb/Cr"
      } ]
    }
  }, {
    "resource": {
      "resourceType": "Observation",
      "id": "a1ede4d6-59c3-4588-bd43-ecd329d32914",
      "identifier": [ {
        "use": "official",
        "system": "urn:oid:1.3.6.1.4.1.16517",
        "value": "100025030634-A992B22E-940F-11E3-90AC-1CC4B7D83400"
      } ],
      "status": "final",
      "category": [ {
        "coding": [ {
          "system": "http://terminology.hl7.org/CodeSystem/observation-category",
          "code": "laboratory"
        } ]
      } ],
      "code": {
        "coding": [ {
          "system": "http://loinc.org",
          "code": "14959-1",
          "display": "Microalbumin/Creatinine [Mass Ratio] in Urine"
        } ],
        "text": "Malb/Cr"
      },
      "subject": {
        "reference": "Patient/3b438731-377f-4c2d-b24e-e25f634b00b1",
        "display": "ONETEST BWHCKDRISKTEST"
      },
      "effectivePeriod": {
        "start": "2014-02-10T09:30:00+01:00"
      },
      "valueQuantity": {
        "value": 287,
        "unit": "mgAlb/gCre",
        "system": "http://unitsofmeasure.org",
        "code": "mgAlb/gCre"
      },
      "referenceRange": [ {
        "text": "0.0-30 mgAlb/gCre"
      } ]
    }
  }, {
    "resource": {
      "resourceType": "DiagnosticReport",
      "id": "df99963c-8706-406b-b835-af47fb48f8a3",
      "identifier": [ {
        "use": "official",
        "system": "urn:oid:1.3.6.1.4.1.16517",
        "value": "100025030591-A9948CFC-940F-11E3-90AC-1CC4B7D83400"
      } ],
      "status": "final",
      "category": [ {
        "coding": [ {
          "system": "http://terminology.hl7.org/CodeSystem/v2-0074",
          "code": "LAB",
          "display": "Laboratory"
        } ]
      } ],
      "code": {
        "coding": [ {
          "system": "http://loinc.org",
          "code": "33914-3",
          "display": "Glomerular filtration rate/1.73 sq M.predicted by Creatinine-based formula (MDRD)"
        } ]
      },
      "subject": {
        "reference": "Patient/3b438731-377f-4c2d-b24e-e25f634b00b1",
        "display": "ONETEST BWHCKDRISKTEST"
      },
      "result": [ {
        "reference": "Observation/6c775c04-bbec-4173-8345-719c173ec6fc",
        "display": "eGFR"
      } ]
    }
  }, {
    "resource": {
      "resourceType": "Observation",
      "id": "6c775c04-bbec-4173-8345-719c173ec6fc",
      "identifier": [ {
        "use": "official",
        "system": "urn:oid:1.3.6.1.4.1.16517",
        "value": "100025030591-A9948CFC-940F-11E3-90AC-1CC4B7D83400"
      } ],
      "status": "final",
      "category": [ {
        "coding": [ {
          "system": "http://terminology.hl7.org/CodeSystem/observation-category",
          "code": "laboratory"
        } ]
      } ],
      "code": {
        "coding": [ {
          "system": "http://loinc.org",
          "code": "33914-3",
          "display": "Glomerular filtration rate/1.73 sq M.predicted by Creatinine-based formula (MDRD)"
        } ],
        "text": "eGFR"
      },
      "subject": {
        "reference": "Patient/3b438731-377f-4c2d-b24e-e25f634b00b1",
        "display": "ONETEST BWHCKDRISKTEST"
      },
      "effectivePeriod": {
        "start": "2014-01-30T07:57:00+01:00"
      },
      "valueQuantity": {
        "value": 54,
        "unit": "1",
        "system": "http://unitsofmeasure.org",
        "code": "1"
      }
    }
  }, {
    "resource": {
      "resourceType": "DiagnosticReport",
      "id": "adcd073e-c626-46c7-8a39-02210a53fb1b",
      "identifier": [ {
        "use": "official",
        "system": "urn:oid:1.3.6.1.4.1.16517",
        "value": "100025030627-A993891A-940F-11E3-90AC-1CC4B7D83400"
      } ],
      "status": "final",
      "category": [ {
        "coding": [ {
          "system": "http://terminology.hl7.org/CodeSystem/v2-0074",
          "code": "LAB",
          "display": "Laboratory"
        } ]
      } ],
      "code": {
        "coding": [ {
          "system": "http://loinc.org",
          "code": "33914-3",
          "display": "Glomerular filtration rate/1.73 sq M.predicted by Creatinine-based formula (MDRD)"
        } ]
      },
      "subject": {
        "reference": "Patient/3b438731-377f-4c2d-b24e-e25f634b00b1",
        "display": "ONETEST BWHCKDRISKTEST"
      },
      "result": [ {
        "reference": "Observation/871ea274-5bc2-44de-a511-a2766a1e808e",
        "display": "eGFR"
      } ]
    }
  }, {
    "resource": {
      "resourceType": "Observation",
      "id": "871ea274-5bc2-44de-a511-a2766a1e808e",
      "identifier": [ {
        "use": "official",
        "system": "urn:oid:1.3.6.1.4.1.16517",
        "value": "100025030627-A993891A-940F-11E3-90AC-1CC4B7D83400"
      } ],
      "status": "final",
      "category": [ {
        "coding": [ {
          "system": "http://terminology.hl7.org/CodeSystem/observation-category",
          "code": "laboratory"
        } ]
      } ],
      "code": {
        "coding": [ {
          "system": "http://loinc.org",
          "code": "33914-3",
          "display": "Glomerular filtration rate/1.73 sq M.predicted by Creatinine-based formula (MDRD)"
        } ],
        "text": "eGFR"
      },
      "subject": {
        "reference": "Patient/3b438731-377f-4c2d-b24e-e25f634b00b1",
        "display": "ONETEST BWHCKDRISKTEST"
      },
      "effectivePeriod": {
        "start": "2014-02-10T08:22:00+01:00"
      },
      "valueQuantity": {
        "value": 40,
        "unit": "1",
        "system": "http://unitsofmeasure.org",
        "code": "1"
      }
    }
  }, {
    "resource": {
      "resourceType": "DiagnosticReport",
      "id": "832475c9-87fd-4b81-9aec-8139af5ae1d5",
      "identifier": [ {
        "use": "official",
        "system": "urn:oid:1.3.6.1.4.1.16517",
        "value": "100025030720-A978D700-940F-11E3-90AC-1CC4B7D83400"
      } ],
      "status": "final",
      "category": [ {
        "coding": [ {
          "system": "http://terminology.hl7.org/CodeSystem/v2-0074",
          "code": "LAB",
          "display": "Laboratory"
        } ]
      } ],
      "code": {
        "coding": [ {
          "system": "http://loinc.org",
          "code": "2823-3",
          "display": "Potassium [Moles/volume] in Serum or Plasma"
        } ]
      },
      "subject": {
        "reference": "Patient/3b438731-377f-4c2d-b24e-e25f634b00b1",
        "display": "ONETEST BWHCKDRISKTEST"
      },
      "result": [ {
        "reference": "Observation/7079377c-45ec-4242-aac1-2fdb6de1889a",
        "display": "POTASSIUM"
      } ]
    }
  }, {
    "resource": {
      "resourceType": "Observation",
      "id": "7079377c-45ec-4242-aac1-2fdb6de1889a",
      "identifier": [ {
        "use": "official",
        "system": "urn:oid:1.3.6.1.4.1.16517",
        "value": "100025030720-A978D700-940F-11E3-90AC-1CC4B7D83400"
      } ],
      "status": "final",
      "category": [ {
        "coding": [ {
          "system": "http://terminology.hl7.org/CodeSystem/observation-category",
          "code": "laboratory"
        } ]
      } ],
      "code": {
        "coding": [ {
          "system": "http://loinc.org",
          "code": "2823-3",
          "display": "Potassium [Moles/volume] in Serum or Plasma"
        } ],
        "text": "POTASSIUM"
      },
      "subject": {
        "reference": "Patient/3b438731-377f-4c2d-b24e-e25f634b00b1",
        "display": "ONETEST BWHCKDRISKTEST"
      },
      "effectivePeriod": {
        "start": "2014-02-11T13:54:00+01:00"
      },
      "valueQuantity": {
        "value": 4.4,
        "unit": "mmol/L",
        "system": "http://unitsofmeasure.org",
        "code": "mmol/L"
      },
      "referenceRange": [ {
        "text": "3.4-5.0 mmol/L"
      } ]
    }
  }, {
    "resource": {
      "resourceType": "DiagnosticReport",
      "id": "e336c25d-647f-454e-96a1-976a31099616",
      "identifier": [ {
        "use": "official",
        "system": "urn:oid:1.3.6.1.4.1.16517",
        "value": "100025030579-A978FC9E-940F-11E3-90AC-1CC4B7D83400"
      } ],
      "status": "final",
      "category": [ {
        "coding": [ {
          "system": "http://terminology.hl7.org/CodeSystem/v2-0074",
          "code": "LAB",
          "display": "Laboratory"
        } ]
      } ],
      "code": {
        "coding": [ {
          "system": "http://loinc.org",
          "code": "2823-3",
          "display": "Potassium [Moles/volume] in Serum or Plasma"
        } ]
      },
      "subject": {
        "reference": "Patient/3b438731-377f-4c2d-b24e-e25f634b00b1",
        "display": "ONETEST BWHCKDRISKTEST"
      },
      "result": [ {
        "reference": "Observation/5d165f1f-0afc-4d76-a8fd-0c64d9db6a1f",
        "display": "POTASSIUM"
      } ]
    }
  }, {
    "resource": {
      "resourceType": "Observation",
      "id": "5d165f1f-0afc-4d76-a8fd-0c64d9db6a1f",
      "identifier": [ {
        "use": "official",
        "system": "urn:oid:1.3.6.1.4.1.16517",
        "value": "100025030579-A978FC9E-940F-11E3-90AC-1CC4B7D83400"
      } ],
      "status": "final",
      "category": [ {
        "coding": [ {
          "system": "http://terminology.hl7.org/CodeSystem/observation-category",
          "code": "laboratory"
        } ]
      } ],
      "code": {
        "coding": [ {
          "system": "http://loinc.org",
          "code": "2823-3",
          "display": "Potassium [Moles/volume] in Serum or Plasma"
        } ],
        "text": "POTASSIUM"
      },
      "subject": {
        "reference": "Patient/3b438731-377f-4c2d-b24e-e25f634b00b1",
        "display": "ONETEST BWHCKDRISKTEST"
      },
      "effectivePeriod": {
        "start": "2014-01-30T07:57:00+01:00"
      },
      "valueQuantity": {
        "value": 4.7,
        "unit": "mmol/L",
        "system": "http://unitsofmeasure.org",
        "code": "mmol/L"
      },
      "referenceRange": [ {
        "text": "3.4-5.0 mmol/L"
      } ]
    }
  }, {
    "resource": {
      "resourceType": "DiagnosticReport",
      "id": "8679043d-8cf5-4711-ba92-4ce5b310c85b",
      "identifier": [ {
        "use": "official",
        "system": "urn:oid:1.3.6.1.4.1.16517",
        "value": "100025030581-A987CA9E-940F-11E3-90AC-1CC4B7D83400"
      } ],
      "status": "final",
      "category": [ {
        "coding": [ {
          "system": "http://terminology.hl7.org/CodeSystem/v2-0074",
          "code": "LAB",
          "display": "Laboratory"
        } ]
      } ],
      "code": {
        "coding": [ {
          "system": "http://loinc.org",
          "code": "2028-9",
          "display": "Carbon dioxide, total [Moles/volume] in Serum or Plasma"
        } ]
      },
      "subject": {
        "reference": "Patient/3b438731-377f-4c2d-b24e-e25f634b00b1",
        "display": "ONETEST BWHCKDRISKTEST"
      },
      "result": [ {
        "reference": "Observation/be4afb44-3e96-4f9b-8b13-3552a82e2788",
        "display": "TOTAL CO2"
      } ]
    }
  }, {
    "resource": {
      "resourceType": "Observation",
      "id": "be4afb44-3e96-4f9b-8b13-3552a82e2788",
      "identifier": [ {
        "use": "official",
        "system": "urn:oid:1.3.6.1.4.1.16517",
        "value": "100025030581-A987CA9E-940F-11E3-90AC-1CC4B7D83400"
      } ],
      "status": "final",
      "category": [ {
        "coding": [ {
          "system": "http://terminology.hl7.org/CodeSystem/observation-category",
          "code": "laboratory"
        } ]
      } ],
      "code": {
        "coding": [ {
          "system": "http://loinc.org",
          "code": "2028-9",
          "display": "Carbon dioxide, total [Moles/volume] in Serum or Plasma"
        } ],
        "text": "TOTAL CO2"
      },
      "subject": {
        "reference": "Patient/3b438731-377f-4c2d-b24e-e25f634b00b1",
        "display": "ONETEST BWHCKDRISKTEST"
      },
      "effectivePeriod": {
        "start": "2014-01-30T07:57:00+01:00"
      },
      "valueQuantity": {
        "value": 32,
        "unit": "mmol/L",
        "system": "http://unitsofmeasure.org",
        "code": "mmol/L"
      },
      "referenceRange": [ {
        "text": "22-31 mmol/L"
      } ]
    }
  }, {
    "resource": {
      "resourceType": "DiagnosticReport",
      "id": "5a66caf7-6c31-4cd2-8155-82f395f331c5",
      "identifier": [ {
        "use": "official",
        "system": "urn:oid:1.3.6.1.4.1.16517",
        "value": "100025030722-A9796D5A-940F-11E3-90AC-1CC4B7D83400"
      } ],
      "status": "final",
      "category": [ {
        "coding": [ {
          "system": "http://terminology.hl7.org/CodeSystem/v2-0074",
          "code": "LAB",
          "display": "Laboratory"
        } ]
      } ],
      "code": {
        "coding": [ {
          "system": "http://loinc.org",
          "code": "2028-9",
          "display": "Carbon dioxide, total [Moles/volume] in Serum or Plasma"
        } ]
      },
      "subject": {
        "reference": "Patient/3b438731-377f-4c2d-b24e-e25f634b00b1",
        "display": "ONETEST BWHCKDRISKTEST"
      },
      "result": [ {
        "reference": "Observation/0f5fabfc-a02e-4e9b-8f23-1cb8d72cccc7",
        "display": "TOTAL CO2"
      } ]
    }
  }, {
    "resource": {
      "resourceType": "Observation",
      "id": "0f5fabfc-a02e-4e9b-8f23-1cb8d72cccc7",
      "identifier": [ {
        "use": "official",
        "system": "urn:oid:1.3.6.1.4.1.16517",
        "value": "100025030722-A9796D5A-940F-11E3-90AC-1CC4B7D83400"
      } ],
      "status": "final",
      "category": [ {
        "coding": [ {
          "system": "http://terminology.hl7.org/CodeSystem/observation-category",
          "code": "laboratory"
        } ]
      } ],
      "code": {
        "coding": [ {
          "system": "http://loinc.org",
          "code": "2028-9",
          "display": "Carbon dioxide, total [Moles/volume] in Serum or Plasma"
        } ],
        "text": "TOTAL CO2"
      },
      "subject": {
        "reference": "Patient/3b438731-377f-4c2d-b24e-e25f634b00b1",
        "display": "ONETEST BWHCKDRISKTEST"
      },
      "effectivePeriod": {
        "start": "2014-02-11T13:54:00+01:00"
      },
      "valueQuantity": {
        "value": 22,
        "unit": "mmol/L",
        "system": "http://unitsofmeasure.org",
        "code": "mmol/L"
      },
      "referenceRange": [ {
        "text": "22-31 mmol/L"
      } ]
    }
  }, {
    "resource": {
      "resourceType": "DiagnosticReport",
      "id": "a039dc45-0654-4bc3-9565-aaff884b19a8",
      "identifier": [ {
        "use": "official",
        "system": "urn:oid:1.3.6.1.4.1.16517",
        "value": "100025030725-A9932AE2-940F-11E3-90AC-1CC4B7D83400"
      } ],
      "status": "final",
      "category": [ {
        "coding": [ {
          "system": "http://terminology.hl7.org/CodeSystem/v2-0074",
          "code": "LAB",
          "display": "Laboratory"
        } ]
      } ],
      "code": {
        "coding": [ {
          "system": "http://loinc.org",
          "code": "33914-3",
          "display": "Glomerular filtration rate/1.73 sq M.predicted by Creatinine-based formula (MDRD)"
        } ]
      },
      "subject": {
        "reference": "Patient/3b438731-377f-4c2d-b24e-e25f634b00b1",
        "display": "ONETEST BWHCKDRISKTEST"
      },
      "result": [ {
        "reference": "Observation/7c305ad9-59b0-4af8-a114-b299c70daf5f",
        "display": "eGFR"
      } ]
    }
  }, {
    "resource": {
      "resourceType": "Observation",
      "id": "7c305ad9-59b0-4af8-a114-b299c70daf5f",
      "identifier": [ {
        "use": "official",
        "system": "urn:oid:1.3.6.1.4.1.16517",
        "value": "100025030725-A9932AE2-940F-11E3-90AC-1CC4B7D83400"
      } ],
      "status": "final",
      "category": [ {
        "coding": [ {
          "system": "http://terminology.hl7.org/CodeSystem/observation-category",
          "code": "laboratory"
        } ]
      } ],
      "code": {
        "coding": [ {
          "system": "http://loinc.org",
          "code": "33914-3",
          "display": "Glomerular filtration rate/1.73 sq M.predicted by Creatinine-based formula (MDRD)"
        } ],
        "text": "eGFR"
      },
      "subject": {
        "reference": "Patient/3b438731-377f-4c2d-b24e-e25f634b00b1",
        "display": "ONETEST BWHCKDRISKTEST"
      },
      "effectivePeriod": {
        "start": "2014-02-11T13:54:00+01:00"
      },
      "valueQuantity": {
        "value": 40,
        "unit": "1",
        "system": "http://unitsofmeasure.org",
        "code": "1"
      }
    }
  }, {
    "resource": {
      "resourceType": "DiagnosticReport",
      "id": "108af1b1-f456-481b-b456-20ef532ee4c7",
      "identifier": [ {
        "use": "official",
        "system": "urn:oid:1.3.6.1.4.1.16517",
        "value": "100025030639-A990E6CE-940F-11E3-90AC-1CC4B7D83400"
      } ],
      "status": "final",
      "category": [ {
        "coding": [ {
          "system": "http://terminology.hl7.org/CodeSystem/v2-0074",
          "code": "LAB",
          "display": "Laboratory"
        } ]
      } ],
      "code": {
        "coding": [ {
          "system": "http://loinc.org",
          "code": "2160-0",
          "display": "Creatinine [Mass/volume] in Serum or Plasma"
        } ]
      },
      "subject": {
        "reference": "Patient/3b438731-377f-4c2d-b24e-e25f634b00b1",
        "display": "ONETEST BWHCKDRISKTEST"
      },
      "result": [ {
        "reference": "Observation/8af00764-e82c-4d73-b270-55c47063430f",
        "display": "CREATININE"
      } ]
    }
  }, {
    "resource": {
      "resourceType": "Observation",
      "id": "8af00764-e82c-4d73-b270-55c47063430f",
      "identifier": [ {
        "use": "official",
        "system": "urn:oid:1.3.6.1.4.1.16517",
        "value": "100025030639-A990E6CE-940F-11E3-90AC-1CC4B7D83400"
      } ],
      "status": "final",
      "category": [ {
        "coding": [ {
          "system": "http://terminology.hl7.org/CodeSystem/observation-category",
          "code": "laboratory"
        } ]
      } ],
      "code": {
        "coding": [ {
          "system": "http://loinc.org",
          "code": "2160-0",
          "display": "Creatinine [Mass/volume] in Serum or Plasma"
        } ],
        "text": "CREATININE"
      },
      "subject": {
        "reference": "Patient/3b438731-377f-4c2d-b24e-e25f634b00b1",
        "display": "ONETEST BWHCKDRISKTEST"
      },
      "effectivePeriod": {
        "start": "2014-02-10T10:00:00+01:00"
      },
      "valueQuantity": {
        "value": 1.9,
        "unit": "mg/dL",
        "system": "http://unitsofmeasure.org",
        "code": "mg/dL"
      },
      "referenceRange": [ {
        "text": "0.50-1.20 mg/dL"
      } ]
    }
  }, {
    "resource": {
      "resourceType": "DiagnosticReport",
      "id": "f5dfd5a8-71ba-4f79-af0f-5bc5ffd1ba7c",
      "identifier": [ {
        "use": "official",
        "system": "urn:oid:1.3.6.1.4.1.16517",
        "value": "100025030642-A98F1178-940F-11E3-90AC-1CC4B7D83400"
      } ],
      "status": "final",
      "category": [ {
        "coding": [ {
          "system": "http://terminology.hl7.org/CodeSystem/v2-0074",
          "code": "LAB",
          "display": "Laboratory"
        } ]
      } ],
      "code": {
        "coding": [ {
          "system": "http://loinc.org",
          "code": "17861-6",
          "display": "Calcium [Mass/volume] in Serum or Plasma"
        } ]
      },
      "subject": {
        "reference": "Patient/3b438731-377f-4c2d-b24e-e25f634b00b1",
        "display": "ONETEST BWHCKDRISKTEST"
      },
      "result": [ {
        "reference": "Observation/2d885b76-93d2-46b4-a53d-d2e53e885faf",
        "display": "CALCIUM"
      } ]
    }
  }, {
    "resource": {
      "resourceType": "Observation",
      "id": "2d885b76-93d2-46b4-a53d-d2e53e885faf",
      "identifier": [ {
        "use": "official",
        "system": "urn:oid:1.3.6.1.4.1.16517",
        "value": "100025030642-A98F1178-940F-11E3-90AC-1CC4B7D83400"
      } ],
      "status": "final",
      "category": [ {
        "coding": [ {
          "system": "http://terminology.hl7.org/CodeSystem/observation-category",
          "code": "laboratory"
        } ]
      } ],
      "code": {
        "coding": [ {
          "system": "http://loinc.org",
          "code": "17861-6",
          "display": "Calcium [Mass/volume] in Serum or Plasma"
        } ],
        "text": "CALCIUM"
      },
      "subject": {
        "reference": "Patient/3b438731-377f-4c2d-b24e-e25f634b00b1",
        "display": "ONETEST BWHCKDRISKTEST"
      },
      "effectivePeriod": {
        "start": "2014-02-10T10:00:00+01:00"
      },
      "valueQuantity": {
        "value": 8.8,
        "unit": "mg/dL",
        "system": "http://unitsofmeasure.org",
        "code": "mg/dL"
      },
      "referenceRange": [ {
        "text": "8.8-10.7 mg/dL"
      } ]
    }
  }, {
    "resource": {
      "resourceType": "DiagnosticReport",
      "id": "7bbca849-552a-4d5c-bbfd-3be3fd00007b",
      "identifier": [ {
        "use": "official",
        "system": "urn:oid:1.3.6.1.4.1.16517",
        "value": "100025030645-A979A9DC-940F-11E3-90AC-1CC4B7D83400"
      } ],
      "status": "final",
      "category": [ {
        "coding": [ {
          "system": "http://terminology.hl7.org/CodeSystem/v2-0074",
          "code": "LAB",
          "display": "Laboratory"
        } ]
      } ],
      "code": {
        "coding": [ {
          "system": "http://loinc.org",
          "code": "2028-9",
          "display": "Carbon dioxide, total [Moles/volume] in Serum or Plasma"
        } ]
      },
      "subject": {
        "reference": "Patient/3b438731-377f-4c2d-b24e-e25f634b00b1",
        "display": "ONETEST BWHCKDRISKTEST"
      },
      "result": [ {
        "reference": "Observation/768abcd1-b1f6-44db-bf29-9af0d4005455",
        "display": "TOTAL CO2"
      } ]
    }
  }, {
    "resource": {
      "resourceType": "Observation",
      "id": "768abcd1-b1f6-44db-bf29-9af0d4005455",
      "identifier": [ {
        "use": "official",
        "system": "urn:oid:1.3.6.1.4.1.16517",
        "value": "100025030645-A979A9DC-940F-11E3-90AC-1CC4B7D83400"
      } ],
      "status": "final",
      "category": [ {
        "coding": [ {
          "system": "http://terminology.hl7.org/CodeSystem/observation-category",
          "code": "laboratory"
        } ]
      } ],
      "code": {
        "coding": [ {
          "system": "http://loinc.org",
          "code": "2028-9",
          "display": "Carbon dioxide, total [Moles/volume] in Serum or Plasma"
        } ],
        "text": "TOTAL CO2"
      },
      "subject": {
        "reference": "Patient/3b438731-377f-4c2d-b24e-e25f634b00b1",
        "display": "ONETEST BWHCKDRISKTEST"
      },
      "effectivePeriod": {
        "start": "2014-02-10T10:00:00+01:00"
      },
      "valueQuantity": {
        "value": 22,
        "unit": "mmol/L",
        "system": "http://unitsofmeasure.org",
        "code": "mmol/L"
      },
      "referenceRange": [ {
        "text": "22-31 mmol/L"
      } ]
    }
  }, {
    "resource": {
      "resourceType": "DiagnosticReport",
      "id": "7d6a9f05-cc75-476c-af57-75d7a19d054d",
      "identifier": [ {
        "use": "official",
        "system": "urn:oid:1.3.6.1.4.1.16517",
        "value": "100025030718-A99098FE-940F-11E3-90AC-1CC4B7D83400"
      } ],
      "status": "final",
      "category": [ {
        "coding": [ {
          "system": "http://terminology.hl7.org/CodeSystem/v2-0074",
          "code": "LAB",
          "display": "Laboratory"
        } ]
      } ],
      "code": {
        "coding": [ {
          "system": "http://loinc.org",
          "code": "2160-0",
          "display": "Creatinine [Mass/volume] in Serum or Plasma"
        } ]
      },
      "subject": {
        "reference": "Patient/3b438731-377f-4c2d-b24e-e25f634b00b1",
        "display": "ONETEST BWHCKDRISKTEST"
      },
      "result": [ {
        "reference": "Observation/7db5448c-5061-4a11-8bed-626015710fd6",
        "display": "CREATININE"
      } ]
    }
  }, {
    "resource": {
      "resourceType": "Observation",
      "id": "7db5448c-5061-4a11-8bed-626015710fd6",
      "identifier": [ {
        "use": "official",
        "system": "urn:oid:1.3.6.1.4.1.16517",
        "value": "100025030718-A99098FE-940F-11E3-90AC-1CC4B7D83400"
      } ],
      "status": "final",
      "category": [ {
        "coding": [ {
          "system": "http://terminology.hl7.org/CodeSystem/observation-category",
          "code": "laboratory"
        } ]
      } ],
      "code": {
        "coding": [ {
          "system": "http://loinc.org",
          "code": "2160-0",
          "display": "Creatinine [Mass/volume] in Serum or Plasma"
        } ],
        "text": "CREATININE"
      },
      "subject": {
        "reference": "Patient/3b438731-377f-4c2d-b24e-e25f634b00b1",
        "display": "ONETEST BWHCKDRISKTEST"
      },
      "effectivePeriod": {
        "start": "2014-02-11T13:54:00+01:00"
      },
      "valueQuantity": {
        "value": 1.90,
        "unit": "mg/dL",
        "system": "http://unitsofmeasure.org",
        "code": "mg/dL"
      },
      "referenceRange": [ {
        "text": "0.50-1.20 mg/dL"
      } ]
    }
  }, {
    "resource": {
      "resourceType": "DiagnosticReport",
      "id": "f2fe13c6-d18e-4ecc-a4c7-06ca66e96013",
      "identifier": [ {
        "use": "official",
        "system": "urn:oid:1.3.6.1.4.1.16517",
        "value": "100025030578-A978B130-940F-11E3-90AC-1CC4B7D83400"
      } ],
      "status": "final",
      "category": [ {
        "coding": [ {
          "system": "http://terminology.hl7.org/CodeSystem/v2-0074",
          "code": "LAB",
          "display": "Laboratory"
        } ]
      } ],
      "code": {
        "coding": [ {
          "system": "http://loinc.org",
          "code": "2951-2",
          "display": "Sodium [Moles/volume] in Serum or Plasma"
        } ]
      },
      "subject": {
        "reference": "Patient/3b438731-377f-4c2d-b24e-e25f634b00b1",
        "display": "ONETEST BWHCKDRISKTEST"
      },
      "result": [ {
        "reference": "Observation/18b10679-a4b0-4250-bca2-2baa3f691237",
        "display": "SODIUM"
      } ]
    }
  }, {
    "resource": {
      "resourceType": "Observation",
      "id": "18b10679-a4b0-4250-bca2-2baa3f691237",
      "identifier": [ {
        "use": "official",
        "system": "urn:oid:1.3.6.1.4.1.16517",
        "value": "100025030578-A978B130-940F-11E3-90AC-1CC4B7D83400"
      } ],
      "status": "final",
      "category": [ {
        "coding": [ {
          "system": "http://terminology.hl7.org/CodeSystem/observation-category",
          "code": "laboratory"
        } ]
      } ],
      "code": {
        "coding": [ {
          "system": "http://loinc.org",
          "code": "2951-2",
          "display": "Sodium [Moles/volume] in Serum or Plasma"
        } ],
        "text": "SODIUM"
      },
      "subject": {
        "reference": "Patient/3b438731-377f-4c2d-b24e-e25f634b00b1",
        "display": "ONETEST BWHCKDRISKTEST"
      },
      "effectivePeriod": {
        "start": "2014-01-30T07:57:00+01:00"
      },
      "valueQuantity": {
        "value": 143,
        "unit": "mmol/L",
        "system": "http://unitsofmeasure.org",
        "code": "mmol/L"
      },
      "referenceRange": [ {
        "text": "136-145 mmol/L"
      } ]
    }
  }, {
    "resource": {
      "resourceType": "Observation",
      "id": "c79af066-8ae8-46b0-85ed-2cc425aade83",
      "status": "final",
      "category": [ {
        "coding": [ {
          "system": "http://terminology.hl7.org/CodeSystem/observation-category",
          "code": "vital-signs",
          "display": "Vital Signs"
        } ]
      } ],
      "code": {
        "text": "No vital sign data is applicable"
      },
      "subject": {
        "reference": "Patient/3b438731-377f-4c2d-b24e-e25f634b00b1",
        "display": "ONETEST BWHCKDRISKTEST"
      },
      "effectivePeriod": {
        "start": "2014-02-12T13:01:14+01:00"
      },
      "dataAbsentReason": {
        "coding": [ {
          "system": "http://hl7.org/fhir/data-absent-reason",
          "code": "temp",
          "display": "Temp"
        } ]
      }
    }
  }, {
    "resource": {
      "resourceType": "Condition",
      "id": "78778131-e5d8-4eeb-941a-69e98ecf183d",
      "clinicalStatus": {
        "coding": [ {
          "system": "http://terminology.hl7.org/CodeSystem/condition-clinical",
          "code": "active",
          "display": "Active"
        } ]
      },
      "verificationStatus": {
        "coding": [ {
          "system": "http://terminology.hl7.org/CodeSystem/condition-ver-status",
          "code": "confirmed",
          "display": "Confirmed"
        } ]
      },
      "category": [ {
        "coding": [ {
          "system": "http://terminology.hl7.org/CodeSystem/condition-category",
          "code": "problem-list-item",
          "display": "Problem List Item"
        } ]
      } ],
      "subject": {
        "reference": "Patient/3b438731-377f-4c2d-b24e-e25f634b00b1",
        "display": "ONETEST BWHCKDRISKTEST"
      },
      "onsetDateTime": "2014-02-12T13:01:14+01:00"
    }
  }, {
    "resource": {
      "resourceType": "Immunization",
      "id": "801e48af-0f97-49d7-91be-b3e65de4fc2d",
      "status": "completed",
      "vaccineCode": {
        "text": "No immunization data is applicable"
      },
      "patient": {
        "reference": "Patient/3b438731-377f-4c2d-b24e-e25f634b00b1",
        "display": "ONETEST BWHCKDRISKTEST"
      },
      "occurrenceDateTime": "2014-02-12T13:01:14+01:00",
      "primarySource": false
    }
  }, {
    "resource": {
      "resourceType": "Procedure",
      "id": "a83db906-d54e-4609-8bd2-bfbe24d77d6f",
      "status": "completed",
      "code": {
        "text": "No procedure data is applicable"
      },
      "subject": {
        "reference": "Patient/3b438731-377f-4c2d-b24e-e25f634b00b1",
        "display": "ONETEST BWHCKDRISKTEST"
      },
      "performedPeriod": {
        "start": "2014-02-12T13:01:14+01:00"
      }
    }
  }, {
    "resource": {
      "resourceType": "CarePlan",
      "id": "a1bd3c6e-4f7a-4870-873a-5289e9241fad",
      "text": {
        "status": "additional",
        "div": "<div xmlns=\"http://www.w3.org/1999/xhtml\"><table border=\"1\" width=\"100%\"><thead><tr><th>Date</th><th>Care Plan</th></tr></thead><tbody><tr><td>02/12/2014 13:01</td><td>No goal and instruction data is applicable</td></tr></tbody></table></div>"
      },
      "status": "active",
      "intent": "plan",
      "category": [ {
        "coding": [ {
          "system": "http://hl7.org/fhir/us/core/CodeSystem/careplan-category",
          "code": "assess-plan"
        } ]
      } ],
      "title": "Plan of Care",
      "description": "<div><table border=\"1\" width=\"100%\"><thead><tr><th>Date</th><th>Care Plan</th></tr></thead><tbody><tr><td>02/12/2014 13:01</td><td>No goal and instruction data is applicable</td></tr></tbody></table></div>",
      "subject": {
        "reference": "Patient/3b438731-377f-4c2d-b24e-e25f634b00b1",
        "display": "ONETEST BWHCKDRISKTEST"
      }
    }
  }, {
    "resource": {
      "resourceType": "AllergyIntolerance",
      "id": "8c0d5fcf-4fcc-482d-8951-90762757c867",
      "identifier": [ {
        "use": "official",
        "system": "urn:oid:1.3.6.1.4.1.16517",
        "value": "1"
      } ],
      "clinicalStatus": {
        "coding": [ {
          "system": "http://terminology.hl7.org/CodeSystem/allergyintolerance-clinical",
          "code": "active",
          "display": "Active"
        } ]
      },
      "verificationStatus": {
        "coding": [ {
          "system": "http://terminology.hl7.org/CodeSystem/allergyintolerance-verification",
          "code": "confirmed",
          "display": "Confirmed"
        } ]
      },
      "patient": {
        "reference": "Patient/3b438731-377f-4c2d-b24e-e25f634b00b1",
        "display": "ONETEST BWHCKDRISKTEST"
      },
      "recordedDate": "2014-02-12T13:01:14+01:00"
    }
  } ]
}