{
  "resourceType": "Bundle",
  "entry": [ {
    "resource": {
      "resourceType": "Composition",
      "id": "a54728e7-769e-4dce-a050-65d6e144bb8c",
      "identifier": {
        "use": "official",
        "system": "urn:oid:1.3.6.1.4.1.16517",
        "value": "10C3FBF4-D8EC-11E2-92F7-1708D1228400"
      },
      "status": "preliminary",
      "type": {
        "coding": [ {
          "system": "http://loinc.org",
          "code": "34133-9",
          "display": "Summarization of Episode Note"
        } ]
      },
      "category": [ {
        "coding": [ {
          "system": "http://hl7.org/fhir/ValueSet/doc-classcodes",
          "code": "LP173421-7",
          "display": "Note"
        } ]
      } ],
      "subject": {
        "reference": "Patient/cdd88370-8e6c-4a99-8c07-656462d5f54d",
        "display": "ONEA BWHLMREOVTEST"
      },
      "date": "2013-06-19T10:25:17-04:00",
      "title": "Test Clinic Summarization of Episode Note",
      "confidentiality": "N",
      "custodian": {
        "reference": "Organization/0561f359-c876-4e68-a941-6be4b5edba7f",
        "display": "Partners HealthCare"
      },
      "event": [ {
        "period": {
          "end": "2013-06-19T10:25:00+02:00"
        },
        "detail": [ {
          "reference": "Practitioner/519fc06e-bce3-41c1-b4ca-e8bb0dbf1356",
          "display": "VIEW TEST M.D."
        } ]
      } ],
      "section": [ {
        "title": "Results",
        "code": {
          "coding": [ {
            "system": "http://loinc.org",
            "code": "30954-2",
            "display": "Relevant diagnostic tests and/or laboratory data"
          } ]
        },
        "text": {
          "status": "additional",
          "div": "<div xmlns=\"http://www.w3.org/1999/xhtml\"><table border=\"1\" width=\"100%\"><thead><tr><th>Date</th><th>Test</th><th>Value</th><th>Reference Range</th><th>Abnormal Flag</th><th>Comments</th><th>Ordering Provider</th></tr></thead><tbody><tr><td>02/22/2013 10:39</td><td>WBC</td><td>7.6 K/uL</td><td>4-10 K/uL</td><td>Not available</td><td>Not available</td><td>VIEW, TEST A. M.D.</td></tr><tr><td>02/22/2013 10:39</td><td>HCT</td><td>45 %</td><td>40-54 %</td><td>*#</td><td>Not available</td><td>VIEW, TEST A. M.D.</td></tr><tr><td>02/22/2013 10:39</td><td>HGB</td><td>14.2 g/dL</td><td>13.5-18.0 g/dL</td><td>*#</td><td>Not available</td><td>VIEW, TEST A. M.D.</td></tr><tr><td>02/22/2013 10:39</td><td>RBC</td><td>3.65 M/uL</td><td>4.5-6.4 M/uL</td><td>*</td><td>Not available</td><td>VIEW, TEST A. M.D.</td></tr><tr><td>02/22/2013 10:39</td><td>PLT</td><td>220 K/uL</td><td>150-450 K/uL</td><td>*</td><td>Not available</td><td>VIEW, TEST A. M.D.</td></tr><tr><td>02/22/2013 10:39</td><td>MCV</td><td>97.5 um3</td><td>80-95 um3</td><td>*</td><td>Not available</td><td>VIEW, TEST A. M.D.</td></tr><tr><td>02/22/2013 10:39</td><td>MCH</td><td>33.7 uug</td><td>27-32 uug</td><td>*</td><td>Not available</td><td>VIEW, TEST A. M.D.</td></tr><tr><td>02/22/2013 10:39</td><td>MCHC</td><td>34.6 g/dL</td><td>32-36 g/dL</td><td>Not available</td><td>Not available</td><td>VIEW, TEST A. M.D.</td></tr><tr><td>02/22/2013 10:39</td><td>RDW</td><td>13.2 %</td><td>11.5-14.5 %</td><td>Not available</td><td>Not available</td><td>VIEW, TEST A. M.D.</td></tr><tr><td>02/22/2013 10:39</td><td>NRBC #</td><td>0.00 </td><td>0.00-0.00</td><td>Not available</td><td>Not available</td><td>VIEW, TEST A. M.D.</td></tr><tr><td>02/22/2013 10:39</td><td>NRBC %</td><td>0.0 </td><td>0.0-0.0</td><td>Not available</td><td>Not available</td><td>VIEW, TEST A. M.D.</td></tr></tbody></table></div>"
        },
        "mode": "snapshot",
        "entry": [ {
          "reference": "DiagnosticReport/36c02cc8-e5ea-4ac8-84e1-dc977df5f4be",
          "display": "Hematocrit [Volume Fraction] of Blood by Automated count"
        }, {
          "reference": "DiagnosticReport/e3d67ca2-e6e2-499c-8144-ee3929f064c5",
          "display": "Leukocytes [#/volume] in Blood by Automated count"
        }, {
          "reference": "DiagnosticReport/4cd398d5-2285-4939-93d7-edc5483163c2",
          "display": "Erythrocyte distribution width [Ratio] by Automated count"
        }, {
          "reference": "DiagnosticReport/ed3975f7-0aa9-489f-a248-fbce0cd51dc2",
          "display": "Hemoglobin [Mass/volume] in Blood"
        }, {
          "reference": "DiagnosticReport/fd904571-fe4d-430a-8331-337f9b1a8301",
          "display": "Nucleated erythrocytes/100 erythrocytes in Blood"
        }, {
          "reference": "DiagnosticReport/83162a69-1399-43d1-ae77-f0ae43cb31ff",
          "display": "Erythrocyte mean corpuscular hemoglobin concentration [Mass/volume] by Automated count"
        }, {
          "reference": "DiagnosticReport/1a92ee99-562e-4d00-803d-257685270e97",
          "display": "Erythrocyte mean corpuscular hemoglobin [Entitic mass] by Automated count"
        }, {
          "reference": "DiagnosticReport/fe9b2753-bd10-4c28-8676-615b6fd91d66",
          "display": "Erythrocytes [#/volume] in Blood by Automated count"
        }, {
          "reference": "DiagnosticReport/94f9c47d-749f-4687-a0eb-294883b0ec85",
          "display": "Erythrocyte mean corpuscular volume [Entitic volume] by Automated count"
        }, {
          "reference": "DiagnosticReport/82f2c671-01fd-4409-955f-bfe57a04057b",
          "display": "Nucleated erythrocytes [#/volume] in Blood"
        }, {
          "reference": "DiagnosticReport/7ff9f5af-caf7-447d-b674-e5ab91f1d071",
          "display": "Platelets [#/volume] in Blood by Automated count"
        } ]
      }, {
        "title": "Social History",
        "code": {
          "coding": [ {
            "system": "http://loinc.org",
            "code": "29762-2",
            "display": "Social History"
          } ]
        },
        "text": {
          "status": "additional",
          "div": "<div xmlns=\"http://www.w3.org/1999/xhtml\"><table border=\"1\" width=\"100%\"><thead><tr><th>Start Date</th><th>End Date</th><th>Type</th><th>Comments</th><th>Source</th></tr></thead><tbody><tr><td>06/19/2013</td><td>Not available</td><td>Unknown if ever smoked</td><td>Not available</td><td>Not available</td></tr></tbody></table></div>"
        },
        "mode": "snapshot",
        "entry": [ {
          "reference": "Observation/d3cba83f-20d2-4f34-bde0-383c61a5ff0d"
        } ]
      }, {
        "title": "Allergies",
        "code": {
          "coding": [ {
            "system": "http://loinc.org",
            "code": "48765-2",
            "display": "Allergies, adverse reactions, alert"
          } ]
        },
        "text": {
          "status": "additional",
          "div": "<div xmlns=\"http://www.w3.org/1999/xhtml\"><table border=\"1\" width=\"100%\"><thead><tr><th>Date</th><th>Allergies</th><th>Reaction</th><th>Severity</th><th>Status</th><th>Comments</th><th>Source</th></tr></thead><tbody><tr><td>03/12/2013 08:51:42</td><td>Penicillins</td><td>Hives</td><td>mild</td><td>Active</td><td>testing comments</td><td>View Test, M.D.</td></tr><tr><td>02/22/2013 10:51:07</td><td>Codeine</td><td>Shortness of Breath</td><td>free-text</td><td>Active</td><td/><td>View Test, M.D.</td></tr><tr><td>02/22/2013 10:51:07</td><td>Aspirin</td><td>Hives</td><td>free-text</td><td>Active</td><td/><td>View Test, M.D.</td></tr></tbody></table></div>"
        },
        "mode": "snapshot",
        "entry": [ {
          "reference": "AllergyIntolerance/69cf7f8c-8cdd-4504-8bfa-e6fd7c25000d",
          "display": "Codeine"
        }, {
          "reference": "AllergyIntolerance/536a7d54-1f2a-4c0f-84bb-15a924694f94",
          "display": "Aspirin"
        }, {
          "reference": "AllergyIntolerance/9d47aa0c-27e3-4e84-ba0e-d66cf062c623",
          "display": "Penicillins"
        } ]
      }, {
        "title": "Medications",
        "code": {
          "coding": [ {
            "system": "http://loinc.org",
            "code": "10160-0",
            "display": "History of medication use"
          } ]
        },
        "text": {
          "status": "additional",
          "div": "<div xmlns=\"http://www.w3.org/1999/xhtml\"><table border=\"1\" width=\"100%\"><thead><tr><th>Date</th><th>Medication</th><th>Dose</th><th>Form</th><th>Route</th><th>Frequency</th><th>Directions</th><th>Comments</th><th>Status</th><th>Source</th></tr></thead><tbody><tr><td>03/07/2013</td><td>ALBUTEROL INHALER HFA 90 MCG HFA AER AD</td><td>2 PUFF</td><td>Not available</td><td>INH</td><td>Q6H PRN wheezing</td><td>Not available</td><td>Not available</td><td>Active</td><td>TEST,VIEW,M.D.</td></tr><tr><td>02/22/2013</td><td>CLARITHROMYCIN 500 MG TABLET</td><td>500 MG</td><td> Take  1 TABLET</td><td>PO</td><td>BID</td><td>Not available</td><td>Not available</td><td>Active</td><td>TEST,VIEW,M.D.</td></tr></tbody></table></div>"
        },
        "mode": "snapshot",
        "entry": [ {
          "reference": "MedicationStatement/ca5f4091-dd4d-465c-acbf-14eb68dce3e4",
          "display": "CLARITHROMYCIN 500 MG TABLET"
        }, {
          "reference": "MedicationStatement/d8691760-58de-4d62-967d-4d9604db6d71",
          "display": "ALBUTEROL INHALER HFA 90 MCG HFA AER AD"
        } ]
      }, {
        "title": "Problems",
        "code": {
          "coding": [ {
            "system": "http://loinc.org",
            "code": "11450-4",
            "display": "Problem List"
          } ]
        },
        "text": {
          "status": "additional",
          "div": "<div xmlns=\"http://www.w3.org/1999/xhtml\"><table border=\"1\" width=\"100%\"><thead><tr><th>Date</th><th>Problems</th><th>Status</th><th>Comments</th><th>Source</th></tr></thead><tbody><tr><td>02/22/2013</td><td>Community acquired pneumonia</td><td>Active</td><td/><td>TEST,VIEW,M.D.</td></tr><tr><td>02/22/2013</td><td>Asthma</td><td>Active</td><td/><td>TEST,VIEW,M.D.</td></tr><tr><td>02/22/2013</td><td>Hypoxemia</td><td>Active</td><td/><td>TEST,VIEW,M.D.</td></tr></tbody></table></div>"
        },
        "mode": "snapshot",
        "entry": [ {
          "reference": "Condition/2b843f66-301e-4750-879b-975bfa573021",
          "display": "Asthma"
        }, {
          "reference": "Condition/c3382797-640f-4a51-89e2-170d711bb06a",
          "display": "Hypoxemia"
        }, {
          "reference": "Condition/0142ad26-68ea-4a5c-8708-5f57f76d3ffc",
          "display": "Community acquired pneumonia"
        } ]
      } ]
    }
  }, {
    "resource": {
      "resourceType": "Patient",
      "id": "cdd88370-8e6c-4a99-8c07-656462d5f54d",
      "extension": [ {
        "url": "http://hl7.org/fhir/us/core/StructureDefinition/us-core-ethnicity",
        "extension": [ {
          "url": "text",
          "valueString": "Not Hispanic or Latino"
        }, {
          "url": "ombCategory",
          "valueCoding": {
            "system": "urn:oid:2.16.840.1.113883.6.238",
            "code": "2186-5",
            "display": "Not Hispanic or Latino"
          }
        } ]
      } ],
      "identifier": [ {
        "use": "official",
        "system": "urn:oid:1.3.6.1.4.1.16517",
        "value": "900646017"
      }, {
        "use": "official",
        "system": "urn:oid:1.3.6.1.4.1.16517.2.2",
        "value": "21814165"
      } ],
      "name": [ {
        "family": "BWHLMREOVTEST",
        "given": [ "ONEA" ]
      } ],
      "gender": "female",
      "birthDate": "1955-01-01",
      "address": [ {
        "line": [ "ABC ST" ],
        "city": "BOSTON",
        "state": "MA",
        "postalCode": "02198",
        "country": "US"
      } ],
      "communication": [ {
        "language": {
          "coding": [ {
            "system": "urn:ietf:bcp:47",
            "code": "eng"
          } ]
        },
        "preferred": true
      } ]
    }
  }, {
    "resource": {
      "resourceType": "Practitioner",
      "id": "519fc06e-bce3-41c1-b4ca-e8bb0dbf1356",
      "identifier": [ {
        "use": "official",
        "system": "http://hl7.org/fhir/sid/us-npi",
        "value": "7603710774"
      } ],
      "name": [ {
        "family": "TEST",
        "given": [ "VIEW" ],
        "suffix": [ "M.D." ]
      } ],
      "telecom": [ {
        "system": "phone",
        "value": "(617)111-1000",
        "use": "work"
      } ],
      "address": [ {
        "line": [ "111 BOYLSTON STREET" ],
        "city": " CHESTNUT HILL",
        "state": "MA",
        "postalCode": "02467"
      } ]
    }
  }, {
    "resource": {
      "resourceType": "Organization",
      "id": "0561f359-c876-4e68-a941-6be4b5edba7f",
      "identifier": [ {
        "use": "official",
        "system": "urn:oid:1.3.6.1.4.1.16517",
        "value": "PHS"
      } ],
      "name": "Partners HealthCare",
      "telecom": [ {
        "system": "phone",
        "value": "(111)111-1000",
        "use": "work"
      } ],
      "address": [ {
        "line": [ "111 Boylston Street" ],
        "city": "Boston",
        "state": "MA",
        "postalCode": "02199-8001"
      } ]
    }
  }, {
    "resource": {
      "resourceType": "DiagnosticReport",
      "id": "36c02cc8-e5ea-4ac8-84e1-dc977df5f4be",
      "identifier": [ {
        "use": "official",
        "system": "urn:oid:1.3.6.1.4.1.16517",
        "value": "1013854256-10C6BAF6-D8EC-11E2-BE1E-1708D1228400"
      } ],
      "status": "final",
      "category": [ {
        "coding": [ {
          "system": "http://terminology.hl7.org/CodeSystem/v2-0074",
          "code": "LAB",
          "display": "Laboratory"
        } ]
      } ],
      "code": {
        "coding": [ {
          "system": "http://loinc.org",
          "code": "4544-3",
          "display": "Hematocrit [Volume Fraction] of Blood by Automated count"
        } ]
      },
      "subject": {
        "reference": "Patient/cdd88370-8e6c-4a99-8c07-656462d5f54d",
        "display": "ONEA BWHLMREOVTEST"
      },
      "result": [ {
        "reference": "Observation/f64da069-192c-4a91-894d-3faac5df05a0",
        "display": "HCT"
      } ]
    }
  }, {
    "resource": {
      "resourceType": "Observation",
      "id": "f64da069-192c-4a91-894d-3faac5df05a0",
      "identifier": [ {
        "use": "official",
        "system": "urn:oid:1.3.6.1.4.1.16517",
        "value": "1013854256-10C6BAF6-D8EC-11E2-BE1E-1708D1228400"
      } ],
      "status": "final",
      "category": [ {
        "coding": [ {
          "system": "http://terminology.hl7.org/CodeSystem/observation-category",
          "code": "laboratory"
        } ]
      } ],
      "code": {
        "coding": [ {
          "system": "http://loinc.org",
          "code": "4544-3",
          "display": "Hematocrit [Volume Fraction] of Blood by Automated count"
        } ],
        "text": "HCT"
      },
      "subject": {
        "reference": "Patient/cdd88370-8e6c-4a99-8c07-656462d5f54d",
        "display": "ONEA BWHLMREOVTEST"
      },
      "effectivePeriod": {
        "start": "2013-02-22T10:39:00+01:00"
      },
      "valueQuantity": {
        "value": 45,
        "unit": "%",
        "system": "http://unitsofmeasure.org",
        "code": "%"
      },
      "referenceRange": [ {
        "text": "40-54 %"
      } ]
    }
  }, {
    "resource": {
      "resourceType": "DiagnosticReport",
      "id": "e3d67ca2-e6e2-499c-8144-ee3929f064c5",
      "identifier": [ {
        "use": "official",
        "system": "urn:oid:1.3.6.1.4.1.16517",
        "value": "1013854253-10C5E8A6-D8EC-11E2-BE1E-1708D1228400"
      } ],
      "status": "final",
      "category": [ {
        "coding": [ {
          "system": "http://terminology.hl7.org/CodeSystem/v2-0074",
          "code": "LAB",
          "display": "Laboratory"
        } ]
      } ],
      "code": {
        "coding": [ {
          "system": "http://loinc.org",
          "code": "6690-2",
          "display": "Leukocytes [#/volume] in Blood by Automated count"
        } ]
      },
      "subject": {
        "reference": "Patient/cdd88370-8e6c-4a99-8c07-656462d5f54d",
        "display": "ONEA BWHLMREOVTEST"
      },
      "result": [ {
        "reference": "Observation/8f085ee9-9707-48a0-a9be-bd44b52a381b",
        "display": "WBC"
      } ]
    }
  }, {
    "resource": {
      "resourceType": "Observation",
      "id": "8f085ee9-9707-48a0-a9be-bd44b52a381b",
      "identifier": [ {
        "use": "official",
        "system": "urn:oid:1.3.6.1.4.1.16517",
        "value": "1013854253-10C5E8A6-D8EC-11E2-BE1E-1708D1228400"
      } ],
      "status": "final",
      "category": [ {
        "coding": [ {
          "system": "http://terminology.hl7.org/CodeSystem/observation-category",
          "code": "laboratory"
        } ]
      } ],
      "code": {
        "coding": [ {
          "system": "http://loinc.org",
          "code": "6690-2",
          "display": "Leukocytes [#/volume] in Blood by Automated count"
        } ],
        "text": "WBC"
      },
      "subject": {
        "reference": "Patient/cdd88370-8e6c-4a99-8c07-656462d5f54d",
        "display": "ONEA BWHLMREOVTEST"
      },
      "effectivePeriod": {
        "start": "2013-02-22T10:39:00+01:00"
      },
      "valueQuantity": {
        "value": 7.6,
        "unit": "K/uL",
        "system": "http://unitsofmeasure.org",
        "code": "K/uL"
      },
      "referenceRange": [ {
        "text": "4-10 K/uL"
      } ]
    }
  }, {
    "resource": {
      "resourceType": "DiagnosticReport",
      "id": "4cd398d5-2285-4939-93d7-edc5483163c2",
      "identifier": [ {
        "use": "official",
        "system": "urn:oid:1.3.6.1.4.1.16517",
        "value": "1013854260-10D2A636-D8EC-11E2-BE1E-1708D1228400"
      } ],
      "status": "final",
      "category": [ {
        "coding": [ {
          "system": "http://terminology.hl7.org/CodeSystem/v2-0074",
          "code": "LAB",
          "display": "Laboratory"
        } ]
      } ],
      "code": {
        "coding": [ {
          "system": "http://loinc.org",
          "code": "788-0",
          "display": "Erythrocyte distribution width [Ratio] by Automated count"
        } ]
      },
      "subject": {
        "reference": "Patient/cdd88370-8e6c-4a99-8c07-656462d5f54d",
        "display": "ONEA BWHLMREOVTEST"
      },
      "result": [ {
        "reference": "Observation/d2b70ea7-d54c-4d74-a9ca-70470f2bdee1",
        "display": "RDW"
      } ]
    }
  }, {
    "resource": {
      "resourceType": "Observation",
      "id": "d2b70ea7-d54c-4d74-a9ca-70470f2bdee1",
      "identifier": [ {
        "use": "official",
        "system": "urn:oid:1.3.6.1.4.1.16517",
        "value": "1013854260-10D2A636-D8EC-11E2-BE1E-1708D1228400"
      } ],
      "status": "final",
      "category": [ {
        "coding": [ {
          "system": "http://terminology.hl7.org/CodeSystem/observation-category",
          "code": "laboratory"
        } ]
      } ],
      "code": {
        "coding": [ {
          "system": "http://loinc.org",
          "code": "788-0",
          "display": "Erythrocyte distribution width [Ratio] by Automated count"
        } ],
        "text": "RDW"
      },
      "subject": {
        "reference": "Patient/cdd88370-8e6c-4a99-8c07-656462d5f54d",
        "display": "ONEA BWHLMREOVTEST"
      },
      "effectivePeriod": {
        "start": "2013-02-22T10:39:00+01:00"
      },
      "valueQuantity": {
        "value": 13.2,
        "unit": "%",
        "system": "http://unitsofmeasure.org",
        "code": "%"
      },
      "referenceRange": [ {
        "text": "11.5-14.5 %"
      } ]
    }
  }, {
    "resource": {
      "resourceType": "DiagnosticReport",
      "id": "ed3975f7-0aa9-489f-a248-fbce0cd51dc2",
      "identifier": [ {
        "use": "official",
        "system": "urn:oid:1.3.6.1.4.1.16517",
        "value": "1013854255-10C724B4-D8EC-11E2-BE1E-1708D1228400"
      } ],
      "status": "final",
      "category": [ {
        "coding": [ {
          "system": "http://terminology.hl7.org/CodeSystem/v2-0074",
          "code": "LAB",
          "display": "Laboratory"
        } ]
      } ],
      "code": {
        "coding": [ {
          "system": "http://loinc.org",
          "code": "718-7",
          "display": "Hemoglobin [Mass/volume] in Blood"
        } ]
      },
      "subject": {
        "reference": "Patient/cdd88370-8e6c-4a99-8c07-656462d5f54d",
        "display": "ONEA BWHLMREOVTEST"
      },
      "result": [ {
        "reference": "Observation/49cd41f1-d034-4bfb-b529-b40825ed15b9",
        "display": "HGB"
      } ]
    }
  }, {
    "resource": {
      "resourceType": "Observation",
      "id": "49cd41f1-d034-4bfb-b529-b40825ed15b9",
      "identifier": [ {
        "use": "official",
        "system": "urn:oid:1.3.6.1.4.1.16517",
        "value": "1013854255-10C724B4-D8EC-11E2-BE1E-1708D1228400"
      } ],
      "status": "final",
      "category": [ {
        "coding": [ {
          "system": "http://terminology.hl7.org/CodeSystem/observation-category",
          "code": "laboratory"
        } ]
      } ],
      "code": {
        "coding": [ {
          "system": "http://loinc.org",
          "code": "718-7",
          "display": "Hemoglobin [Mass/volume] in Blood"
        } ],
        "text": "HGB"
      },
      "subject": {
        "reference": "Patient/cdd88370-8e6c-4a99-8c07-656462d5f54d",
        "display": "ONEA BWHLMREOVTEST"
      },
      "effectivePeriod": {
        "start": "2013-02-22T10:39:00+01:00"
      },
      "valueQuantity": {
        "value": 14.2,
        "unit": "g/dL",
        "system": "http://unitsofmeasure.org",
        "code": "g/dL"
      },
      "referenceRange": [ {
        "text": "13.5-18.0 g/dL"
      } ]
    }
  }, {
    "resource": {
      "resourceType": "DiagnosticReport",
      "id": "fd904571-fe4d-430a-8331-337f9b1a8301",
      "identifier": [ {
        "use": "official",
        "system": "urn:oid:1.3.6.1.4.1.16517",
        "value": "1013854262-10D3906E-D8EC-11E2-BE1E-1708D1228400"
      } ],
      "status": "final",
      "category": [ {
        "coding": [ {
          "system": "http://terminology.hl7.org/CodeSystem/v2-0074",
          "code": "LAB",
          "display": "Laboratory"
        } ]
      } ],
      "code": {
        "coding": [ {
          "system": "http://loinc.org",
          "code": "26461-4",
          "display": "Nucleated erythrocytes/100 erythrocytes in Blood"
        } ]
      },
      "subject": {
        "reference": "Patient/cdd88370-8e6c-4a99-8c07-656462d5f54d",
        "display": "ONEA BWHLMREOVTEST"
      },
      "result": [ {
        "reference": "Observation/6859fd32-d7e3-4a6e-bf62-277b81a17436",
        "display": "NRBC %"
      } ]
    }
  }, {
    "resource": {
      "resourceType": "Observation",
      "id": "6859fd32-d7e3-4a6e-bf62-277b81a17436",
      "identifier": [ {
        "use": "official",
        "system": "urn:oid:1.3.6.1.4.1.16517",
        "value": "1013854262-10D3906E-D8EC-11E2-BE1E-1708D1228400"
      } ],
      "status": "final",
      "category": [ {
        "coding": [ {
          "system": "http://terminology.hl7.org/CodeSystem/observation-category",
          "code": "laboratory"
        } ]
      } ],
      "code": {
        "coding": [ {
          "system": "http://loinc.org",
          "code": "26461-4",
          "display": "Nucleated erythrocytes/100 erythrocytes in Blood"
        } ],
        "text": "NRBC %"
      },
      "subject": {
        "reference": "Patient/cdd88370-8e6c-4a99-8c07-656462d5f54d",
        "display": "ONEA BWHLMREOVTEST"
      },
      "effectivePeriod": {
        "start": "2013-02-22T10:39:00+01:00"
      },
      "valueQuantity": {
        "value": 0.0,
        "unit": "1",
        "system": "http://unitsofmeasure.org",
        "code": "1"
      },
      "referenceRange": [ {
        "text": "0.0-0.0"
      } ]
    }
  }, {
    "resource": {
      "resourceType": "DiagnosticReport",
      "id": "83162a69-1399-43d1-ae77-f0ae43cb31ff",
      "identifier": [ {
        "use": "official",
        "system": "urn:oid:1.3.6.1.4.1.16517",
        "value": "1013854259-10CDF56E-D8EC-11E2-BE1E-1708D1228400"
      } ],
      "status": "final",
      "category": [ {
        "coding": [ {
          "system": "http://terminology.hl7.org/CodeSystem/v2-0074",
          "code": "LAB",
          "display": "Laboratory"
        } ]
      } ],
      "code": {
        "coding": [ {
          "system": "http://loinc.org",
          "code": "786-4",
          "display": "Erythrocyte mean corpuscular hemoglobin concentration [Mass/volume] by Automated count"
        } ]
      },
      "subject": {
        "reference": "Patient/cdd88370-8e6c-4a99-8c07-656462d5f54d",
        "display": "ONEA BWHLMREOVTEST"
      },
      "result": [ {
        "reference": "Observation/b8f109d9-7649-4bc3-a776-0df5eec445e7",
        "display": "MCHC"
      } ]
    }
  }, {
    "resource": {
      "resourceType": "Observation",
      "id": "b8f109d9-7649-4bc3-a776-0df5eec445e7",
      "identifier": [ {
        "use": "official",
        "system": "urn:oid:1.3.6.1.4.1.16517",
        "value": "1013854259-10CDF56E-D8EC-11E2-BE1E-1708D1228400"
      } ],
      "status": "final",
      "category": [ {
        "coding": [ {
          "system": "http://terminology.hl7.org/CodeSystem/observation-category",
          "code": "laboratory"
        } ]
      } ],
      "code": {
        "coding": [ {
          "system": "http://loinc.org",
          "code": "786-4",
          "display": "Erythrocyte mean corpuscular hemoglobin concentration [Mass/volume] by Automated count"
        } ],
        "text": "MCHC"
      },
      "subject": {
        "reference": "Patient/cdd88370-8e6c-4a99-8c07-656462d5f54d",
        "display": "ONEA BWHLMREOVTEST"
      },
      "effectivePeriod": {
        "start": "2013-02-22T10:39:00+01:00"
      },
      "valueQuantity": {
        "value": 34.6,
        "unit": "g/dL",
        "system": "http://unitsofmeasure.org",
        "code": "g/dL"
      },
      "referenceRange": [ {
        "text": "32-36 g/dL"
      } ]
    }
  }, {
    "resource": {
      "resourceType": "DiagnosticReport",
      "id": "1a92ee99-562e-4d00-803d-257685270e97",
      "identifier": [ {
        "use": "official",
        "system": "urn:oid:1.3.6.1.4.1.16517",
        "value": "1013854258-10C900E0-D8EC-11E2-BE1E-1708D1228400"
      } ],
      "status": "final",
      "category": [ {
        "coding": [ {
          "system": "http://terminology.hl7.org/CodeSystem/v2-0074",
          "code": "LAB",
          "display": "Laboratory"
        } ]
      } ],
      "code": {
        "coding": [ {
          "system": "http://loinc.org",
          "code": "785-6",
          "display": "Erythrocyte mean corpuscular hemoglobin [Entitic mass] by Automated count"
        } ]
      },
      "subject": {
        "reference": "Patient/cdd88370-8e6c-4a99-8c07-656462d5f54d",
        "display": "ONEA BWHLMREOVTEST"
      },
      "result": [ {
        "reference": "Observation/e3e5917a-ba2f-4a8d-853f-ab7389a3c644",
        "display": "MCH"
      } ]
    }
  }, {
    "resource": {
      "resourceType": "Observation",
      "id": "e3e5917a-ba2f-4a8d-853f-ab7389a3c644",
      "identifier": [ {
        "use": "official",
        "system": "urn:oid:1.3.6.1.4.1.16517",
        "value": "1013854258-10C900E0-D8EC-11E2-BE1E-1708D1228400"
      } ],
      "status": "final",
      "category": [ {
        "coding": [ {
          "system": "http://terminology.hl7.org/CodeSystem/observation-category",
          "code": "laboratory"
        } ]
      } ],
      "code": {
        "coding": [ {
          "system": "http://loinc.org",
          "code": "785-6",
          "display": "Erythrocyte mean corpuscular hemoglobin [Entitic mass] by Automated count"
        } ],
        "text": "MCH"
      },
      "subject": {
        "reference": "Patient/cdd88370-8e6c-4a99-8c07-656462d5f54d",
        "display": "ONEA BWHLMREOVTEST"
      },
      "effectivePeriod": {
        "start": "2013-02-22T10:39:00+01:00"
      },
      "valueQuantity": {
        "value": 33.7,
        "unit": "uug",
        "system": "http://unitsofmeasure.org",
        "code": "uug"
      },
      "referenceRange": [ {
        "text": "27-32 uug"
      } ]
    }
  }, {
    "resource": {
      "resourceType": "DiagnosticReport",
      "id": "fe9b2753-bd10-4c28-8676-615b6fd91d66",
      "identifier": [ {
        "use": "official",
        "system": "urn:oid:1.3.6.1.4.1.16517",
        "value": "1013854254-10C79CAA-D8EC-11E2-BE1E-1708D1228400"
      } ],
      "status": "final",
      "category": [ {
        "coding": [ {
          "system": "http://terminology.hl7.org/CodeSystem/v2-0074",
          "code": "LAB",
          "display": "Laboratory"
        } ]
      } ],
      "code": {
        "coding": [ {
          "system": "http://loinc.org",
          "code": "789-8",
          "display": "Erythrocytes [#/volume] in Blood by Automated count"
        } ]
      },
      "subject": {
        "reference": "Patient/cdd88370-8e6c-4a99-8c07-656462d5f54d",
        "display": "ONEA BWHLMREOVTEST"
      },
      "result": [ {
        "reference": "Observation/12a1422d-6198-40f7-aa3c-eab3d0bc2739",
        "display": "RBC"
      } ]
    }
  }, {
    "resource": {
      "resourceType": "Observation",
      "id": "12a1422d-6198-40f7-aa3c-eab3d0bc2739",
      "identifier": [ {
        "use": "official",
        "system": "urn:oid:1.3.6.1.4.1.16517",
        "value": "1013854254-10C79CAA-D8EC-11E2-BE1E-1708D1228400"
      } ],
      "status": "final",
      "category": [ {
        "coding": [ {
          "system": "http://terminology.hl7.org/CodeSystem/observation-category",
          "code": "laboratory"
        } ]
      } ],
      "code": {
        "coding": [ {
          "system": "http://loinc.org",
          "code": "789-8",
          "display": "Erythrocytes [#/volume] in Blood by Automated count"
        } ],
        "text": "RBC"
      },
      "subject": {
        "reference": "Patient/cdd88370-8e6c-4a99-8c07-656462d5f54d",
        "display": "ONEA BWHLMREOVTEST"
      },
      "effectivePeriod": {
        "start": "2013-02-22T10:39:00+01:00"
      },
      "valueQuantity": {
        "value": 3.65,
        "unit": "M/uL",
        "system": "http://unitsofmeasure.org",
        "code": "M/uL"
      },
      "referenceRange": [ {
        "text": "4.5-6.4 M/uL"
      } ]
    }
  }, {
    "resource": {
      "resourceType": "DiagnosticReport",
      "id": "94f9c47d-749f-4687-a0eb-294883b0ec85",
      "identifier": [ {
        "use": "official",
        "system": "urn:oid:1.3.6.1.4.1.16517",
        "value": "1013854257-10C89060-D8EC-11E2-BE1E-1708D1228400"
      } ],
      "status": "final",
      "category": [ {
        "coding": [ {
          "system": "http://terminology.hl7.org/CodeSystem/v2-0074",
          "code": "LAB",
          "display": "Laboratory"
        } ]
      } ],
      "code": {
        "coding": [ {
          "system": "http://loinc.org",
          "code": "787-2",
          "display": "Erythrocyte mean corpuscular volume [Entitic volume] by Automated count"
        } ]
      },
      "subject": {
        "reference": "Patient/cdd88370-8e6c-4a99-8c07-656462d5f54d",
        "display": "ONEA BWHLMREOVTEST"
      },
      "result": [ {
        "reference": "Observation/3596ec88-6bf5-487d-8771-baccf036d34a",
        "display": "MCV"
      } ]
    }
  }, {
    "resource": {
      "resourceType": "Observation",
      "id": "3596ec88-6bf5-487d-8771-baccf036d34a",
      "identifier": [ {
        "use": "official",
        "system": "urn:oid:1.3.6.1.4.1.16517",
        "value": "1013854257-10C89060-D8EC-11E2-BE1E-1708D1228400"
      } ],
      "status": "final",
      "category": [ {
        "coding": [ {
          "system": "http://terminology.hl7.org/CodeSystem/observation-category",
          "code": "laboratory"
        } ]
      } ],
      "code": {
        "coding": [ {
          "system": "http://loinc.org",
          "code": "787-2",
          "display": "Erythrocyte mean corpuscular volume [Entitic volume] by Automated count"
        } ],
        "text": "MCV"
      },
      "subject": {
        "reference": "Patient/cdd88370-8e6c-4a99-8c07-656462d5f54d",
        "display": "ONEA BWHLMREOVTEST"
      },
      "effectivePeriod": {
        "start": "2013-02-22T10:39:00+01:00"
      },
      "valueQuantity": {
        "value": 97.5,
        "unit": "um3",
        "system": "http://unitsofmeasure.org",
        "code": "um3"
      },
      "referenceRange": [ {
        "text": "80-95 um3"
      } ]
    }
  }, {
    "resource": {
      "resourceType": "DiagnosticReport",
      "id": "82f2c671-01fd-4409-955f-bfe57a04057b",
      "identifier": [ {
        "use": "official",
        "system": "urn:oid:1.3.6.1.4.1.16517",
        "value": "1013854263-10D31922-D8EC-11E2-BE1E-1708D1228400"
      } ],
      "status": "final",
      "category": [ {
        "coding": [ {
          "system": "http://terminology.hl7.org/CodeSystem/v2-0074",
          "code": "LAB",
          "display": "Laboratory"
        } ]
      } ],
      "code": {
        "coding": [ {
          "system": "http://loinc.org",
          "code": "30392-5",
          "display": "Nucleated erythrocytes [#/volume] in Blood"
        } ]
      },
      "subject": {
        "reference": "Patient/cdd88370-8e6c-4a99-8c07-656462d5f54d",
        "display": "ONEA BWHLMREOVTEST"
      },
      "result": [ {
        "reference": "Observation/fefbe848-8b08-4f91-890e-52aaf318e43d",
        "display": "NRBC #"
      } ]
    }
  }, {
    "resource": {
      "resourceType": "Observation",
      "id": "fefbe848-8b08-4f91-890e-52aaf318e43d",
      "identifier": [ {
        "use": "official",
        "system": "urn:oid:1.3.6.1.4.1.16517",
        "value": "1013854263-10D31922-D8EC-11E2-BE1E-1708D1228400"
      } ],
      "status": "final",
      "category": [ {
        "coding": [ {
          "system": "http://terminology.hl7.org/CodeSystem/observation-category",
          "code": "laboratory"
        } ]
      } ],
      "code": {
        "coding": [ {
          "system": "http://loinc.org",
          "code": "30392-5",
          "display": "Nucleated erythrocytes [#/volume] in Blood"
        } ],
        "text": "NRBC #"
      },
      "subject": {
        "reference": "Patient/cdd88370-8e6c-4a99-8c07-656462d5f54d",
        "display": "ONEA BWHLMREOVTEST"
      },
      "effectivePeriod": {
        "start": "2013-02-22T10:39:00+01:00"
      },
      "valueQuantity": {
        "value": 0.00,
        "unit": "1",
        "system": "http://unitsofmeasure.org",
        "code": "1"
      },
      "referenceRange": [ {
        "text": "0.00-0.00"
      } ]
    }
  }, {
    "resource": {
      "resourceType": "DiagnosticReport",
      "id": "7ff9f5af-caf7-447d-b674-e5ab91f1d071",
      "identifier": [ {
        "use": "official",
        "system": "urn:oid:1.3.6.1.4.1.16517",
        "value": "1013854261-10C81A36-D8EC-11E2-BE1E-1708D1228400"
      } ],
      "status": "final",
      "category": [ {
        "coding": [ {
          "system": "http://terminology.hl7.org/CodeSystem/v2-0074",
          "code": "LAB",
          "display": "Laboratory"
        } ]
      } ],
      "code": {
        "coding": [ {
          "system": "http://loinc.org",
          "code": "777-3",
          "display": "Platelets [#/volume] in Blood by Automated count"
        } ]
      },
      "subject": {
        "reference": "Patient/cdd88370-8e6c-4a99-8c07-656462d5f54d",
        "display": "ONEA BWHLMREOVTEST"
      },
      "result": [ {
        "reference": "Observation/a40d0d97-a074-4151-8359-d0d4c1f0e128",
        "display": "PLT"
      } ]
    }
  }, {
    "resource": {
      "resourceType": "Observation",
      "id": "a40d0d97-a074-4151-8359-d0d4c1f0e128",
      "identifier": [ {
        "use": "official",
        "system": "urn:oid:1.3.6.1.4.1.16517",
        "value": "1013854261-10C81A36-D8EC-11E2-BE1E-1708D1228400"
      } ],
      "status": "final",
      "category": [ {
        "coding": [ {
          "system": "http://terminology.hl7.org/CodeSystem/observation-category",
          "code": "laboratory"
        } ]
      } ],
      "code": {
        "coding": [ {
          "system": "http://loinc.org",
          "code": "777-3",
          "display": "Platelets [#/volume] in Blood by Automated count"
        } ],
        "text": "PLT"
      },
      "subject": {
        "reference": "Patient/cdd88370-8e6c-4a99-8c07-656462d5f54d",
        "display": "ONEA BWHLMREOVTEST"
      },
      "effectivePeriod": {
        "start": "2013-02-22T10:39:00+01:00"
      },
      "valueQuantity": {
        "value": 220,
        "unit": "K/uL",
        "system": "http://unitsofmeasure.org",
        "code": "K/uL"
      },
      "referenceRange": [ {
        "text": "150-450 K/uL"
      } ]
    }
  }, {
    "resource": {
      "resourceType": "Observation",
      "id": "d3cba83f-20d2-4f34-bde0-383c61a5ff0d",
      "identifier": [ {
        "use": "official",
        "system": "urn:oid:1.3.6.1.4.1.16517",
        "value": "10D85234-D8EC-11E2-BEC0-1708D1228400"
      } ],
      "status": "final",
      "code": {
        "coding": [ {
          "system": "urn:oid:2.16.840.1.113883.5.4",
          "code": "ASSERTION"
        } ]
      },
      "subject": {
        "reference": "Patient/cdd88370-8e6c-4a99-8c07-656462d5f54d",
        "display": "ONEA BWHLMREOVTEST"
      },
      "effectivePeriod": {
        "start": "2013-06-19"
      },
      "valueCodeableConcept": {
        "coding": [ {
          "system": "http://snomed.info/sct",
          "code": "266927001",
          "display": "Unknown if ever smoked"
        } ]
      }
    }
  }, {
    "resource": {
      "resourceType": "AllergyIntolerance",
      "id": "69cf7f8c-8cdd-4504-8bfa-e6fd7c25000d",
      "identifier": [ {
        "use": "official",
        "system": "urn:oid:1.3.6.1.4.1.16517",
        "value": "3355136"
      } ],
      "clinicalStatus": {
        "coding": [ {
          "system": "http://terminology.hl7.org/CodeSystem/allergyintolerance-clinical",
          "code": "active",
          "display": "Active"
        } ]
      },
      "verificationStatus": {
        "coding": [ {
          "system": "http://terminology.hl7.org/CodeSystem/allergyintolerance-verification",
          "code": "confirmed",
          "display": "Confirmed"
        } ]
      },
      "type": "allergy",
      "category": [ "environment" ],
      "code": {
        "coding": [ {
          "system": "http://www.nlm.nih.gov/research/umls/rxnorm",
          "code": "2670",
          "display": "Codeine"
        }, {
          "system": "urn:oid:2.16.840.1.113883.6.208",
          "code": "1550",
          "display": "codeine"
        } ],
        "text": "Codeine"
      },
      "patient": {
        "reference": "Patient/cdd88370-8e6c-4a99-8c07-656462d5f54d",
        "display": "ONEA BWHLMREOVTEST"
      },
      "onsetDateTime": "2013-02-22T10:51:07+01:00",
      "recordedDate": "2013-02-22T10:51:07+01:00",
      "reaction": [ {
        "manifestation": [ {
          "coding": [ {
            "system": "http://snomed.info/sct",
            "code": "267036007",
            "display": "Shortness of Breath"
          } ]
        } ]
      } ]
    }
  }, {
    "resource": {
      "resourceType": "AllergyIntolerance",
      "id": "536a7d54-1f2a-4c0f-84bb-15a924694f94",
      "identifier": [ {
        "use": "official",
        "system": "urn:oid:1.3.6.1.4.1.16517",
        "value": "3355137"
      } ],
      "clinicalStatus": {
        "coding": [ {
          "system": "http://terminology.hl7.org/CodeSystem/allergyintolerance-clinical",
          "code": "active",
          "display": "Active"
        } ]
      },
      "verificationStatus": {
        "coding": [ {
          "system": "http://terminology.hl7.org/CodeSystem/allergyintolerance-verification",
          "code": "confirmed",
          "display": "Confirmed"
        } ]
      },
      "type": "allergy",
      "category": [ "environment" ],
      "code": {
        "coding": [ {
          "system": "http://www.nlm.nih.gov/research/umls/rxnorm",
          "code": "1191",
          "display": "Aspirin"
        }, {
          "system": "urn:oid:2.16.840.1.113883.6.208",
          "code": "1587",
          "display": "aspirin"
        } ],
        "text": "Aspirin"
      },
      "patient": {
        "reference": "Patient/cdd88370-8e6c-4a99-8c07-656462d5f54d",
        "display": "ONEA BWHLMREOVTEST"
      },
      "onsetDateTime": "2013-02-22T10:51:07+01:00",
      "recordedDate": "2013-02-22T10:51:07+01:00",
      "reaction": [ {
        "manifestation": [ {
          "coding": [ {
            "system": "http://snomed.info/sct",
            "code": "247472004",
            "display": "Hives"
          } ]
        } ]
      } ]
    }
  }, {
    "resource": {
      "resourceType": "AllergyIntolerance",
      "id": "9d47aa0c-27e3-4e84-ba0e-d66cf062c623",
      "identifier": [ {
        "use": "official",
        "system": "urn:oid:1.3.6.1.4.1.16517",
        "value": "3355135"
      } ],
      "clinicalStatus": {
        "coding": [ {
          "system": "http://terminology.hl7.org/CodeSystem/allergyintolerance-clinical",
          "code": "active",
          "display": "Active"
        } ]
      },
      "verificationStatus": {
        "coding": [ {
          "system": "http://terminology.hl7.org/CodeSystem/allergyintolerance-verification",
          "code": "confirmed",
          "display": "Confirmed"
        } ]
      },
      "type": "allergy",
      "category": [ "environment" ],
      "code": {
        "text": "Penicillins"
      },
      "patient": {
        "reference": "Patient/cdd88370-8e6c-4a99-8c07-656462d5f54d",
        "display": "ONEA BWHLMREOVTEST"
      },
      "onsetDateTime": "2013-03-12T08:51:42+01:00",
      "recordedDate": "2013-03-12T08:51:42+01:00",
      "reaction": [ {
        "manifestation": [ {
          "coding": [ {
            "system": "http://snomed.info/sct",
            "code": "247472004",
            "display": "Hives"
          } ]
        } ]
      } ]
    }
  }, {
    "resource": {
      "resourceType": "MedicationStatement",
      "id": "ca5f4091-dd4d-465c-acbf-14eb68dce3e4",
      "extension": [ {
        "url": "http://hl7.org/fhir/3.0/StructureDefinition/extension-MedicationStatement.status",
        "valueCode": "UNKNOWN"
      } ],
      "identifier": [ {
        "use": "official",
        "system": "urn:oid:1.3.6.1.4.1.16517",
        "value": "4671089"
      } ],
      "status": "completed",
      "medicationReference": {
        "reference": "Medication/229f6c86-c250-43e1-99b0-50303397ae64",
        "display": "CLARITHROMYCIN 500 MG TABLET"
      },
      "subject": {
        "reference": "Patient/cdd88370-8e6c-4a99-8c07-656462d5f54d",
        "display": "ONEA BWHLMREOVTEST"
      },
      "effectivePeriod": {
        "start": "2013-02-22",
        "end": "2013-03-01"
      }
    }
  }, {
    "resource": {
      "resourceType": "Medication",
      "id": "229f6c86-c250-43e1-99b0-50303397ae64",
      "code": {
        "coding": [ {
          "system": "http://www.nlm.nih.gov/research/umls/rxnorm",
          "code": "197517",
          "display": "Clarithromycin 500 MG Oral Tablet"
        } ],
        "text": "CLARITHROMYCIN 500 MG TABLET"
      }
    }
  }, {
    "resource": {
      "resourceType": "MedicationStatement",
      "id": "d8691760-58de-4d62-967d-4d9604db6d71",
      "extension": [ {
        "url": "http://hl7.org/fhir/3.0/StructureDefinition/extension-MedicationStatement.status",
        "valueCode": "UNKNOWN"
      } ],
      "identifier": [ {
        "use": "official",
        "system": "urn:oid:1.3.6.1.4.1.16517",
        "value": "4671088"
      } ],
      "status": "completed",
      "medicationReference": {
        "reference": "Medication/fd001c29-5a68-4c5a-a52e-e0c755eb4a1c",
        "display": "ALBUTEROL INHALER HFA 90 MCG HFA AER AD"
      },
      "subject": {
        "reference": "Patient/cdd88370-8e6c-4a99-8c07-656462d5f54d",
        "display": "ONEA BWHLMREOVTEST"
      },
      "effectivePeriod": {
        "start": "2013-03-07"
      }
    }
  }, {
    "resource": {
      "resourceType": "Medication",
      "id": "fd001c29-5a68-4c5a-a52e-e0c755eb4a1c",
      "code": {
        "coding": [ {
          "system": "http://www.nlm.nih.gov/research/umls/rxnorm",
          "code": "1360201",
          "display": "Albuterol 0.09 MG/ACTUAT Metered Dose Inhaler"
        } ],
        "text": "ALBUTEROL INHALER HFA 90 MCG HFA AER AD"
      }
    }
  }, {
    "resource": {
      "resourceType": "Condition",
      "id": "2b843f66-301e-4750-879b-975bfa573021",
      "identifier": [ {
        "use": "official",
        "system": "urn:oid:1.3.6.1.4.1.16517",
        "value": "2862901"
      } ],
      "clinicalStatus": {
        "coding": [ {
          "system": "http://terminology.hl7.org/CodeSystem/condition-clinical",
          "code": "active",
          "display": "Active"
        } ]
      },
      "verificationStatus": {
        "coding": [ {
          "system": "http://terminology.hl7.org/CodeSystem/condition-ver-status",
          "code": "confirmed",
          "display": "Confirmed"
        } ]
      },
      "category": [ {
        "coding": [ {
          "system": "http://terminology.hl7.org/CodeSystem/condition-category",
          "code": "problem-list-item",
          "display": "Problem List Item"
        } ]
      } ],
      "code": {
        "coding": [ {
          "system": "http://snomed.info/sct",
          "code": "195967001",
          "display": "Asthma"
        } ],
        "text": "Asthma"
      },
      "subject": {
        "reference": "Patient/cdd88370-8e6c-4a99-8c07-656462d5f54d",
        "display": "ONEA BWHLMREOVTEST"
      }
    }
  }, {
    "resource": {
      "resourceType": "Condition",
      "id": "c3382797-640f-4a51-89e2-170d711bb06a",
      "identifier": [ {
        "use": "official",
        "system": "urn:oid:1.3.6.1.4.1.16517",
        "value": "2862902"
      } ],
      "clinicalStatus": {
        "coding": [ {
          "system": "http://terminology.hl7.org/CodeSystem/condition-clinical",
          "code": "active",
          "display": "Active"
        } ]
      },
      "verificationStatus": {
        "coding": [ {
          "system": "http://terminology.hl7.org/CodeSystem/condition-ver-status",
          "code": "confirmed",
          "display": "Confirmed"
        } ]
      },
      "category": [ {
        "coding": [ {
          "system": "http://terminology.hl7.org/CodeSystem/condition-category",
          "code": "problem-list-item",
          "display": "Problem List Item"
        } ]
      } ],
      "code": {
        "coding": [ {
          "system": "urn:oid:SNOMED",
          "code": "389087006",
          "display": "Hypoxemia"
        } ],
        "text": "Hypoxemia"
      },
      "subject": {
        "reference": "Patient/cdd88370-8e6c-4a99-8c07-656462d5f54d",
        "display": "ONEA BWHLMREOVTEST"
      }
    }
  }, {
    "resource": {
      "resourceType": "Condition",
      "id": "0142ad26-68ea-4a5c-8708-5f57f76d3ffc",
      "identifier": [ {
        "use": "official",
        "system": "urn:oid:1.3.6.1.4.1.16517",
        "value": "2862900"
      } ],
      "clinicalStatus": {
        "coding": [ {
          "system": "http://terminology.hl7.org/CodeSystem/condition-clinical",
          "code": "active",
          "display": "Active"
        } ]
      },
      "verificationStatus": {
        "coding": [ {
          "system": "http://terminology.hl7.org/CodeSystem/condition-ver-status",
          "code": "confirmed",
          "display": "Confirmed"
        } ]
      },
      "category": [ {
        "coding": [ {
          "system": "http://terminology.hl7.org/CodeSystem/condition-category",
          "code": "problem-list-item",
          "display": "Problem List Item"
        } ]
      } ],
      "code": {
        "coding": [ {
          "system": "http://snomed.info/sct",
          "code": "385093006",
          "display": "Community acquired pneumonia"
        } ],
        "text": "Community acquired pneumonia"
      },
      "subject": {
        "reference": "Patient/cdd88370-8e6c-4a99-8c07-656462d5f54d",
        "display": "ONEA BWHLMREOVTEST"
      }
    }
  } ]
}