{
  "resourceType": "Bundle",
  "entry": [ {
    "resource": {
      "resourceType": "Composition",
      "id": "e337cfb9-35f2-4589-8eaa-f428859d9a1d",
      "identifier": {
        "use": "official",
        "system": "urn:oid:1.3.6.1.4.1.16517",
        "value": "E382F7D2-940F-11E3-92B1-1CC4B7D83400"
      },
      "status": "preliminary",
      "type": {
        "coding": [ {
          "system": "http://loinc.org",
          "code": "34133-9",
          "display": "Summarization of Episode Note"
        } ]
      },
      "category": [ {
        "coding": [ {
          "system": "http://hl7.org/fhir/ValueSet/doc-classcodes",
          "code": "LP173421-7",
          "display": "Note"
        } ]
      } ],
      "subject": {
        "reference": "Patient/cd9745dc-c0b3-4852-b5f5-a7201264c273",
        "display": "TWOTEST BWHCKDRISKTEST"
      },
      "date": "2014-02-12T13:02:51-05:00",
      "title": "BPG AT 850 BOYLSTON - INTERNAL MEDICINE  Summarization of Episode Note",
      "confidentiality": "N",
      "custodian": {
        "reference": "Organization/58697351-b6de-4754-8e2a-45900ea5b954",
        "display": "Partners HealthCare"
      },
      "event": [ {
        "period": {
          "end": "2014-02-12T13:02:51+01:00"
        },
        "detail": [ {
          "reference": "Practitioner/4a4f70b4-fe3f-42b2-8e7c-f273350eb7b2"
        } ]
      } ],
      "section": [ {
        "title": "Functional Status",
        "code": {
          "coding": [ {
            "system": "http://loinc.org",
            "code": "47420-5",
            "display": "Functional status assessment note"
          } ]
        },
        "text": {
          "status": "additional",
          "div": "<div xmlns=\"http://www.w3.org/1999/xhtml\"><table border=\"1\" width=\"100%\"><thead><tr><th>Date</th><th>Assessment</th></tr></thead><tbody><tr><td>02/12/2014</td><td>No functional assessment data is applicable</td></tr><tr><td>02/12/2014</td><td>No cognitive assessment data is applicable</td></tr></tbody></table></div>"
        },
        "mode": "snapshot"
      }, {
        "title": "Allergies",
        "code": {
          "coding": [ {
            "system": "http://loinc.org",
            "code": "48765-2",
            "display": "Allergies, adverse reactions, alert "
          } ]
        },
        "text": {
          "status": "additional",
          "div": "<div xmlns=\"http://www.w3.org/1999/xhtml\"><table border=\"1\" width=\"100%\"><thead><tr><th>Date</th><th>Allergies</th><th>Status</th></tr></thead><tbody><tr><td>02/12/2014 13:02</td><td>No allergy data is applicable</td><td>active</td></tr></tbody></table></div>"
        },
        "mode": "snapshot",
        "entry": [ {
          "reference": "AllergyIntolerance/19d97e39-dad4-4a92-9976-f082fe691024"
        } ]
      }, {
        "title": "Problems",
        "code": {
          "coding": [ {
            "system": "http://loinc.org",
            "code": "11450-4",
            "display": "Problem List"
          } ]
        },
        "text": {
          "status": "additional",
          "div": "<div xmlns=\"http://www.w3.org/1999/xhtml\"><table border=\"1\" width=\"100%\"><thead><tr><th>Date</th><th>Problems</th></tr></thead><tbody><tr><td>02/12/2014 13:02</td><td>No problem data is applicable</td></tr></tbody></table></div>"
        },
        "mode": "snapshot",
        "entry": [ {
          "reference": "Condition/c3f2a35c-1957-415d-8a63-c0b1a3c9d8b2"
        } ]
      }, {
        "title": "Plan of Care",
        "code": {
          "coding": [ {
            "system": "http://loinc.org",
            "code": "18776-5",
            "display": "Treatment plan"
          } ]
        },
        "text": {
          "status": "additional",
          "div": "<div xmlns=\"http://www.w3.org/1999/xhtml\"><table border=\"1\" width=\"100%\"><thead><tr><th>Date</th><th>Care Plan</th></tr></thead><tbody><tr><td>02/12/2014 13:02</td><td>No goal and instruction data is applicable</td></tr></tbody></table></div>"
        },
        "mode": "snapshot",
        "entry": [ {
          "reference": "CarePlan/093114a2-7d4f-4fcc-b5bd-5698a8cc2c6b"
        } ]
      }, {
        "title": "Medications",
        "code": {
          "coding": [ {
            "system": "http://loinc.org",
            "code": "10160-0",
            "display": "History of medication use"
          } ]
        },
        "text": {
          "status": "additional",
          "div": "<div xmlns=\"http://www.w3.org/1999/xhtml\"><table border=\"1\" width=\"100%\"><thead><tr><th>Date</th><th>Medications</th></tr></thead><tbody><tr><td>02/12/2014 13:02</td><td>No medication data is applicable</td></tr></tbody></table></div>"
        },
        "mode": "snapshot",
        "entry": [ {
          "reference": "MedicationStatement/361b2873-1f00-4560-af64-6a6ae273cb09",
          "display": "No medication data is applicable"
        } ]
      }, {
        "title": "Encounters",
        "code": {
          "coding": [ {
            "system": "http://loinc.org",
            "code": "46240-8",
            "display": "History of Encounters"
          } ]
        },
        "text": {
          "status": "additional",
          "div": "<div xmlns=\"http://www.w3.org/1999/xhtml\"><table border=\"1\" width=\"100%\"><thead><tr><th>Date</th><th>Description</th></tr></thead><tbody><tr><td>02/12/2014 13:02</td><td>No encounter diagnosis data is applicable</td></tr></tbody></table></div>"
        },
        "mode": "snapshot",
        "entry": [ {
          "reference": "Encounter/78828709-57c8-4d51-935f-cdf3127e1977",
          "display": "No encounter diagnosis data is applicable"
        } ]
      }, {
        "title": "Vital Signs",
        "code": {
          "coding": [ {
            "system": "http://loinc.org",
            "code": "8716-3",
            "display": "Vital signs"
          } ]
        },
        "text": {
          "status": "additional",
          "div": "<div xmlns=\"http://www.w3.org/1999/xhtml\"><table border=\"1\" width=\"100%\"><thead><tr><th>Date</th><th>Vital Sign</th></tr></thead><tbody><tr><td>02/12/2014 13:02</td><td>No vital sign data is applicable</td></tr></tbody></table></div>"
        },
        "mode": "snapshot",
        "entry": [ {
          "reference": "Observation/4a131730-0b47-412d-9116-ae4c553ddc68",
          "display": "No vital sign data is applicable"
        } ]
      }, {
        "title": "Procedures",
        "code": {
          "coding": [ {
            "system": "http://loinc.org",
            "code": "47519-4",
            "display": "History of procedures"
          } ]
        },
        "text": {
          "status": "additional",
          "div": "<div xmlns=\"http://www.w3.org/1999/xhtml\"><table border=\"1\" width=\"100%\"><thead><tr><th>Date</th><th>Procedures</th></tr></thead><tbody><tr><td>02/12/2014 13:02</td><td>No procedure data is applicable</td></tr></tbody></table></div>"
        },
        "mode": "snapshot",
        "entry": [ {
          "reference": "Procedure/fce059f9-88b0-4de5-86c6-5006bedbc707",
          "display": "No procedure data is applicable"
        } ]
      }, {
        "title": "Results",
        "code": {
          "coding": [ {
            "system": "http://loinc.org",
            "code": "30954-2",
            "display": "Relevant diagnostic tests and/or laboratory data"
          } ]
        },
        "text": {
          "status": "additional",
          "div": "<div xmlns=\"http://www.w3.org/1999/xhtml\"><table border=\"1\" width=\"100%\"><thead><tr><th>Date</th><th>Test</th><th>Value</th><th>Reference Range</th><th>Abnormal Flag</th><th>Comments</th><th>Ordering Provider</th></tr></thead><tbody><tr><td>02/11/2014 13:54</td><td>SODIUM</td><td>141 mmol/L</td><td>136-145 mmol/L</td><td>Not available</td><td>Not available</td><td>HUSSAIN,SADIA S. M.D.</td></tr><tr><td>02/11/2014 13:54</td><td>POTASSIUM</td><td>4.4 mmol/L</td><td>3.4-5.0 mmol/L</td><td>Not available</td><td>Not available</td><td>HUSSAIN,SADIA S. M.D.</td></tr><tr><td>02/11/2014 13:54</td><td>CHLORIDE</td><td>103 mmol/L</td><td>98-107 mmol/L</td><td>Not available</td><td>Not available</td><td>HUSSAIN,SADIA S. M.D.</td></tr><tr><td>02/11/2014 13:54</td><td>TOTAL CO2</td><td>29 mmol/L</td><td>22-31 mmol/L</td><td>Not available</td><td>Not available</td><td>HUSSAIN,SADIA S. M.D.</td></tr><tr><td>02/11/2014 13:54</td><td>UREA N</td><td>14 mg/dL</td><td>6-23 mg/dL</td><td>Not available</td><td>Not available</td><td>HUSSAIN,SADIA S. M.D.</td></tr><tr><td>02/11/2014 13:54</td><td>CALCIUM</td><td>9.4 mg/dL</td><td>8.8-10.7 mg/dL</td><td>Not available</td><td>Not available</td><td>HUSSAIN,SADIA S. M.D.</td></tr><tr><td>02/11/2014 13:54</td><td>CREATININE</td><td>1.90 mg/dL</td><td>0.50-1.20 mg/dL</td><td>Not available</td><td>Not available</td><td>HUSSAIN,SADIA S. M.D.</td></tr><tr><td>02/11/2014 13:54</td><td>GLUCOSE</td><td>91 mg/dL</td><td>70-100 mg/dL</td><td>Not available</td><td>Not available</td><td>HUSSAIN,SADIA S. M.D.</td></tr><tr><td>02/11/2014 13:54</td><td>ANION GAP</td><td>10 mmol/L</td><td>5-17 mmol/L</td><td>Not available</td><td>Not available</td><td>HUSSAIN,SADIA S. M.D.</td></tr><tr><td>02/11/2014 13:54</td><td>eGFR</td><td>38 </td><td>Not available</td><td>Not available</td><td>(Abnormal if &amp;lt;60 mL/min/1.73m2If patient is black, multiply by 1.21)</td><td>HUSSAIN,SADIA S. M.D.</td></tr><tr><td>02/10/2014 10:00</td><td>TOTAL CO2</td><td>29 mmol/L</td><td>22-31 mmol/L</td><td>Not available</td><td>Not available</td><td>Not available</td></tr><tr><td>02/10/2014 10:00</td><td>ALBUMIN</td><td>4.1 g/dL</td><td>3.5-5.2 g/dL</td><td>Not available</td><td>Not available</td><td>Not available</td></tr><tr><td>02/10/2014 10:00</td><td>CALCIUM</td><td>9.4 mg/dL</td><td>8.8-10.7 mg/dL</td><td>Not available</td><td>Not available</td><td>Not available</td></tr><tr><td>02/10/2014 10:00</td><td>CREATININE</td><td>1.9 mg/dL</td><td>0.50-1.20 mg/dL</td><td>Not available</td><td>Not available</td><td>Not available</td></tr><tr><td>02/10/2014 10:00</td><td>PHOSPHATE</td><td>4.2 mg/dL</td><td>2.4-4.3 mg/dL</td><td>Not available</td><td>Not available</td><td>Not available</td></tr><tr><td>02/10/2014 10:00</td><td>eGFR</td><td>38 </td><td>Not available</td><td>Not available</td><td>(Abnormal if &amp;lt;60 mL/min/1.73m2If patient is black, multiply by 1.21)</td><td>Not available</td></tr><tr><td>02/10/2014 09:30</td><td>Malb</td><td>4.1 mg/dL</td><td>0.0-2.0 mg/dL</td><td>*</td><td>Not available</td><td>SINGH,KARANDEEP M.D.</td></tr><tr><td>02/10/2014 09:30</td><td>Malb/Cr</td><td>221 mgAlb/gCre</td><td>0.0-30 mgAlb/gCre</td><td>*</td><td>Not available</td><td>SINGH,KARANDEEP M.D.</td></tr><tr><td>02/10/2014 09:30</td><td>TIME SPAN</td><td>RANDOM</td><td>Not available</td><td>Not available</td><td>Not available</td><td>SINGH,KARANDEEP M.D.</td></tr></tbody></table></div>"
        },
        "mode": "snapshot",
        "entry": [ {
          "reference": "DiagnosticReport/4b7503cb-3051-4060-ac47-321d201839ed",
          "display": "Anion gap 3 in Serum or Plasma"
        }, {
          "reference": "DiagnosticReport/dce8730c-698c-4d75-b6ce-fa336d375303",
          "display": "Deprecated Glucose [Mass/volume] in Serum or Plasma"
        }, {
          "reference": "DiagnosticReport/cefabf56-a95f-46f9-b00a-284f7bb078d4",
          "display": "Potassium [Moles/volume] in Serum or Plasma"
        }, {
          "reference": "DiagnosticReport/06cb2b5b-de8e-4841-9d63-d510bbb14690",
          "display": "Phosphate [Mass/volume] in Serum or Plasma"
        }, {
          "reference": "DiagnosticReport/f6ba7115-2bc7-4584-b571-59e5e7f10972",
          "display": "Carbon dioxide, total [Moles/volume] in Serum or Plasma"
        }, {
          "reference": "DiagnosticReport/c5752817-775b-49fa-8351-6d83b89defe5",
          "display": "Creatinine [Mass/volume] in Serum or Plasma"
        }, {
          "reference": "DiagnosticReport/1a967fc5-fb50-4c2d-b158-c2fa19a7537a",
          "display": "Microalbumin/Creatinine [Mass Ratio] in Urine"
        }, {
          "reference": "DiagnosticReport/fe40c4be-eb22-41f6-b3f8-7e2fcea17063",
          "display": "Collection duration of Urine"
        }, {
          "reference": "DiagnosticReport/35fdd561-3a7c-46e3-b0ec-1c122aefa841",
          "display": "Microalbumin [Mass/volume] in Urine"
        }, {
          "reference": "DiagnosticReport/aab02c9d-4819-49e5-ab35-3af611f79b55",
          "display": "Calcium [Mass/volume] in Serum or Plasma"
        }, {
          "reference": "DiagnosticReport/a657e831-54c5-4dcf-8b65-da4de5e88360",
          "display": "Calcium [Mass/volume] in Serum or Plasma"
        }, {
          "reference": "DiagnosticReport/142e33d7-c3b2-4ee6-938f-0fa3e2c5301a",
          "display": "Glomerular filtration rate/1.73 sq M.predicted by Creatinine-based formula (MDRD)"
        }, {
          "reference": "DiagnosticReport/9ccd6073-9400-4b0d-b6ca-f73dfc1c8c6a",
          "display": "Sodium [Moles/volume] in Serum or Plasma"
        }, {
          "reference": "DiagnosticReport/eb47eaad-e75b-4d30-8c30-a27eb948b9b8",
          "display": "Glomerular filtration rate/1.73 sq M.predicted by Creatinine-based formula (MDRD)"
        }, {
          "reference": "DiagnosticReport/e97fb148-ba5e-40b3-9d37-ff24ed63dd78",
          "display": "Carbon dioxide, total [Moles/volume] in Serum or Plasma"
        }, {
          "reference": "DiagnosticReport/6bbf4827-48d2-4032-966c-1367c65da256",
          "display": "Creatinine [Mass/volume] in Serum or Plasma"
        }, {
          "reference": "DiagnosticReport/bd85618d-937e-4f36-87a8-9929f1d3f460",
          "display": "Urea nitrogen [Mass/volume] in Serum or Plasma"
        }, {
          "reference": "DiagnosticReport/feab6b53-0978-4f7e-b8ee-00f0b1aaed47",
          "display": "Albumin [Mass/volume] in Serum or Plasma"
        }, {
          "reference": "DiagnosticReport/b539cba6-f594-4ab1-b32f-ad0f4d5d6063",
          "display": "Chloride [Moles/volume] in Serum or Plasma"
        } ]
      }, {
        "title": "Immunizations",
        "code": {
          "coding": [ {
            "system": "http://loinc.org",
            "code": "11369-6",
            "display": "History of immunizations"
          } ]
        },
        "text": {
          "status": "additional",
          "div": "<div xmlns=\"http://www.w3.org/1999/xhtml\"><table border=\"1\" width=\"100%\"><thead><tr><th>Date</th><th>Immunizations</th></tr></thead><tbody><tr><td>02/12/2014 13:02</td><td>No immunization data is applicable</td></tr></tbody></table></div>"
        },
        "mode": "snapshot",
        "entry": [ {
          "reference": "Immunization/25084019-0996-43fd-9c88-9848409ad946",
          "display": "No immunization data is applicable"
        } ]
      }, {
        "title": "Social History",
        "code": {
          "coding": [ {
            "system": "http://loinc.org",
            "code": "29762-2",
            "display": "Social History"
          } ]
        },
        "text": {
          "status": "additional",
          "div": "<div xmlns=\"http://www.w3.org/1999/xhtml\"><table border=\"1\" width=\"100%\"><thead><tr><th>Date</th><th>Type</th></tr></thead><tbody><tr><td>02/12/2014</td><td>No smoking status data is applicable</td></tr></tbody></table></div>"
        },
        "mode": "snapshot",
        "entry": [ {
          "reference": "Observation/409d5e56-2ebe-4284-9dcb-841e5d649adc"
        } ]
      } ]
    }
  }, {
    "resource": {
      "resourceType": "Patient",
      "id": "cd9745dc-c0b3-4852-b5f5-a7201264c273",
      "extension": [ {
        "url": "http://hl7.org/fhir/us/core/StructureDefinition/us-core-race",
        "extension": [ {
          "url": "text",
          "valueString": "White"
        }, {
          "url": "ombCategory",
          "valueCoding": {
            "system": "urn:oid:2.16.840.1.113883.6.238",
            "code": "2106-3",
            "display": "White"
          }
        } ]
      }, {
        "url": "http://hl7.org/fhir/us/core/StructureDefinition/us-core-ethnicity",
        "extension": [ {
          "url": "text",
          "valueString": "Not Hispanic or Latino"
        }, {
          "url": "ombCategory",
          "valueCoding": {
            "system": "urn:oid:2.16.840.1.113883.6.238",
            "code": "2186-5",
            "display": "Not Hispanic or Latino"
          }
        } ]
      } ],
      "identifier": [ {
        "use": "official",
        "system": "urn:oid:1.3.6.1.4.1.16517.1",
        "value": "107624082"
      }, {
        "use": "official",
        "system": "urn:oid:1.3.6.1.4.1.16517.2.2",
        "value": "50068642"
      } ],
      "name": [ {
        "family": "BWHCKDRISKTEST",
        "given": [ "TWOTEST" ]
      } ],
      "telecom": [ {
        "system": "phone",
        "value": "(508)555-1212",
        "use": "home"
      } ],
      "gender": "male",
      "birthDate": "1954-02-02",
      "address": [ {
        "line": [ "2324 MAIN STREET" ],
        "city": "BOSTON",
        "state": "MA",
        "postalCode": "02109",
        "country": "US"
      } ]
    }
  }, {
    "resource": {
      "resourceType": "Practitioner",
      "id": "4a4f70b4-fe3f-42b2-8e7c-f273350eb7b2"
    }
  }, {
    "resource": {
      "resourceType": "Organization",
      "id": "58697351-b6de-4754-8e2a-45900ea5b954",
      "identifier": [ {
        "use": "official",
        "system": "urn:oid:1.3.6.1.4.1.16517",
        "value": "PHS"
      } ],
      "name": "Partners HealthCare",
      "telecom": [ {
        "system": "phone",
        "value": "(617)278-1000",
        "use": "work"
      } ],
      "address": [ {
        "line": [ "Prudential Tower", "800 Boylston Street, Suite 1150" ],
        "city": "Boston",
        "state": "MA",
        "postalCode": "02199-8001"
      } ]
    }
  }, {
    "resource": {
      "resourceType": "AllergyIntolerance",
      "id": "19d97e39-dad4-4a92-9976-f082fe691024",
      "identifier": [ {
        "use": "official",
        "system": "urn:oid:1.3.6.1.4.1.16517",
        "value": "1"
      } ],
      "clinicalStatus": {
        "coding": [ {
          "system": "http://terminology.hl7.org/CodeSystem/allergyintolerance-clinical",
          "code": "active",
          "display": "Active"
        } ]
      },
      "verificationStatus": {
        "coding": [ {
          "system": "http://terminology.hl7.org/CodeSystem/allergyintolerance-verification",
          "code": "confirmed",
          "display": "Confirmed"
        } ]
      },
      "patient": {
        "reference": "Patient/cd9745dc-c0b3-4852-b5f5-a7201264c273",
        "display": "TWOTEST BWHCKDRISKTEST"
      },
      "recordedDate": "2014-02-12T13:02:51+01:00"
    }
  }, {
    "resource": {
      "resourceType": "Condition",
      "id": "c3f2a35c-1957-415d-8a63-c0b1a3c9d8b2",
      "clinicalStatus": {
        "coding": [ {
          "system": "http://terminology.hl7.org/CodeSystem/condition-clinical",
          "code": "active",
          "display": "Active"
        } ]
      },
      "verificationStatus": {
        "coding": [ {
          "system": "http://terminology.hl7.org/CodeSystem/condition-ver-status",
          "code": "confirmed",
          "display": "Confirmed"
        } ]
      },
      "category": [ {
        "coding": [ {
          "system": "http://terminology.hl7.org/CodeSystem/condition-category",
          "code": "problem-list-item",
          "display": "Problem List Item"
        } ]
      } ],
      "subject": {
        "reference": "Patient/cd9745dc-c0b3-4852-b5f5-a7201264c273",
        "display": "TWOTEST BWHCKDRISKTEST"
      },
      "onsetDateTime": "2014-02-12T13:02:51+01:00"
    }
  }, {
    "resource": {
      "resourceType": "CarePlan",
      "id": "093114a2-7d4f-4fcc-b5bd-5698a8cc2c6b",
      "text": {
        "status": "additional",
        "div": "<div xmlns=\"http://www.w3.org/1999/xhtml\"><table border=\"1\" width=\"100%\"><thead><tr><th>Date</th><th>Care Plan</th></tr></thead><tbody><tr><td>02/12/2014 13:02</td><td>No goal and instruction data is applicable</td></tr></tbody></table></div>"
      },
      "status": "active",
      "intent": "plan",
      "category": [ {
        "coding": [ {
          "system": "http://hl7.org/fhir/us/core/CodeSystem/careplan-category",
          "code": "assess-plan"
        } ]
      } ],
      "title": "Plan of Care",
      "description": "<div><table border=\"1\" width=\"100%\"><thead><tr><th>Date</th><th>Care Plan</th></tr></thead><tbody><tr><td>02/12/2014 13:02</td><td>No goal and instruction data is applicable</td></tr></tbody></table></div>",
      "subject": {
        "reference": "Patient/cd9745dc-c0b3-4852-b5f5-a7201264c273",
        "display": "TWOTEST BWHCKDRISKTEST"
      }
    }
  }, {
    "resource": {
      "resourceType": "MedicationStatement",
      "id": "361b2873-1f00-4560-af64-6a6ae273cb09",
      "extension": [ {
        "url": "http://hl7.org/fhir/3.0/StructureDefinition/extension-MedicationStatement.status",
        "valueCode": "UNKNOWN"
      } ],
      "status": "completed",
      "medicationReference": {
        "reference": "Medication/8f2bdad6-b42c-46f6-a823-3e8ca6383898",
        "display": "No medication data is applicable"
      },
      "subject": {
        "reference": "Patient/cd9745dc-c0b3-4852-b5f5-a7201264c273",
        "display": "TWOTEST BWHCKDRISKTEST"
      },
      "effectivePeriod": {
        "start": "2014-02-12T13:02:51+01:00"
      }
    }
  }, {
    "resource": {
      "resourceType": "Medication",
      "id": "8f2bdad6-b42c-46f6-a823-3e8ca6383898",
      "code": {
        "text": "No medication data is applicable"
      }
    }
  }, {
    "resource": {
      "resourceType": "Encounter",
      "id": "78828709-57c8-4d51-935f-cdf3127e1977",
      "status": "finished",
      "type": [ {
        "coding": [ {
          "system": "http://snomed.info/sct",
          "code": "371531000",
          "display": "encounter report"
        } ],
        "text": "No encounter diagnosis data is applicable"
      } ],
      "subject": {
        "reference": "Patient/cd9745dc-c0b3-4852-b5f5-a7201264c273",
        "display": "TWOTEST BWHCKDRISKTEST"
      },
      "period": {
        "start": "2014-02-12T13:02:51+01:00"
      }
    }
  }, {
    "resource": {
      "resourceType": "Observation",
      "id": "4a131730-0b47-412d-9116-ae4c553ddc68",
      "status": "final",
      "category": [ {
        "coding": [ {
          "system": "http://terminology.hl7.org/CodeSystem/observation-category",
          "code": "vital-signs",
          "display": "Vital Signs"
        } ]
      } ],
      "code": {
        "text": "No vital sign data is applicable"
      },
      "subject": {
        "reference": "Patient/cd9745dc-c0b3-4852-b5f5-a7201264c273",
        "display": "TWOTEST BWHCKDRISKTEST"
      },
      "effectivePeriod": {
        "start": "2014-02-12T13:02:51+01:00"
      },
      "dataAbsentReason": {
        "coding": [ {
          "system": "http://hl7.org/fhir/data-absent-reason",
          "code": "temp",
          "display": "Temp"
        } ]
      }
    }
  }, {
    "resource": {
      "resourceType": "Procedure",
      "id": "fce059f9-88b0-4de5-86c6-5006bedbc707",
      "status": "completed",
      "code": {
        "text": "No procedure data is applicable"
      },
      "subject": {
        "reference": "Patient/cd9745dc-c0b3-4852-b5f5-a7201264c273",
        "display": "TWOTEST BWHCKDRISKTEST"
      },
      "performedPeriod": {
        "start": "2014-02-12T13:02:51+01:00"
      }
    }
  }, {
    "resource": {
      "resourceType": "DiagnosticReport",
      "id": "4b7503cb-3051-4060-ac47-321d201839ed",
      "identifier": [ {
        "use": "official",
        "system": "urn:oid:1.3.6.1.4.1.16517",
        "value": "100025030733-E3869EB4-940F-11E3-B318-1CC4B7D83400"
      } ],
      "status": "final",
      "category": [ {
        "coding": [ {
          "system": "http://terminology.hl7.org/CodeSystem/v2-0074",
          "code": "LAB",
          "display": "Laboratory"
        } ]
      } ],
      "code": {
        "coding": [ {
          "system": "http://loinc.org",
          "code": "10466-1",
          "display": "Anion gap 3 in Serum or Plasma"
        } ]
      },
      "subject": {
        "reference": "Patient/cd9745dc-c0b3-4852-b5f5-a7201264c273",
        "display": "TWOTEST BWHCKDRISKTEST"
      },
      "result": [ {
        "reference": "Observation/0992efda-eda6-4922-b204-ae7910ee6f6b",
        "display": "ANION GAP"
      } ]
    }
  }, {
    "resource": {
      "resourceType": "Observation",
      "id": "0992efda-eda6-4922-b204-ae7910ee6f6b",
      "identifier": [ {
        "use": "official",
        "system": "urn:oid:1.3.6.1.4.1.16517",
        "value": "100025030733-E3869EB4-940F-11E3-B318-1CC4B7D83400"
      } ],
      "status": "final",
      "category": [ {
        "coding": [ {
          "system": "http://terminology.hl7.org/CodeSystem/observation-category",
          "code": "laboratory"
        } ]
      } ],
      "code": {
        "coding": [ {
          "system": "http://loinc.org",
          "code": "10466-1",
          "display": "Anion gap 3 in Serum or Plasma"
        } ],
        "text": "ANION GAP"
      },
      "subject": {
        "reference": "Patient/cd9745dc-c0b3-4852-b5f5-a7201264c273",
        "display": "TWOTEST BWHCKDRISKTEST"
      },
      "effectivePeriod": {
        "start": "2014-02-11T13:54:00+01:00"
      },
      "valueQuantity": {
        "value": 10,
        "unit": "mmol/L",
        "system": "http://unitsofmeasure.org",
        "code": "mmol/L"
      },
      "referenceRange": [ {
        "text": "5-17 mmol/L"
      } ]
    }
  }, {
    "resource": {
      "resourceType": "DiagnosticReport",
      "id": "dce8730c-698c-4d75-b6ce-fa336d375303",
      "identifier": [ {
        "use": "official",
        "system": "urn:oid:1.3.6.1.4.1.16517",
        "value": "100025030726-E386387A-940F-11E3-B318-1CC4B7D83400"
      } ],
      "status": "final",
      "category": [ {
        "coding": [ {
          "system": "http://terminology.hl7.org/CodeSystem/v2-0074",
          "code": "LAB",
          "display": "Laboratory"
        } ]
      } ],
      "code": {
        "coding": [ {
          "system": "http://loinc.org",
          "code": "6777-7",
          "display": "Deprecated Glucose [Mass/volume] in Serum or Plasma"
        } ]
      },
      "subject": {
        "reference": "Patient/cd9745dc-c0b3-4852-b5f5-a7201264c273",
        "display": "TWOTEST BWHCKDRISKTEST"
      },
      "result": [ {
        "reference": "Observation/9c0a8e07-ddbb-4ac5-a228-095bdc1ba4d5",
        "display": "GLUCOSE"
      } ]
    }
  }, {
    "resource": {
      "resourceType": "Observation",
      "id": "9c0a8e07-ddbb-4ac5-a228-095bdc1ba4d5",
      "identifier": [ {
        "use": "official",
        "system": "urn:oid:1.3.6.1.4.1.16517",
        "value": "100025030726-E386387A-940F-11E3-B318-1CC4B7D83400"
      } ],
      "status": "final",
      "category": [ {
        "coding": [ {
          "system": "http://terminology.hl7.org/CodeSystem/observation-category",
          "code": "laboratory"
        } ]
      } ],
      "code": {
        "coding": [ {
          "system": "http://loinc.org",
          "code": "6777-7",
          "display": "Deprecated Glucose [Mass/volume] in Serum or Plasma"
        } ],
        "text": "GLUCOSE"
      },
      "subject": {
        "reference": "Patient/cd9745dc-c0b3-4852-b5f5-a7201264c273",
        "display": "TWOTEST BWHCKDRISKTEST"
      },
      "effectivePeriod": {
        "start": "2014-02-11T13:54:00+01:00"
      },
      "valueQuantity": {
        "value": 91,
        "unit": "mg/dL",
        "system": "http://unitsofmeasure.org",
        "code": "mg/dL"
      },
      "referenceRange": [ {
        "text": "70-100 mg/dL"
      } ]
    }
  }, {
    "resource": {
      "resourceType": "DiagnosticReport",
      "id": "cefabf56-a95f-46f9-b00a-284f7bb078d4",
      "identifier": [ {
        "use": "official",
        "system": "urn:oid:1.3.6.1.4.1.16517",
        "value": "100025030730-E38471A2-940F-11E3-B318-1CC4B7D83400"
      } ],
      "status": "final",
      "category": [ {
        "coding": [ {
          "system": "http://terminology.hl7.org/CodeSystem/v2-0074",
          "code": "LAB",
          "display": "Laboratory"
        } ]
      } ],
      "code": {
        "coding": [ {
          "system": "http://loinc.org",
          "code": "2823-3",
          "display": "Potassium [Moles/volume] in Serum or Plasma"
        } ]
      },
      "subject": {
        "reference": "Patient/cd9745dc-c0b3-4852-b5f5-a7201264c273",
        "display": "TWOTEST BWHCKDRISKTEST"
      },
      "result": [ {
        "reference": "Observation/196eb2ab-3eb0-4e2a-b67b-fab6f7a4784c",
        "display": "POTASSIUM"
      } ]
    }
  }, {
    "resource": {
      "resourceType": "Observation",
      "id": "196eb2ab-3eb0-4e2a-b67b-fab6f7a4784c",
      "identifier": [ {
        "use": "official",
        "system": "urn:oid:1.3.6.1.4.1.16517",
        "value": "100025030730-E38471A2-940F-11E3-B318-1CC4B7D83400"
      } ],
      "status": "final",
      "category": [ {
        "coding": [ {
          "system": "http://terminology.hl7.org/CodeSystem/observation-category",
          "code": "laboratory"
        } ]
      } ],
      "code": {
        "coding": [ {
          "system": "http://loinc.org",
          "code": "2823-3",
          "display": "Potassium [Moles/volume] in Serum or Plasma"
        } ],
        "text": "POTASSIUM"
      },
      "subject": {
        "reference": "Patient/cd9745dc-c0b3-4852-b5f5-a7201264c273",
        "display": "TWOTEST BWHCKDRISKTEST"
      },
      "effectivePeriod": {
        "start": "2014-02-11T13:54:00+01:00"
      },
      "valueQuantity": {
        "value": 4.4,
        "unit": "mmol/L",
        "system": "http://unitsofmeasure.org",
        "code": "mmol/L"
      },
      "referenceRange": [ {
        "text": "3.4-5.0 mmol/L"
      } ]
    }
  }, {
    "resource": {
      "resourceType": "DiagnosticReport",
      "id": "06cb2b5b-de8e-4841-9d63-d510bbb14690",
      "identifier": [ {
        "use": "official",
        "system": "urn:oid:1.3.6.1.4.1.16517",
        "value": "100025030661-E3866F7A-940F-11E3-B318-1CC4B7D83400"
      } ],
      "status": "final",
      "category": [ {
        "coding": [ {
          "system": "http://terminology.hl7.org/CodeSystem/v2-0074",
          "code": "LAB",
          "display": "Laboratory"
        } ]
      } ],
      "code": {
        "coding": [ {
          "system": "http://loinc.org",
          "code": "2777-1",
          "display": "Phosphate [Mass/volume] in Serum or Plasma"
        } ]
      },
      "subject": {
        "reference": "Patient/cd9745dc-c0b3-4852-b5f5-a7201264c273",
        "display": "TWOTEST BWHCKDRISKTEST"
      },
      "result": [ {
        "reference": "Observation/7c2f7405-253d-4ae9-b42e-80b36dc22b7c",
        "display": "PHOSPHATE"
      } ]
    }
  }, {
    "resource": {
      "resourceType": "Observation",
      "id": "7c2f7405-253d-4ae9-b42e-80b36dc22b7c",
      "identifier": [ {
        "use": "official",
        "system": "urn:oid:1.3.6.1.4.1.16517",
        "value": "100025030661-E3866F7A-940F-11E3-B318-1CC4B7D83400"
      } ],
      "status": "final",
      "category": [ {
        "coding": [ {
          "system": "http://terminology.hl7.org/CodeSystem/observation-category",
          "code": "laboratory"
        } ]
      } ],
      "code": {
        "coding": [ {
          "system": "http://loinc.org",
          "code": "2777-1",
          "display": "Phosphate [Mass/volume] in Serum or Plasma"
        } ],
        "text": "PHOSPHATE"
      },
      "subject": {
        "reference": "Patient/cd9745dc-c0b3-4852-b5f5-a7201264c273",
        "display": "TWOTEST BWHCKDRISKTEST"
      },
      "effectivePeriod": {
        "start": "2014-02-10T10:00:00+01:00"
      },
      "valueQuantity": {
        "value": 4.2,
        "unit": "mg/dL",
        "system": "http://unitsofmeasure.org",
        "code": "mg/dL"
      },
      "referenceRange": [ {
        "text": "2.4-4.3 mg/dL"
      } ]
    }
  }, {
    "resource": {
      "resourceType": "DiagnosticReport",
      "id": "f6ba7115-2bc7-4584-b571-59e5e7f10972",
      "identifier": [ {
        "use": "official",
        "system": "urn:oid:1.3.6.1.4.1.16517",
        "value": "100025030663-E3850202-940F-11E3-B318-1CC4B7D83400"
      } ],
      "status": "final",
      "category": [ {
        "coding": [ {
          "system": "http://terminology.hl7.org/CodeSystem/v2-0074",
          "code": "LAB",
          "display": "Laboratory"
        } ]
      } ],
      "code": {
        "coding": [ {
          "system": "http://loinc.org",
          "code": "2028-9",
          "display": "Carbon dioxide, total [Moles/volume] in Serum or Plasma"
        } ]
      },
      "subject": {
        "reference": "Patient/cd9745dc-c0b3-4852-b5f5-a7201264c273",
        "display": "TWOTEST BWHCKDRISKTEST"
      },
      "result": [ {
        "reference": "Observation/37c1337f-4c62-44a0-9bcb-65e828d4a78a",
        "display": "TOTAL CO2"
      } ]
    }
  }, {
    "resource": {
      "resourceType": "Observation",
      "id": "37c1337f-4c62-44a0-9bcb-65e828d4a78a",
      "identifier": [ {
        "use": "official",
        "system": "urn:oid:1.3.6.1.4.1.16517",
        "value": "100025030663-E3850202-940F-11E3-B318-1CC4B7D83400"
      } ],
      "status": "final",
      "category": [ {
        "coding": [ {
          "system": "http://terminology.hl7.org/CodeSystem/observation-category",
          "code": "laboratory"
        } ]
      } ],
      "code": {
        "coding": [ {
          "system": "http://loinc.org",
          "code": "2028-9",
          "display": "Carbon dioxide, total [Moles/volume] in Serum or Plasma"
        } ],
        "text": "TOTAL CO2"
      },
      "subject": {
        "reference": "Patient/cd9745dc-c0b3-4852-b5f5-a7201264c273",
        "display": "TWOTEST BWHCKDRISKTEST"
      },
      "effectivePeriod": {
        "start": "2014-02-10T10:00:00+01:00"
      },
      "valueQuantity": {
        "value": 29,
        "unit": "mmol/L",
        "system": "http://unitsofmeasure.org",
        "code": "mmol/L"
      },
      "referenceRange": [ {
        "text": "22-31 mmol/L"
      } ]
    }
  }, {
    "resource": {
      "resourceType": "DiagnosticReport",
      "id": "c5752817-775b-49fa-8351-6d83b89defe5",
      "identifier": [ {
        "use": "official",
        "system": "urn:oid:1.3.6.1.4.1.16517",
        "value": "100025030728-E385CBE2-940F-11E3-B318-1CC4B7D83400"
      } ],
      "status": "final",
      "category": [ {
        "coding": [ {
          "system": "http://terminology.hl7.org/CodeSystem/v2-0074",
          "code": "LAB",
          "display": "Laboratory"
        } ]
      } ],
      "code": {
        "coding": [ {
          "system": "http://loinc.org",
          "code": "2160-0",
          "display": "Creatinine [Mass/volume] in Serum or Plasma"
        } ]
      },
      "subject": {
        "reference": "Patient/cd9745dc-c0b3-4852-b5f5-a7201264c273",
        "display": "TWOTEST BWHCKDRISKTEST"
      },
      "result": [ {
        "reference": "Observation/5b310ca5-c8fe-4892-850d-f6c62a7d5f27",
        "display": "CREATININE"
      } ]
    }
  }, {
    "resource": {
      "resourceType": "Observation",
      "id": "5b310ca5-c8fe-4892-850d-f6c62a7d5f27",
      "identifier": [ {
        "use": "official",
        "system": "urn:oid:1.3.6.1.4.1.16517",
        "value": "100025030728-E385CBE2-940F-11E3-B318-1CC4B7D83400"
      } ],
      "status": "final",
      "category": [ {
        "coding": [ {
          "system": "http://terminology.hl7.org/CodeSystem/observation-category",
          "code": "laboratory"
        } ]
      } ],
      "code": {
        "coding": [ {
          "system": "http://loinc.org",
          "code": "2160-0",
          "display": "Creatinine [Mass/volume] in Serum or Plasma"
        } ],
        "text": "CREATININE"
      },
      "subject": {
        "reference": "Patient/cd9745dc-c0b3-4852-b5f5-a7201264c273",
        "display": "TWOTEST BWHCKDRISKTEST"
      },
      "effectivePeriod": {
        "start": "2014-02-11T13:54:00+01:00"
      },
      "valueQuantity": {
        "value": 1.90,
        "unit": "mg/dL",
        "system": "http://unitsofmeasure.org",
        "code": "mg/dL"
      },
      "referenceRange": [ {
        "text": "0.50-1.20 mg/dL"
      } ]
    }
  }, {
    "resource": {
      "resourceType": "DiagnosticReport",
      "id": "1a967fc5-fb50-4c2d-b158-c2fa19a7537a",
      "identifier": [ {
        "use": "official",
        "system": "urn:oid:1.3.6.1.4.1.16517",
        "value": "100025030647-E386EF4A-940F-11E3-B318-1CC4B7D83400"
      } ],
      "status": "final",
      "category": [ {
        "coding": [ {
          "system": "http://terminology.hl7.org/CodeSystem/v2-0074",
          "code": "LAB",
          "display": "Laboratory"
        } ]
      } ],
      "code": {
        "coding": [ {
          "system": "http://loinc.org",
          "code": "14959-1",
          "display": "Microalbumin/Creatinine [Mass Ratio] in Urine"
        } ]
      },
      "subject": {
        "reference": "Patient/cd9745dc-c0b3-4852-b5f5-a7201264c273",
        "display": "TWOTEST BWHCKDRISKTEST"
      },
      "result": [ {
        "reference": "Observation/70c00145-292e-4c4c-813c-ba6af916545f",
        "display": "Malb/Cr"
      } ]
    }
  }, {
    "resource": {
      "resourceType": "Observation",
      "id": "70c00145-292e-4c4c-813c-ba6af916545f",
      "identifier": [ {
        "use": "official",
        "system": "urn:oid:1.3.6.1.4.1.16517",
        "value": "100025030647-E386EF4A-940F-11E3-B318-1CC4B7D83400"
      } ],
      "status": "final",
      "category": [ {
        "coding": [ {
          "system": "http://terminology.hl7.org/CodeSystem/observation-category",
          "code": "laboratory"
        } ]
      } ],
      "code": {
        "coding": [ {
          "system": "http://loinc.org",
          "code": "14959-1",
          "display": "Microalbumin/Creatinine [Mass Ratio] in Urine"
        } ],
        "text": "Malb/Cr"
      },
      "subject": {
        "reference": "Patient/cd9745dc-c0b3-4852-b5f5-a7201264c273",
        "display": "TWOTEST BWHCKDRISKTEST"
      },
      "effectivePeriod": {
        "start": "2014-02-10T09:30:00+01:00"
      },
      "valueQuantity": {
        "value": 221,
        "unit": "mgAlb/gCre",
        "system": "http://unitsofmeasure.org",
        "code": "mgAlb/gCre"
      },
      "referenceRange": [ {
        "text": "0.0-30 mgAlb/gCre"
      } ]
    }
  }, {
    "resource": {
      "resourceType": "DiagnosticReport",
      "id": "fe40c4be-eb22-41f6-b3f8-7e2fcea17063",
      "identifier": [ {
        "use": "official",
        "system": "urn:oid:1.3.6.1.4.1.16517",
        "value": "100025030646-E3871A10-940F-11E3-B318-1CC4B7D83400"
      } ],
      "category": [ {
        "coding": [ {
          "system": "http://terminology.hl7.org/CodeSystem/v2-0074",
          "code": "LAB",
          "display": "Laboratory"
        } ]
      } ],
      "code": {
        "coding": [ {
          "system": "http://loinc.org",
          "code": "13362-9",
          "display": "Collection duration of Urine"
        } ]
      },
      "subject": {
        "reference": "Patient/cd9745dc-c0b3-4852-b5f5-a7201264c273",
        "display": "TWOTEST BWHCKDRISKTEST"
      },
      "result": [ {
        "reference": "Observation/7bbeaa84-daed-4c33-9573-31cb703930f6",
        "display": "TIME SPAN"
      } ]
    }
  }, {
    "resource": {
      "resourceType": "Observation",
      "id": "7bbeaa84-daed-4c33-9573-31cb703930f6",
      "identifier": [ {
        "use": "official",
        "system": "urn:oid:1.3.6.1.4.1.16517",
        "value": "100025030646-E3871A10-940F-11E3-B318-1CC4B7D83400"
      } ],
      "category": [ {
        "coding": [ {
          "system": "http://terminology.hl7.org/CodeSystem/observation-category",
          "code": "laboratory"
        } ]
      } ],
      "code": {
        "coding": [ {
          "system": "http://loinc.org",
          "code": "13362-9",
          "display": "Collection duration of Urine"
        } ],
        "text": "TIME SPAN"
      },
      "subject": {
        "reference": "Patient/cd9745dc-c0b3-4852-b5f5-a7201264c273",
        "display": "TWOTEST BWHCKDRISKTEST"
      },
      "effectivePeriod": {
        "start": "2014-02-10T09:30:00+01:00"
      },
      "valueString": "RANDOM"
    }
  }, {
    "resource": {
      "resourceType": "DiagnosticReport",
      "id": "35fdd561-3a7c-46e3-b0ec-1c122aefa841",
      "identifier": [ {
        "use": "official",
        "system": "urn:oid:1.3.6.1.4.1.16517",
        "value": "100025030648-E386CBBE-940F-11E3-B318-1CC4B7D83400"
      } ],
      "status": "final",
      "category": [ {
        "coding": [ {
          "system": "http://terminology.hl7.org/CodeSystem/v2-0074",
          "code": "LAB",
          "display": "Laboratory"
        } ]
      } ],
      "code": {
        "coding": [ {
          "system": "http://loinc.org",
          "code": "14957-5",
          "display": "Microalbumin [Mass/volume] in Urine"
        } ]
      },
      "subject": {
        "reference": "Patient/cd9745dc-c0b3-4852-b5f5-a7201264c273",
        "display": "TWOTEST BWHCKDRISKTEST"
      },
      "result": [ {
        "reference": "Observation/d10a725e-5863-48ad-a455-de6f651730dc",
        "display": "Malb"
      } ]
    }
  }, {
    "resource": {
      "resourceType": "Observation",
      "id": "d10a725e-5863-48ad-a455-de6f651730dc",
      "identifier": [ {
        "use": "official",
        "system": "urn:oid:1.3.6.1.4.1.16517",
        "value": "100025030648-E386CBBE-940F-11E3-B318-1CC4B7D83400"
      } ],
      "status": "final",
      "category": [ {
        "coding": [ {
          "system": "http://terminology.hl7.org/CodeSystem/observation-category",
          "code": "laboratory"
        } ]
      } ],
      "code": {
        "coding": [ {
          "system": "http://loinc.org",
          "code": "14957-5",
          "display": "Microalbumin [Mass/volume] in Urine"
        } ],
        "text": "Malb"
      },
      "subject": {
        "reference": "Patient/cd9745dc-c0b3-4852-b5f5-a7201264c273",
        "display": "TWOTEST BWHCKDRISKTEST"
      },
      "effectivePeriod": {
        "start": "2014-02-10T09:30:00+01:00"
      },
      "valueQuantity": {
        "value": 4.1,
        "unit": "mg/dL",
        "system": "http://unitsofmeasure.org",
        "code": "mg/dL"
      },
      "referenceRange": [ {
        "text": "0.0-2.0 mg/dL"
      } ]
    }
  }, {
    "resource": {
      "resourceType": "DiagnosticReport",
      "id": "aab02c9d-4819-49e5-ab35-3af611f79b55",
      "identifier": [ {
        "use": "official",
        "system": "urn:oid:1.3.6.1.4.1.16517",
        "value": "100025030734-E3857F3E-940F-11E3-B318-1CC4B7D83400"
      } ],
      "status": "final",
      "category": [ {
        "coding": [ {
          "system": "http://terminology.hl7.org/CodeSystem/v2-0074",
          "code": "LAB",
          "display": "Laboratory"
        } ]
      } ],
      "code": {
        "coding": [ {
          "system": "http://loinc.org",
          "code": "17861-6",
          "display": "Calcium [Mass/volume] in Serum or Plasma"
        } ]
      },
      "subject": {
        "reference": "Patient/cd9745dc-c0b3-4852-b5f5-a7201264c273",
        "display": "TWOTEST BWHCKDRISKTEST"
      },
      "result": [ {
        "reference": "Observation/cfa0dd56-9748-4db3-af7c-c44159f59217",
        "display": "CALCIUM"
      } ]
    }
  }, {
    "resource": {
      "resourceType": "Observation",
      "id": "cfa0dd56-9748-4db3-af7c-c44159f59217",
      "identifier": [ {
        "use": "official",
        "system": "urn:oid:1.3.6.1.4.1.16517",
        "value": "100025030734-E3857F3E-940F-11E3-B318-1CC4B7D83400"
      } ],
      "status": "final",
      "category": [ {
        "coding": [ {
          "system": "http://terminology.hl7.org/CodeSystem/observation-category",
          "code": "laboratory"
        } ]
      } ],
      "code": {
        "coding": [ {
          "system": "http://loinc.org",
          "code": "17861-6",
          "display": "Calcium [Mass/volume] in Serum or Plasma"
        } ],
        "text": "CALCIUM"
      },
      "subject": {
        "reference": "Patient/cd9745dc-c0b3-4852-b5f5-a7201264c273",
        "display": "TWOTEST BWHCKDRISKTEST"
      },
      "effectivePeriod": {
        "start": "2014-02-11T13:54:00+01:00"
      },
      "valueQuantity": {
        "value": 9.4,
        "unit": "mg/dL",
        "system": "http://unitsofmeasure.org",
        "code": "mg/dL"
      },
      "referenceRange": [ {
        "text": "8.8-10.7 mg/dL"
      } ]
    }
  }, {
    "resource": {
      "resourceType": "DiagnosticReport",
      "id": "a657e831-54c5-4dcf-8b65-da4de5e88360",
      "identifier": [ {
        "use": "official",
        "system": "urn:oid:1.3.6.1.4.1.16517",
        "value": "100025030660-E385A464-940F-11E3-B318-1CC4B7D83400"
      } ],
      "status": "final",
      "category": [ {
        "coding": [ {
          "system": "http://terminology.hl7.org/CodeSystem/v2-0074",
          "code": "LAB",
          "display": "Laboratory"
        } ]
      } ],
      "code": {
        "coding": [ {
          "system": "http://loinc.org",
          "code": "17861-6",
          "display": "Calcium [Mass/volume] in Serum or Plasma"
        } ]
      },
      "subject": {
        "reference": "Patient/cd9745dc-c0b3-4852-b5f5-a7201264c273",
        "display": "TWOTEST BWHCKDRISKTEST"
      },
      "result": [ {
        "reference": "Observation/7dba947b-ff44-4243-8129-dd3c5b68ef0d",
        "display": "CALCIUM"
      } ]
    }
  }, {
    "resource": {
      "resourceType": "Observation",
      "id": "7dba947b-ff44-4243-8129-dd3c5b68ef0d",
      "identifier": [ {
        "use": "official",
        "system": "urn:oid:1.3.6.1.4.1.16517",
        "value": "100025030660-E385A464-940F-11E3-B318-1CC4B7D83400"
      } ],
      "status": "final",
      "category": [ {
        "coding": [ {
          "system": "http://terminology.hl7.org/CodeSystem/observation-category",
          "code": "laboratory"
        } ]
      } ],
      "code": {
        "coding": [ {
          "system": "http://loinc.org",
          "code": "17861-6",
          "display": "Calcium [Mass/volume] in Serum or Plasma"
        } ],
        "text": "CALCIUM"
      },
      "subject": {
        "reference": "Patient/cd9745dc-c0b3-4852-b5f5-a7201264c273",
        "display": "TWOTEST BWHCKDRISKTEST"
      },
      "effectivePeriod": {
        "start": "2014-02-10T10:00:00+01:00"
      },
      "valueQuantity": {
        "value": 9.4,
        "unit": "mg/dL",
        "system": "http://unitsofmeasure.org",
        "code": "mg/dL"
      },
      "referenceRange": [ {
        "text": "8.8-10.7 mg/dL"
      } ]
    }
  }, {
    "resource": {
      "resourceType": "DiagnosticReport",
      "id": "142e33d7-c3b2-4ee6-938f-0fa3e2c5301a",
      "identifier": [ {
        "use": "official",
        "system": "urn:oid:1.3.6.1.4.1.16517",
        "value": "100025030659-E3876CE0-940F-11E3-B318-1CC4B7D83400"
      } ],
      "status": "final",
      "category": [ {
        "coding": [ {
          "system": "http://terminology.hl7.org/CodeSystem/v2-0074",
          "code": "LAB",
          "display": "Laboratory"
        } ]
      } ],
      "code": {
        "coding": [ {
          "system": "http://loinc.org",
          "code": "33914-3",
          "display": "Glomerular filtration rate/1.73 sq M.predicted by Creatinine-based formula (MDRD)"
        } ]
      },
      "subject": {
        "reference": "Patient/cd9745dc-c0b3-4852-b5f5-a7201264c273",
        "display": "TWOTEST BWHCKDRISKTEST"
      },
      "result": [ {
        "reference": "Observation/fbab4785-0a88-4e2f-b5c2-9855d4fc9874",
        "display": "eGFR"
      } ]
    }
  }, {
    "resource": {
      "resourceType": "Observation",
      "id": "fbab4785-0a88-4e2f-b5c2-9855d4fc9874",
      "identifier": [ {
        "use": "official",
        "system": "urn:oid:1.3.6.1.4.1.16517",
        "value": "100025030659-E3876CE0-940F-11E3-B318-1CC4B7D83400"
      } ],
      "status": "final",
      "category": [ {
        "coding": [ {
          "system": "http://terminology.hl7.org/CodeSystem/observation-category",
          "code": "laboratory"
        } ]
      } ],
      "code": {
        "coding": [ {
          "system": "http://loinc.org",
          "code": "33914-3",
          "display": "Glomerular filtration rate/1.73 sq M.predicted by Creatinine-based formula (MDRD)"
        } ],
        "text": "eGFR"
      },
      "subject": {
        "reference": "Patient/cd9745dc-c0b3-4852-b5f5-a7201264c273",
        "display": "TWOTEST BWHCKDRISKTEST"
      },
      "effectivePeriod": {
        "start": "2014-02-10T10:00:00+01:00"
      },
      "valueQuantity": {
        "value": 38,
        "unit": "1",
        "system": "http://unitsofmeasure.org",
        "code": "1"
      }
    }
  }, {
    "resource": {
      "resourceType": "DiagnosticReport",
      "id": "9ccd6073-9400-4b0d-b6ca-f73dfc1c8c6a",
      "identifier": [ {
        "use": "official",
        "system": "urn:oid:1.3.6.1.4.1.16517",
        "value": "100025030729-E38431F6-940F-11E3-B318-1CC4B7D83400"
      } ],
      "status": "final",
      "category": [ {
        "coding": [ {
          "system": "http://terminology.hl7.org/CodeSystem/v2-0074",
          "code": "LAB",
          "display": "Laboratory"
        } ]
      } ],
      "code": {
        "coding": [ {
          "system": "http://loinc.org",
          "code": "2951-2",
          "display": "Sodium [Moles/volume] in Serum or Plasma"
        } ]
      },
      "subject": {
        "reference": "Patient/cd9745dc-c0b3-4852-b5f5-a7201264c273",
        "display": "TWOTEST BWHCKDRISKTEST"
      },
      "result": [ {
        "reference": "Observation/af20048a-5c1e-4d64-a536-86ed76139c3b",
        "display": "SODIUM"
      } ]
    }
  }, {
    "resource": {
      "resourceType": "Observation",
      "id": "af20048a-5c1e-4d64-a536-86ed76139c3b",
      "identifier": [ {
        "use": "official",
        "system": "urn:oid:1.3.6.1.4.1.16517",
        "value": "100025030729-E38431F6-940F-11E3-B318-1CC4B7D83400"
      } ],
      "status": "final",
      "category": [ {
        "coding": [ {
          "system": "http://terminology.hl7.org/CodeSystem/observation-category",
          "code": "laboratory"
        } ]
      } ],
      "code": {
        "coding": [ {
          "system": "http://loinc.org",
          "code": "2951-2",
          "display": "Sodium [Moles/volume] in Serum or Plasma"
        } ],
        "text": "SODIUM"
      },
      "subject": {
        "reference": "Patient/cd9745dc-c0b3-4852-b5f5-a7201264c273",
        "display": "TWOTEST BWHCKDRISKTEST"
      },
      "effectivePeriod": {
        "start": "2014-02-11T13:54:00+01:00"
      },
      "valueQuantity": {
        "value": 141,
        "unit": "mmol/L",
        "system": "http://unitsofmeasure.org",
        "code": "mmol/L"
      },
      "referenceRange": [ {
        "text": "136-145 mmol/L"
      } ]
    }
  }, {
    "resource": {
      "resourceType": "DiagnosticReport",
      "id": "eb47eaad-e75b-4d30-8c30-a27eb948b9b8",
      "identifier": [ {
        "use": "official",
        "system": "urn:oid:1.3.6.1.4.1.16517",
        "value": "100025030735-E3873CFC-940F-11E3-B318-1CC4B7D83400"
      } ],
      "status": "final",
      "category": [ {
        "coding": [ {
          "system": "http://terminology.hl7.org/CodeSystem/v2-0074",
          "code": "LAB",
          "display": "Laboratory"
        } ]
      } ],
      "code": {
        "coding": [ {
          "system": "http://loinc.org",
          "code": "33914-3",
          "display": "Glomerular filtration rate/1.73 sq M.predicted by Creatinine-based formula (MDRD)"
        } ]
      },
      "subject": {
        "reference": "Patient/cd9745dc-c0b3-4852-b5f5-a7201264c273",
        "display": "TWOTEST BWHCKDRISKTEST"
      },
      "result": [ {
        "reference": "Observation/06758124-d160-49cc-a42e-fc50ed2c4f13",
        "display": "eGFR"
      } ]
    }
  }, {
    "resource": {
      "resourceType": "Observation",
      "id": "06758124-d160-49cc-a42e-fc50ed2c4f13",
      "identifier": [ {
        "use": "official",
        "system": "urn:oid:1.3.6.1.4.1.16517",
        "value": "100025030735-E3873CFC-940F-11E3-B318-1CC4B7D83400"
      } ],
      "status": "final",
      "category": [ {
        "coding": [ {
          "system": "http://terminology.hl7.org/CodeSystem/observation-category",
          "code": "laboratory"
        } ]
      } ],
      "code": {
        "coding": [ {
          "system": "http://loinc.org",
          "code": "33914-3",
          "display": "Glomerular filtration rate/1.73 sq M.predicted by Creatinine-based formula (MDRD)"
        } ],
        "text": "eGFR"
      },
      "subject": {
        "reference": "Patient/cd9745dc-c0b3-4852-b5f5-a7201264c273",
        "display": "TWOTEST BWHCKDRISKTEST"
      },
      "effectivePeriod": {
        "start": "2014-02-11T13:54:00+01:00"
      },
      "valueQuantity": {
        "value": 38,
        "unit": "1",
        "system": "http://unitsofmeasure.org",
        "code": "1"
      }
    }
  }, {
    "resource": {
      "resourceType": "DiagnosticReport",
      "id": "e97fb148-ba5e-40b3-9d37-ff24ed63dd78",
      "identifier": [ {
        "use": "official",
        "system": "urn:oid:1.3.6.1.4.1.16517",
        "value": "100025030732-E384CB34-940F-11E3-B318-1CC4B7D83400"
      } ],
      "status": "final",
      "category": [ {
        "coding": [ {
          "system": "http://terminology.hl7.org/CodeSystem/v2-0074",
          "code": "LAB",
          "display": "Laboratory"
        } ]
      } ],
      "code": {
        "coding": [ {
          "system": "http://loinc.org",
          "code": "2028-9",
          "display": "Carbon dioxide, total [Moles/volume] in Serum or Plasma"
        } ]
      },
      "subject": {
        "reference": "Patient/cd9745dc-c0b3-4852-b5f5-a7201264c273",
        "display": "TWOTEST BWHCKDRISKTEST"
      },
      "result": [ {
        "reference": "Observation/cf44ad45-8abe-4365-bf5e-18648c7dfae2",
        "display": "TOTAL CO2"
      } ]
    }
  }, {
    "resource": {
      "resourceType": "Observation",
      "id": "cf44ad45-8abe-4365-bf5e-18648c7dfae2",
      "identifier": [ {
        "use": "official",
        "system": "urn:oid:1.3.6.1.4.1.16517",
        "value": "100025030732-E384CB34-940F-11E3-B318-1CC4B7D83400"
      } ],
      "status": "final",
      "category": [ {
        "coding": [ {
          "system": "http://terminology.hl7.org/CodeSystem/observation-category",
          "code": "laboratory"
        } ]
      } ],
      "code": {
        "coding": [ {
          "system": "http://loinc.org",
          "code": "2028-9",
          "display": "Carbon dioxide, total [Moles/volume] in Serum or Plasma"
        } ],
        "text": "TOTAL CO2"
      },
      "subject": {
        "reference": "Patient/cd9745dc-c0b3-4852-b5f5-a7201264c273",
        "display": "TWOTEST BWHCKDRISKTEST"
      },
      "effectivePeriod": {
        "start": "2014-02-11T13:54:00+01:00"
      },
      "valueQuantity": {
        "value": 29,
        "unit": "mmol/L",
        "system": "http://unitsofmeasure.org",
        "code": "mmol/L"
      },
      "referenceRange": [ {
        "text": "22-31 mmol/L"
      } ]
    }
  }, {
    "resource": {
      "resourceType": "DiagnosticReport",
      "id": "6bbf4827-48d2-4032-966c-1367c65da256",
      "identifier": [ {
        "use": "official",
        "system": "urn:oid:1.3.6.1.4.1.16517",
        "value": "100025030658-E385FB58-940F-11E3-B318-1CC4B7D83400"
      } ],
      "status": "final",
      "category": [ {
        "coding": [ {
          "system": "http://terminology.hl7.org/CodeSystem/v2-0074",
          "code": "LAB",
          "display": "Laboratory"
        } ]
      } ],
      "code": {
        "coding": [ {
          "system": "http://loinc.org",
          "code": "2160-0",
          "display": "Creatinine [Mass/volume] in Serum or Plasma"
        } ]
      },
      "subject": {
        "reference": "Patient/cd9745dc-c0b3-4852-b5f5-a7201264c273",
        "display": "TWOTEST BWHCKDRISKTEST"
      },
      "result": [ {
        "reference": "Observation/90bd9655-43aa-4953-88cc-e23171167a6c",
        "display": "CREATININE"
      } ]
    }
  }, {
    "resource": {
      "resourceType": "Observation",
      "id": "90bd9655-43aa-4953-88cc-e23171167a6c",
      "identifier": [ {
        "use": "official",
        "system": "urn:oid:1.3.6.1.4.1.16517",
        "value": "100025030658-E385FB58-940F-11E3-B318-1CC4B7D83400"
      } ],
      "status": "final",
      "category": [ {
        "coding": [ {
          "system": "http://terminology.hl7.org/CodeSystem/observation-category",
          "code": "laboratory"
        } ]
      } ],
      "code": {
        "coding": [ {
          "system": "http://loinc.org",
          "code": "2160-0",
          "display": "Creatinine [Mass/volume] in Serum or Plasma"
        } ],
        "text": "CREATININE"
      },
      "subject": {
        "reference": "Patient/cd9745dc-c0b3-4852-b5f5-a7201264c273",
        "display": "TWOTEST BWHCKDRISKTEST"
      },
      "effectivePeriod": {
        "start": "2014-02-10T10:00:00+01:00"
      },
      "valueQuantity": {
        "value": 1.9,
        "unit": "mg/dL",
        "system": "http://unitsofmeasure.org",
        "code": "mg/dL"
      },
      "referenceRange": [ {
        "text": "0.50-1.20 mg/dL"
      } ]
    }
  }, {
    "resource": {
      "resourceType": "DiagnosticReport",
      "id": "bd85618d-937e-4f36-87a8-9929f1d3f460",
      "identifier": [ {
        "use": "official",
        "system": "urn:oid:1.3.6.1.4.1.16517",
        "value": "100025030727-E38552A2-940F-11E3-B318-1CC4B7D83400"
      } ],
      "status": "final",
      "category": [ {
        "coding": [ {
          "system": "http://terminology.hl7.org/CodeSystem/v2-0074",
          "code": "LAB",
          "display": "Laboratory"
        } ]
      } ],
      "code": {
        "coding": [ {
          "system": "http://loinc.org",
          "code": "3094-0",
          "display": "Urea nitrogen [Mass/volume] in Serum or Plasma"
        } ]
      },
      "subject": {
        "reference": "Patient/cd9745dc-c0b3-4852-b5f5-a7201264c273",
        "display": "TWOTEST BWHCKDRISKTEST"
      },
      "result": [ {
        "reference": "Observation/ea088360-7f5b-411d-ad0d-a517e9fb0b93",
        "display": "UREA N"
      } ]
    }
  }, {
    "resource": {
      "resourceType": "Observation",
      "id": "ea088360-7f5b-411d-ad0d-a517e9fb0b93",
      "identifier": [ {
        "use": "official",
        "system": "urn:oid:1.3.6.1.4.1.16517",
        "value": "100025030727-E38552A2-940F-11E3-B318-1CC4B7D83400"
      } ],
      "status": "final",
      "category": [ {
        "coding": [ {
          "system": "http://terminology.hl7.org/CodeSystem/observation-category",
          "code": "laboratory"
        } ]
      } ],
      "code": {
        "coding": [ {
          "system": "http://loinc.org",
          "code": "3094-0",
          "display": "Urea nitrogen [Mass/volume] in Serum or Plasma"
        } ],
        "text": "UREA N"
      },
      "subject": {
        "reference": "Patient/cd9745dc-c0b3-4852-b5f5-a7201264c273",
        "display": "TWOTEST BWHCKDRISKTEST"
      },
      "effectivePeriod": {
        "start": "2014-02-11T13:54:00+01:00"
      },
      "valueQuantity": {
        "value": 14,
        "unit": "mg/dL",
        "system": "http://unitsofmeasure.org",
        "code": "mg/dL"
      },
      "referenceRange": [ {
        "text": "6-23 mg/dL"
      } ]
    }
  }, {
    "resource": {
      "resourceType": "DiagnosticReport",
      "id": "feab6b53-0978-4f7e-b8ee-00f0b1aaed47",
      "identifier": [ {
        "use": "official",
        "system": "urn:oid:1.3.6.1.4.1.16517",
        "value": "100025030662-E3852566-940F-11E3-B318-1CC4B7D83400"
      } ],
      "status": "final",
      "category": [ {
        "coding": [ {
          "system": "http://terminology.hl7.org/CodeSystem/v2-0074",
          "code": "LAB",
          "display": "Laboratory"
        } ]
      } ],
      "code": {
        "coding": [ {
          "system": "http://loinc.org",
          "code": "1751-7",
          "display": "Albumin [Mass/volume] in Serum or Plasma"
        } ]
      },
      "subject": {
        "reference": "Patient/cd9745dc-c0b3-4852-b5f5-a7201264c273",
        "display": "TWOTEST BWHCKDRISKTEST"
      },
      "result": [ {
        "reference": "Observation/debd1fa9-794f-433c-ac4f-b9314d74bd3c",
        "display": "ALBUMIN"
      } ]
    }
  }, {
    "resource": {
      "resourceType": "Observation",
      "id": "debd1fa9-794f-433c-ac4f-b9314d74bd3c",
      "identifier": [ {
        "use": "official",
        "system": "urn:oid:1.3.6.1.4.1.16517",
        "value": "100025030662-E3852566-940F-11E3-B318-1CC4B7D83400"
      } ],
      "status": "final",
      "category": [ {
        "coding": [ {
          "system": "http://terminology.hl7.org/CodeSystem/observation-category",
          "code": "laboratory"
        } ]
      } ],
      "code": {
        "coding": [ {
          "system": "http://loinc.org",
          "code": "1751-7",
          "display": "Albumin [Mass/volume] in Serum or Plasma"
        } ],
        "text": "ALBUMIN"
      },
      "subject": {
        "reference": "Patient/cd9745dc-c0b3-4852-b5f5-a7201264c273",
        "display": "TWOTEST BWHCKDRISKTEST"
      },
      "effectivePeriod": {
        "start": "2014-02-10T10:00:00+01:00"
      },
      "valueQuantity": {
        "value": 4.1,
        "unit": "g/dL",
        "system": "http://unitsofmeasure.org",
        "code": "g/dL"
      },
      "referenceRange": [ {
        "text": "3.5-5.2 g/dL"
      } ]
    }
  }, {
    "resource": {
      "resourceType": "DiagnosticReport",
      "id": "b539cba6-f594-4ab1-b32f-ad0f4d5d6063",
      "identifier": [ {
        "use": "official",
        "system": "urn:oid:1.3.6.1.4.1.16517",
        "value": "100025030731-E38496DC-940F-11E3-B318-1CC4B7D83400"
      } ],
      "status": "final",
      "category": [ {
        "coding": [ {
          "system": "http://terminology.hl7.org/CodeSystem/v2-0074",
          "code": "LAB",
          "display": "Laboratory"
        } ]
      } ],
      "code": {
        "coding": [ {
          "system": "http://loinc.org",
          "code": "2075-0",
          "display": "Chloride [Moles/volume] in Serum or Plasma"
        } ]
      },
      "subject": {
        "reference": "Patient/cd9745dc-c0b3-4852-b5f5-a7201264c273",
        "display": "TWOTEST BWHCKDRISKTEST"
      },
      "result": [ {
        "reference": "Observation/a427deda-a904-4543-9031-900914c00a8a",
        "display": "CHLORIDE"
      } ]
    }
  }, {
    "resource": {
      "resourceType": "Observation",
      "id": "a427deda-a904-4543-9031-900914c00a8a",
      "identifier": [ {
        "use": "official",
        "system": "urn:oid:1.3.6.1.4.1.16517",
        "value": "100025030731-E38496DC-940F-11E3-B318-1CC4B7D83400"
      } ],
      "status": "final",
      "category": [ {
        "coding": [ {
          "system": "http://terminology.hl7.org/CodeSystem/observation-category",
          "code": "laboratory"
        } ]
      } ],
      "code": {
        "coding": [ {
          "system": "http://loinc.org",
          "code": "2075-0",
          "display": "Chloride [Moles/volume] in Serum or Plasma"
        } ],
        "text": "CHLORIDE"
      },
      "subject": {
        "reference": "Patient/cd9745dc-c0b3-4852-b5f5-a7201264c273",
        "display": "TWOTEST BWHCKDRISKTEST"
      },
      "effectivePeriod": {
        "start": "2014-02-11T13:54:00+01:00"
      },
      "valueQuantity": {
        "value": 103,
        "unit": "mmol/L",
        "system": "http://unitsofmeasure.org",
        "code": "mmol/L"
      },
      "referenceRange": [ {
        "text": "98-107 mmol/L"
      } ]
    }
  }, {
    "resource": {
      "resourceType": "Immunization",
      "id": "25084019-0996-43fd-9c88-9848409ad946",
      "status": "completed",
      "vaccineCode": {
        "text": "No immunization data is applicable"
      },
      "patient": {
        "reference": "Patient/cd9745dc-c0b3-4852-b5f5-a7201264c273",
        "display": "TWOTEST BWHCKDRISKTEST"
      },
      "occurrenceDateTime": "2014-02-12T13:02:51+01:00",
      "primarySource": false
    }
  }, {
    "resource": {
      "resourceType": "Observation",
      "id": "409d5e56-2ebe-4284-9dcb-841e5d649adc",
      "identifier": [ {
        "use": "official",
        "system": "urn:oid:1.3.6.1.4.1.16517",
        "value": "1"
      } ],
      "status": "final",
      "code": {
        "coding": [ {
          "system": "urn:oid:2.16.840.1.113883.5.4",
          "code": "ASSERTION"
        } ]
      },
      "subject": {
        "reference": "Patient/cd9745dc-c0b3-4852-b5f5-a7201264c273",
        "display": "TWOTEST BWHCKDRISKTEST"
      },
      "effectivePeriod": {
        "start": "2014-02-12"
      },
      "dataAbsentReason": {
        "coding": [ {
          "system": "http://hl7.org/fhir/data-absent-reason",
          "code": "unknown",
          "display": "Unkown"
        } ]
      }
    }
  } ]
}