{
  "resourceType": "Bundle",
  "entry": [ {
    "resource": {
      "resourceType": "Composition",
      "id": "35dfb603-7f3a-446c-895a-08892f0f2a6a",
      "identifier": {
        "use": "official",
        "system": "urn:oid:1.3.6.1.4.1.16517",
        "value": "FC5BB17C-940F-11E3-85B3-1CC4B7D83400"
      },
      "status": "preliminary",
      "type": {
        "coding": [ {
          "system": "http://loinc.org",
          "code": "34133-9",
          "display": "Summarization of Episode Note"
        } ]
      },
      "category": [ {
        "coding": [ {
          "system": "http://hl7.org/fhir/ValueSet/doc-classcodes",
          "code": "LP173421-7",
          "display": "Note"
        } ]
      } ],
      "subject": {
        "reference": "Patient/aabef9f5-8a51-4139-bb30-24fd2a2aa998",
        "display": "THREETEST BWHCKDRISKTEST"
      },
      "date": "2014-02-12T13:03:33-05:00",
      "title": "BPG AT 850 BOYLSTON - INTERNAL MEDICINE  Summarization of Episode Note",
      "confidentiality": "N",
      "custodian": {
        "reference": "Organization/a26ea513-0703-4b79-9537-622b5baa69e8",
        "display": "Partners HealthCare"
      },
      "event": [ {
        "period": {
          "end": "2014-02-12T13:03:33+01:00"
        },
        "detail": [ {
          "reference": "Practitioner/da646846-2138-4caa-b410-c1c4ab761bee"
        } ]
      } ],
      "section": [ {
        "title": "Problems",
        "code": {
          "coding": [ {
            "system": "http://loinc.org",
            "code": "11450-4",
            "display": "Problem List"
          } ]
        },
        "text": {
          "status": "additional",
          "div": "<div xmlns=\"http://www.w3.org/1999/xhtml\"><table border=\"1\" width=\"100%\"><thead><tr><th>Date</th><th>Problems</th></tr></thead><tbody><tr><td>02/12/2014 13:03</td><td>No problem data is applicable</td></tr></tbody></table></div>"
        },
        "mode": "snapshot",
        "entry": [ {
          "reference": "Condition/83d910c2-a613-4cee-ad47-b3adb297e281"
        } ]
      }, {
        "title": "Immunizations",
        "code": {
          "coding": [ {
            "system": "http://loinc.org",
            "code": "11369-6",
            "display": "History of immunizations"
          } ]
        },
        "text": {
          "status": "additional",
          "div": "<div xmlns=\"http://www.w3.org/1999/xhtml\"><table border=\"1\" width=\"100%\"><thead><tr><th>Date</th><th>Immunizations</th></tr></thead><tbody><tr><td>02/12/2014 13:03</td><td>No immunization data is applicable</td></tr></tbody></table></div>"
        },
        "mode": "snapshot",
        "entry": [ {
          "reference": "Immunization/22b1573f-0e9b-428d-9dfa-d494c1085f68",
          "display": "No immunization data is applicable"
        } ]
      }, {
        "title": "Procedures",
        "code": {
          "coding": [ {
            "system": "http://loinc.org",
            "code": "47519-4",
            "display": "History of procedures"
          } ]
        },
        "text": {
          "status": "additional",
          "div": "<div xmlns=\"http://www.w3.org/1999/xhtml\"><table border=\"1\" width=\"100%\"><thead><tr><th>Date</th><th>Procedures</th></tr></thead><tbody><tr><td>02/12/2014 13:03</td><td>No procedure data is applicable</td></tr></tbody></table></div>"
        },
        "mode": "snapshot",
        "entry": [ {
          "reference": "Procedure/708af69a-6bc2-4db9-984d-19c73bf713b9",
          "display": "No procedure data is applicable"
        } ]
      }, {
        "title": "Social History",
        "code": {
          "coding": [ {
            "system": "http://loinc.org",
            "code": "29762-2",
            "display": "Social History"
          } ]
        },
        "text": {
          "status": "additional",
          "div": "<div xmlns=\"http://www.w3.org/1999/xhtml\"><table border=\"1\" width=\"100%\"><thead><tr><th>Date</th><th>Type</th></tr></thead><tbody><tr><td>02/12/2014</td><td>No smoking status data is applicable</td></tr></tbody></table></div>"
        },
        "mode": "snapshot",
        "entry": [ {
          "reference": "Observation/68f89ee1-36f7-40c6-8894-6c4e6bf5db81"
        } ]
      }, {
        "title": "Encounters",
        "code": {
          "coding": [ {
            "system": "http://loinc.org",
            "code": "46240-8",
            "display": "History of Encounters"
          } ]
        },
        "text": {
          "status": "additional",
          "div": "<div xmlns=\"http://www.w3.org/1999/xhtml\"><table border=\"1\" width=\"100%\"><thead><tr><th>Date</th><th>Description</th></tr></thead><tbody><tr><td>02/12/2014 13:03</td><td>No encounter diagnosis data is applicable</td></tr></tbody></table></div>"
        },
        "mode": "snapshot",
        "entry": [ {
          "reference": "Encounter/0d575476-5f6e-4c5f-a8e7-af4aada4a7d3",
          "display": "No encounter diagnosis data is applicable"
        } ]
      }, {
        "title": "Vital Signs",
        "code": {
          "coding": [ {
            "system": "http://loinc.org",
            "code": "8716-3",
            "display": "Vital signs"
          } ]
        },
        "text": {
          "status": "additional",
          "div": "<div xmlns=\"http://www.w3.org/1999/xhtml\"><table border=\"1\" width=\"100%\"><thead><tr><th>Date</th><th>Vital Sign</th></tr></thead><tbody><tr><td>02/12/2014 13:03</td><td>No vital sign data is applicable</td></tr></tbody></table></div>"
        },
        "mode": "snapshot",
        "entry": [ {
          "reference": "Observation/857eef23-1df5-4838-a660-e10f6b082d96",
          "display": "No vital sign data is applicable"
        } ]
      }, {
        "title": "Medications",
        "code": {
          "coding": [ {
            "system": "http://loinc.org",
            "code": "10160-0",
            "display": "History of medication use"
          } ]
        },
        "text": {
          "status": "additional",
          "div": "<div xmlns=\"http://www.w3.org/1999/xhtml\"><table border=\"1\" width=\"100%\"><thead><tr><th>Date</th><th>Medications</th></tr></thead><tbody><tr><td>02/12/2014 13:03</td><td>No medication data is applicable</td></tr></tbody></table></div>"
        },
        "mode": "snapshot",
        "entry": [ {
          "reference": "MedicationStatement/59d6320d-e683-47d1-9480-40799207f95a",
          "display": "No medication data is applicable"
        } ]
      }, {
        "title": "Functional Status",
        "code": {
          "coding": [ {
            "system": "http://loinc.org",
            "code": "47420-5",
            "display": "Functional status assessment note"
          } ]
        },
        "text": {
          "status": "additional",
          "div": "<div xmlns=\"http://www.w3.org/1999/xhtml\"><table border=\"1\" width=\"100%\"><thead><tr><th>Date</th><th>Assessment</th></tr></thead><tbody><tr><td>02/12/2014</td><td>No functional assessment data is applicable</td></tr><tr><td>02/12/2014</td><td>No cognitive assessment data is applicable</td></tr></tbody></table></div>"
        },
        "mode": "snapshot"
      }, {
        "title": "Results",
        "code": {
          "coding": [ {
            "system": "http://loinc.org",
            "code": "30954-2",
            "display": "Relevant diagnostic tests and/or laboratory data"
          } ]
        },
        "text": {
          "status": "additional",
          "div": "<div xmlns=\"http://www.w3.org/1999/xhtml\"><table border=\"1\" width=\"100%\"><thead><tr><th>Date</th><th>Test</th><th>Value</th><th>Reference Range</th><th>Abnormal Flag</th><th>Comments</th><th>Ordering Provider</th></tr></thead><tbody><tr><td>02/11/2014 13:54</td><td>SODIUM</td><td>141 mmol/L</td><td>136-145 mmol/L</td><td>Not available</td><td>Not available</td><td>HUSSAIN,SADIA S. M.D.</td></tr><tr><td>02/11/2014 13:54</td><td>POTASSIUM</td><td>4.4 mmol/L</td><td>3.4-5.0 mmol/L</td><td>Not available</td><td>Not available</td><td>HUSSAIN,SADIA S. M.D.</td></tr><tr><td>02/11/2014 13:54</td><td>CHLORIDE</td><td>103 mmol/L</td><td>98-107 mmol/L</td><td>Not available</td><td>Not available</td><td>HUSSAIN,SADIA S. M.D.</td></tr><tr><td>02/11/2014 13:54</td><td>TOTAL CO2</td><td>26 mmol/L</td><td>22-31 mmol/L</td><td>Not available</td><td>Not available</td><td>HUSSAIN,SADIA S. M.D.</td></tr><tr><td>02/11/2014 13:54</td><td>UREA N</td><td>14 mg/dL</td><td>6-23 mg/dL</td><td>Not available</td><td>Not available</td><td>HUSSAIN,SADIA S. M.D.</td></tr><tr><td>02/11/2014 13:54</td><td>CALCIUM</td><td>8.6 mg/dL</td><td>8.8-10.7 mg/dL</td><td>Not available</td><td>Not available</td><td>HUSSAIN,SADIA S. M.D.</td></tr><tr><td>02/11/2014 13:54</td><td>CREATININE</td><td>1.70 mg/dL</td><td>0.50-1.20 mg/dL</td><td>Not available</td><td>Not available</td><td>HUSSAIN,SADIA S. M.D.</td></tr><tr><td>02/11/2014 13:54</td><td>GLUCOSE</td><td>91 mg/dL</td><td>70-100 mg/dL</td><td>Not available</td><td>Not available</td><td>HUSSAIN,SADIA S. M.D.</td></tr><tr><td>02/11/2014 13:54</td><td>ANION GAP</td><td>10 mmol/L</td><td>5-17 mmol/L</td><td>Not available</td><td>Not available</td><td>HUSSAIN,SADIA S. M.D.</td></tr><tr><td>02/11/2014 13:54</td><td>eGFR</td><td>32 </td><td>Not available</td><td>Not available</td><td>(Abnormal if &amp;lt;60 mL/min/1.73m2If patient is black, multiply by 1.21)</td><td>HUSSAIN,SADIA S. M.D.</td></tr><tr><td>02/10/2014 10:00</td><td>TOTAL CO2</td><td>26 mmol/L</td><td>22-31 mmol/L</td><td>Not available</td><td>Not available</td><td>Not available</td></tr><tr><td>02/10/2014 10:00</td><td>ALBUMIN</td><td>3.6 g/dL</td><td>3.5-5.2 g/dL</td><td>Not available</td><td>Not available</td><td>Not available</td></tr><tr><td>02/10/2014 10:00</td><td>CALCIUM</td><td>8.6 mg/dL</td><td>8.8-10.7 mg/dL</td><td>Not available</td><td>Not available</td><td>Not available</td></tr><tr><td>02/10/2014 10:00</td><td>CREATININE</td><td>1.7 mg/dL</td><td>0.50-1.20 mg/dL</td><td>Not available</td><td>Not available</td><td>Not available</td></tr><tr><td>02/10/2014 10:00</td><td>PHOSPHATE</td><td>5.0 mg/dL</td><td>2.4-4.3 mg/dL</td><td>Not available</td><td>Not available</td><td>Not available</td></tr><tr><td>02/10/2014 10:00</td><td>eGFR</td><td>32 </td><td>Not available</td><td>Not available</td><td>(Abnormal if &amp;lt;60 mL/min/1.73m2If patient is black, multiply by 1.21)</td><td>Not available</td></tr><tr><td>02/10/2014 09:30</td><td>Malb</td><td>3.6 mg/dL</td><td>0.0-2.0 mg/dL</td><td>*</td><td>Not available</td><td>SINGH,KARANDEEP M.D.</td></tr><tr><td>02/10/2014 09:30</td><td>Malb/Cr</td><td>15 mgAlb/gCre</td><td>0.0-30 mgAlb/gCre</td><td>*</td><td>Not available</td><td>SINGH,KARANDEEP M.D.</td></tr><tr><td>02/10/2014 09:30</td><td>TIME SPAN</td><td>RANDOM</td><td>Not available</td><td>Not available</td><td>Not available</td><td>SINGH,KARANDEEP M.D.</td></tr></tbody></table></div>"
        },
        "mode": "snapshot",
        "entry": [ {
          "reference": "DiagnosticReport/c897c316-1f6e-4ea0-ad60-c70d87ce62ea",
          "display": "Deprecated Glucose [Mass/volume] in Serum or Plasma"
        }, {
          "reference": "DiagnosticReport/a2d21ec6-e87f-4fa3-bc79-b30c50d2a804",
          "display": "Collection duration of Urine"
        }, {
          "reference": "DiagnosticReport/3ff51ea6-42af-41d2-b23f-4a996c3a6a97",
          "display": "Chloride [Moles/volume] in Serum or Plasma"
        }, {
          "reference": "DiagnosticReport/348286ec-0fb2-4a97-a557-fbe1f572d7c2",
          "display": "Creatinine [Mass/volume] in Serum or Plasma"
        }, {
          "reference": "DiagnosticReport/1fdf98e0-8622-4844-bf00-175e13e40394",
          "display": "Albumin [Mass/volume] in Serum or Plasma"
        }, {
          "reference": "DiagnosticReport/b9a1ae45-e3ef-45a7-99aa-f444981e17cf",
          "display": "Microalbumin/Creatinine [Mass Ratio] in Urine"
        }, {
          "reference": "DiagnosticReport/64b0a4e1-ac52-409e-acb1-9bd9326eb32f",
          "display": "Sodium [Moles/volume] in Serum or Plasma"
        }, {
          "reference": "DiagnosticReport/b08d3667-ef02-46ae-bef9-801ae4499d8c",
          "display": "Calcium [Mass/volume] in Serum or Plasma"
        }, {
          "reference": "DiagnosticReport/30aeb92e-aaff-4c12-8486-069ecf1afc3e",
          "display": "Phosphate [Mass/volume] in Serum or Plasma"
        }, {
          "reference": "DiagnosticReport/439406c6-0a50-459d-ae16-c877e802e6a8",
          "display": "Potassium [Moles/volume] in Serum or Plasma"
        }, {
          "reference": "DiagnosticReport/d3c1a8c5-bf8a-4bfb-b8c0-82473b563a3e",
          "display": "Creatinine [Mass/volume] in Serum or Plasma"
        }, {
          "reference": "DiagnosticReport/6e5a3fde-e26d-4a10-8027-ffcef4bac0e1",
          "display": "Glomerular filtration rate/1.73 sq M.predicted by Creatinine-based formula (MDRD)"
        }, {
          "reference": "DiagnosticReport/0184f692-1a39-4ced-ba38-a285f5a2d9ea",
          "display": "Calcium [Mass/volume] in Serum or Plasma"
        }, {
          "reference": "DiagnosticReport/251c82db-6541-4074-8d5b-9994a7f8a816",
          "display": "Carbon dioxide, total [Moles/volume] in Serum or Plasma"
        }, {
          "reference": "DiagnosticReport/f2269427-78e0-4660-947f-4d46107cd118",
          "display": "Glomerular filtration rate/1.73 sq M.predicted by Creatinine-based formula (MDRD)"
        }, {
          "reference": "DiagnosticReport/d54a46e0-fecb-40fe-a84f-ce2dbc1424a5",
          "display": "Carbon dioxide, total [Moles/volume] in Serum or Plasma"
        }, {
          "reference": "DiagnosticReport/dcc51060-3a0f-44a8-aebc-86f2d63a7fe7",
          "display": "Microalbumin [Mass/volume] in Urine"
        }, {
          "reference": "DiagnosticReport/20ad16de-cd6e-4b95-b98e-8ef8e9091cdb",
          "display": "Urea nitrogen [Mass/volume] in Serum or Plasma"
        }, {
          "reference": "DiagnosticReport/a543d3d1-0ef7-4d5d-91dd-f803fd4fdc62",
          "display": "Anion gap 3 in Serum or Plasma"
        } ]
      }, {
        "title": "Allergies",
        "code": {
          "coding": [ {
            "system": "http://loinc.org",
            "code": "48765-2",
            "display": "Allergies, adverse reactions, alert "
          } ]
        },
        "text": {
          "status": "additional",
          "div": "<div xmlns=\"http://www.w3.org/1999/xhtml\"><table border=\"1\" width=\"100%\"><thead><tr><th>Date</th><th>Allergies</th><th>Status</th></tr></thead><tbody><tr><td>02/12/2014 13:03</td><td>No allergy data is applicable</td><td>active</td></tr></tbody></table></div>"
        },
        "mode": "snapshot",
        "entry": [ {
          "reference": "AllergyIntolerance/9e56c704-24a7-4fd4-8e07-a6e4d0184562"
        } ]
      }, {
        "title": "Plan of Care",
        "code": {
          "coding": [ {
            "system": "http://loinc.org",
            "code": "18776-5",
            "display": "Treatment plan"
          } ]
        },
        "text": {
          "status": "additional",
          "div": "<div xmlns=\"http://www.w3.org/1999/xhtml\"><table border=\"1\" width=\"100%\"><thead><tr><th>Date</th><th>Care Plan</th></tr></thead><tbody><tr><td>02/12/2014 13:03</td><td>No goal and instruction data is applicable</td></tr></tbody></table></div>"
        },
        "mode": "snapshot",
        "entry": [ {
          "reference": "CarePlan/51d04bf7-8b77-4b30-9da9-254a7fc6cf37"
        } ]
      } ]
    }
  }, {
    "resource": {
      "resourceType": "Patient",
      "id": "aabef9f5-8a51-4139-bb30-24fd2a2aa998",
      "extension": [ {
        "url": "http://hl7.org/fhir/us/core/StructureDefinition/us-core-race",
        "extension": [ {
          "url": "text",
          "valueString": "White"
        }, {
          "url": "ombCategory",
          "valueCoding": {
            "system": "urn:oid:2.16.840.1.113883.6.238",
            "code": "2106-3",
            "display": "White"
          }
        } ]
      }, {
        "url": "http://hl7.org/fhir/us/core/StructureDefinition/us-core-ethnicity",
        "extension": [ {
          "url": "text",
          "valueString": "Not Hispanic or Latino"
        }, {
          "url": "ombCategory",
          "valueCoding": {
            "system": "urn:oid:2.16.840.1.113883.6.238",
            "code": "2186-5",
            "display": "Not Hispanic or Latino"
          }
        } ]
      } ],
      "identifier": [ {
        "use": "official",
        "system": "urn:oid:1.3.6.1.4.1.16517.1",
        "value": "107624104"
      }, {
        "use": "official",
        "system": "urn:oid:1.3.6.1.4.1.16517.2.2",
        "value": "50068659"
      } ],
      "name": [ {
        "family": "BWHCKDRISKTEST",
        "given": [ "THREETEST" ]
      } ],
      "telecom": [ {
        "system": "phone",
        "value": "(508)777-1717",
        "use": "home"
      } ],
      "gender": "female",
      "birthDate": "1954-02-03",
      "address": [ {
        "line": [ "345 MAIN STREET" ],
        "city": "BOSTON",
        "state": "MA",
        "postalCode": "02109",
        "country": "US"
      } ]
    }
  }, {
    "resource": {
      "resourceType": "Practitioner",
      "id": "da646846-2138-4caa-b410-c1c4ab761bee"
    }
  }, {
    "resource": {
      "resourceType": "Organization",
      "id": "a26ea513-0703-4b79-9537-622b5baa69e8",
      "identifier": [ {
        "use": "official",
        "system": "urn:oid:1.3.6.1.4.1.16517",
        "value": "PHS"
      } ],
      "name": "Partners HealthCare",
      "telecom": [ {
        "system": "phone",
        "value": "(617)278-1000",
        "use": "work"
      } ],
      "address": [ {
        "line": [ "Prudential Tower", "800 Boylston Street, Suite 1150" ],
        "city": "Boston",
        "state": "MA",
        "postalCode": "02199-8001"
      } ]
    }
  }, {
    "resource": {
      "resourceType": "Condition",
      "id": "83d910c2-a613-4cee-ad47-b3adb297e281",
      "clinicalStatus": {
        "coding": [ {
          "system": "http://terminology.hl7.org/CodeSystem/condition-clinical",
          "code": "active",
          "display": "Active"
        } ]
      },
      "verificationStatus": {
        "coding": [ {
          "system": "http://terminology.hl7.org/CodeSystem/condition-ver-status",
          "code": "confirmed",
          "display": "Confirmed"
        } ]
      },
      "category": [ {
        "coding": [ {
          "system": "http://terminology.hl7.org/CodeSystem/condition-category",
          "code": "problem-list-item",
          "display": "Problem List Item"
        } ]
      } ],
      "subject": {
        "reference": "Patient/aabef9f5-8a51-4139-bb30-24fd2a2aa998",
        "display": "THREETEST BWHCKDRISKTEST"
      },
      "onsetDateTime": "2014-02-12T13:03:33+01:00"
    }
  }, {
    "resource": {
      "resourceType": "Immunization",
      "id": "22b1573f-0e9b-428d-9dfa-d494c1085f68",
      "status": "completed",
      "vaccineCode": {
        "text": "No immunization data is applicable"
      },
      "patient": {
        "reference": "Patient/aabef9f5-8a51-4139-bb30-24fd2a2aa998",
        "display": "THREETEST BWHCKDRISKTEST"
      },
      "occurrenceDateTime": "2014-02-12T13:03:33+01:00",
      "primarySource": false
    }
  }, {
    "resource": {
      "resourceType": "Procedure",
      "id": "708af69a-6bc2-4db9-984d-19c73bf713b9",
      "status": "completed",
      "code": {
        "text": "No procedure data is applicable"
      },
      "subject": {
        "reference": "Patient/aabef9f5-8a51-4139-bb30-24fd2a2aa998",
        "display": "THREETEST BWHCKDRISKTEST"
      },
      "performedPeriod": {
        "start": "2014-02-12T13:03:33+01:00"
      }
    }
  }, {
    "resource": {
      "resourceType": "Observation",
      "id": "68f89ee1-36f7-40c6-8894-6c4e6bf5db81",
      "identifier": [ {
        "use": "official",
        "system": "urn:oid:1.3.6.1.4.1.16517",
        "value": "1"
      } ],
      "status": "final",
      "code": {
        "coding": [ {
          "system": "urn:oid:2.16.840.1.113883.5.4",
          "code": "ASSERTION"
        } ]
      },
      "subject": {
        "reference": "Patient/aabef9f5-8a51-4139-bb30-24fd2a2aa998",
        "display": "THREETEST BWHCKDRISKTEST"
      },
      "effectivePeriod": {
        "start": "2014-02-12"
      },
      "dataAbsentReason": {
        "coding": [ {
          "system": "http://hl7.org/fhir/data-absent-reason",
          "code": "unknown",
          "display": "Unkown"
        } ]
      }
    }
  }, {
    "resource": {
      "resourceType": "Encounter",
      "id": "0d575476-5f6e-4c5f-a8e7-af4aada4a7d3",
      "status": "finished",
      "type": [ {
        "coding": [ {
          "system": "http://snomed.info/sct",
          "code": "371531000",
          "display": "encounter report"
        } ],
        "text": "No encounter diagnosis data is applicable"
      } ],
      "subject": {
        "reference": "Patient/aabef9f5-8a51-4139-bb30-24fd2a2aa998",
        "display": "THREETEST BWHCKDRISKTEST"
      },
      "period": {
        "start": "2014-02-12T13:03:33+01:00"
      }
    }
  }, {
    "resource": {
      "resourceType": "Observation",
      "id": "857eef23-1df5-4838-a660-e10f6b082d96",
      "status": "final",
      "category": [ {
        "coding": [ {
          "system": "http://terminology.hl7.org/CodeSystem/observation-category",
          "code": "vital-signs",
          "display": "Vital Signs"
        } ]
      } ],
      "code": {
        "text": "No vital sign data is applicable"
      },
      "subject": {
        "reference": "Patient/aabef9f5-8a51-4139-bb30-24fd2a2aa998",
        "display": "THREETEST BWHCKDRISKTEST"
      },
      "effectivePeriod": {
        "start": "2014-02-12T13:03:33+01:00"
      },
      "dataAbsentReason": {
        "coding": [ {
          "system": "http://hl7.org/fhir/data-absent-reason",
          "code": "temp",
          "display": "Temp"
        } ]
      }
    }
  }, {
    "resource": {
      "resourceType": "MedicationStatement",
      "id": "59d6320d-e683-47d1-9480-40799207f95a",
      "extension": [ {
        "url": "http://hl7.org/fhir/3.0/StructureDefinition/extension-MedicationStatement.status",
        "valueCode": "UNKNOWN"
      } ],
      "status": "completed",
      "medicationReference": {
        "reference": "Medication/183c6e29-8866-4fd5-a83c-83c6f26351f5",
        "display": "No medication data is applicable"
      },
      "subject": {
        "reference": "Patient/aabef9f5-8a51-4139-bb30-24fd2a2aa998",
        "display": "THREETEST BWHCKDRISKTEST"
      },
      "effectivePeriod": {
        "start": "2014-02-12T13:03:33+01:00"
      }
    }
  }, {
    "resource": {
      "resourceType": "Medication",
      "id": "183c6e29-8866-4fd5-a83c-83c6f26351f5",
      "code": {
        "text": "No medication data is applicable"
      }
    }
  }, {
    "resource": {
      "resourceType": "DiagnosticReport",
      "id": "c897c316-1f6e-4ea0-ad60-c70d87ce62ea",
      "identifier": [ {
        "use": "official",
        "system": "urn:oid:1.3.6.1.4.1.16517",
        "value": "100025030736-FC5F01E2-940F-11E3-A946-1CC4B7D83400"
      } ],
      "status": "final",
      "category": [ {
        "coding": [ {
          "system": "http://terminology.hl7.org/CodeSystem/v2-0074",
          "code": "LAB",
          "display": "Laboratory"
        } ]
      } ],
      "code": {
        "coding": [ {
          "system": "http://loinc.org",
          "code": "6777-7",
          "display": "Deprecated Glucose [Mass/volume] in Serum or Plasma"
        } ]
      },
      "subject": {
        "reference": "Patient/aabef9f5-8a51-4139-bb30-24fd2a2aa998",
        "display": "THREETEST BWHCKDRISKTEST"
      },
      "result": [ {
        "reference": "Observation/752566c3-87e8-4c0b-8b28-85b392195911",
        "display": "GLUCOSE"
      } ]
    }
  }, {
    "resource": {
      "resourceType": "Observation",
      "id": "752566c3-87e8-4c0b-8b28-85b392195911",
      "identifier": [ {
        "use": "official",
        "system": "urn:oid:1.3.6.1.4.1.16517",
        "value": "100025030736-FC5F01E2-940F-11E3-A946-1CC4B7D83400"
      } ],
      "status": "final",
      "category": [ {
        "coding": [ {
          "system": "http://terminology.hl7.org/CodeSystem/observation-category",
          "code": "laboratory"
        } ]
      } ],
      "code": {
        "coding": [ {
          "system": "http://loinc.org",
          "code": "6777-7",
          "display": "Deprecated Glucose [Mass/volume] in Serum or Plasma"
        } ],
        "text": "GLUCOSE"
      },
      "subject": {
        "reference": "Patient/aabef9f5-8a51-4139-bb30-24fd2a2aa998",
        "display": "THREETEST BWHCKDRISKTEST"
      },
      "effectivePeriod": {
        "start": "2014-02-11T13:54:00+01:00"
      },
      "valueQuantity": {
        "value": 91,
        "unit": "mg/dL",
        "system": "http://unitsofmeasure.org",
        "code": "mg/dL"
      },
      "referenceRange": [ {
        "text": "70-100 mg/dL"
      } ]
    }
  }, {
    "resource": {
      "resourceType": "DiagnosticReport",
      "id": "a2d21ec6-e87f-4fa3-bc79-b30c50d2a804",
      "identifier": [ {
        "use": "official",
        "system": "urn:oid:1.3.6.1.4.1.16517",
        "value": "100025030649-FC5FDC70-940F-11E3-A946-1CC4B7D83400"
      } ],
      "category": [ {
        "coding": [ {
          "system": "http://terminology.hl7.org/CodeSystem/v2-0074",
          "code": "LAB",
          "display": "Laboratory"
        } ]
      } ],
      "code": {
        "coding": [ {
          "system": "http://loinc.org",
          "code": "13362-9",
          "display": "Collection duration of Urine"
        } ]
      },
      "subject": {
        "reference": "Patient/aabef9f5-8a51-4139-bb30-24fd2a2aa998",
        "display": "THREETEST BWHCKDRISKTEST"
      },
      "result": [ {
        "reference": "Observation/5d6d7528-652e-4211-9d82-d88bd5e3b8c7",
        "display": "TIME SPAN"
      } ]
    }
  }, {
    "resource": {
      "resourceType": "Observation",
      "id": "5d6d7528-652e-4211-9d82-d88bd5e3b8c7",
      "identifier": [ {
        "use": "official",
        "system": "urn:oid:1.3.6.1.4.1.16517",
        "value": "100025030649-FC5FDC70-940F-11E3-A946-1CC4B7D83400"
      } ],
      "category": [ {
        "coding": [ {
          "system": "http://terminology.hl7.org/CodeSystem/observation-category",
          "code": "laboratory"
        } ]
      } ],
      "code": {
        "coding": [ {
          "system": "http://loinc.org",
          "code": "13362-9",
          "display": "Collection duration of Urine"
        } ],
        "text": "TIME SPAN"
      },
      "subject": {
        "reference": "Patient/aabef9f5-8a51-4139-bb30-24fd2a2aa998",
        "display": "THREETEST BWHCKDRISKTEST"
      },
      "effectivePeriod": {
        "start": "2014-02-10T09:30:00+01:00"
      },
      "valueString": "RANDOM"
    }
  }, {
    "resource": {
      "resourceType": "DiagnosticReport",
      "id": "3ff51ea6-42af-41d2-b23f-4a996c3a6a97",
      "identifier": [ {
        "use": "official",
        "system": "urn:oid:1.3.6.1.4.1.16517",
        "value": "100025030741-FC5D933E-940F-11E3-A946-1CC4B7D83400"
      } ],
      "status": "final",
      "category": [ {
        "coding": [ {
          "system": "http://terminology.hl7.org/CodeSystem/v2-0074",
          "code": "LAB",
          "display": "Laboratory"
        } ]
      } ],
      "code": {
        "coding": [ {
          "system": "http://loinc.org",
          "code": "2075-0",
          "display": "Chloride [Moles/volume] in Serum or Plasma"
        } ]
      },
      "subject": {
        "reference": "Patient/aabef9f5-8a51-4139-bb30-24fd2a2aa998",
        "display": "THREETEST BWHCKDRISKTEST"
      },
      "result": [ {
        "reference": "Observation/20b3c8d4-7a50-451a-a2ad-b1cafe31278f",
        "display": "CHLORIDE"
      } ]
    }
  }, {
    "resource": {
      "resourceType": "Observation",
      "id": "20b3c8d4-7a50-451a-a2ad-b1cafe31278f",
      "identifier": [ {
        "use": "official",
        "system": "urn:oid:1.3.6.1.4.1.16517",
        "value": "100025030741-FC5D933E-940F-11E3-A946-1CC4B7D83400"
      } ],
      "status": "final",
      "category": [ {
        "coding": [ {
          "system": "http://terminology.hl7.org/CodeSystem/observation-category",
          "code": "laboratory"
        } ]
      } ],
      "code": {
        "coding": [ {
          "system": "http://loinc.org",
          "code": "2075-0",
          "display": "Chloride [Moles/volume] in Serum or Plasma"
        } ],
        "text": "CHLORIDE"
      },
      "subject": {
        "reference": "Patient/aabef9f5-8a51-4139-bb30-24fd2a2aa998",
        "display": "THREETEST BWHCKDRISKTEST"
      },
      "effectivePeriod": {
        "start": "2014-02-11T13:54:00+01:00"
      },
      "valueQuantity": {
        "value": 103,
        "unit": "mmol/L",
        "system": "http://unitsofmeasure.org",
        "code": "mmol/L"
      },
      "referenceRange": [ {
        "text": "98-107 mmol/L"
      } ]
    }
  }, {
    "resource": {
      "resourceType": "DiagnosticReport",
      "id": "348286ec-0fb2-4a97-a557-fbe1f572d7c2",
      "identifier": [ {
        "use": "official",
        "system": "urn:oid:1.3.6.1.4.1.16517",
        "value": "100025030738-FC5EAD96-940F-11E3-A946-1CC4B7D83400"
      } ],
      "status": "final",
      "category": [ {
        "coding": [ {
          "system": "http://terminology.hl7.org/CodeSystem/v2-0074",
          "code": "LAB",
          "display": "Laboratory"
        } ]
      } ],
      "code": {
        "coding": [ {
          "system": "http://loinc.org",
          "code": "2160-0",
          "display": "Creatinine [Mass/volume] in Serum or Plasma"
        } ]
      },
      "subject": {
        "reference": "Patient/aabef9f5-8a51-4139-bb30-24fd2a2aa998",
        "display": "THREETEST BWHCKDRISKTEST"
      },
      "result": [ {
        "reference": "Observation/12b1d4c1-2d67-433b-8e4f-4d920dc2550c",
        "display": "CREATININE"
      } ]
    }
  }, {
    "resource": {
      "resourceType": "Observation",
      "id": "12b1d4c1-2d67-433b-8e4f-4d920dc2550c",
      "identifier": [ {
        "use": "official",
        "system": "urn:oid:1.3.6.1.4.1.16517",
        "value": "100025030738-FC5EAD96-940F-11E3-A946-1CC4B7D83400"
      } ],
      "status": "final",
      "category": [ {
        "coding": [ {
          "system": "http://terminology.hl7.org/CodeSystem/observation-category",
          "code": "laboratory"
        } ]
      } ],
      "code": {
        "coding": [ {
          "system": "http://loinc.org",
          "code": "2160-0",
          "display": "Creatinine [Mass/volume] in Serum or Plasma"
        } ],
        "text": "CREATININE"
      },
      "subject": {
        "reference": "Patient/aabef9f5-8a51-4139-bb30-24fd2a2aa998",
        "display": "THREETEST BWHCKDRISKTEST"
      },
      "effectivePeriod": {
        "start": "2014-02-11T13:54:00+01:00"
      },
      "valueQuantity": {
        "value": 1.70,
        "unit": "mg/dL",
        "system": "http://unitsofmeasure.org",
        "code": "mg/dL"
      },
      "referenceRange": [ {
        "text": "0.50-1.20 mg/dL"
      } ]
    }
  }, {
    "resource": {
      "resourceType": "DiagnosticReport",
      "id": "1fdf98e0-8622-4844-bf00-175e13e40394",
      "identifier": [ {
        "use": "official",
        "system": "urn:oid:1.3.6.1.4.1.16517",
        "value": "100025030668-FC5E1138-940F-11E3-A946-1CC4B7D83400"
      } ],
      "status": "final",
      "category": [ {
        "coding": [ {
          "system": "http://terminology.hl7.org/CodeSystem/v2-0074",
          "code": "LAB",
          "display": "Laboratory"
        } ]
      } ],
      "code": {
        "coding": [ {
          "system": "http://loinc.org",
          "code": "1751-7",
          "display": "Albumin [Mass/volume] in Serum or Plasma"
        } ]
      },
      "subject": {
        "reference": "Patient/aabef9f5-8a51-4139-bb30-24fd2a2aa998",
        "display": "THREETEST BWHCKDRISKTEST"
      },
      "result": [ {
        "reference": "Observation/040d0bf4-da4e-4ea5-93d9-08317b14b141",
        "display": "ALBUMIN"
      } ]
    }
  }, {
    "resource": {
      "resourceType": "Observation",
      "id": "040d0bf4-da4e-4ea5-93d9-08317b14b141",
      "identifier": [ {
        "use": "official",
        "system": "urn:oid:1.3.6.1.4.1.16517",
        "value": "100025030668-FC5E1138-940F-11E3-A946-1CC4B7D83400"
      } ],
      "status": "final",
      "category": [ {
        "coding": [ {
          "system": "http://terminology.hl7.org/CodeSystem/observation-category",
          "code": "laboratory"
        } ]
      } ],
      "code": {
        "coding": [ {
          "system": "http://loinc.org",
          "code": "1751-7",
          "display": "Albumin [Mass/volume] in Serum or Plasma"
        } ],
        "text": "ALBUMIN"
      },
      "subject": {
        "reference": "Patient/aabef9f5-8a51-4139-bb30-24fd2a2aa998",
        "display": "THREETEST BWHCKDRISKTEST"
      },
      "effectivePeriod": {
        "start": "2014-02-10T10:00:00+01:00"
      },
      "valueQuantity": {
        "value": 3.6,
        "unit": "g/dL",
        "system": "http://unitsofmeasure.org",
        "code": "g/dL"
      },
      "referenceRange": [ {
        "text": "3.5-5.2 g/dL"
      } ]
    }
  }, {
    "resource": {
      "resourceType": "DiagnosticReport",
      "id": "b9a1ae45-e3ef-45a7-99aa-f444981e17cf",
      "identifier": [ {
        "use": "official",
        "system": "urn:oid:1.3.6.1.4.1.16517",
        "value": "100025030650-FC5FB27C-940F-11E3-A946-1CC4B7D83400"
      } ],
      "status": "final",
      "category": [ {
        "coding": [ {
          "system": "http://terminology.hl7.org/CodeSystem/v2-0074",
          "code": "LAB",
          "display": "Laboratory"
        } ]
      } ],
      "code": {
        "coding": [ {
          "system": "http://loinc.org",
          "code": "14959-1",
          "display": "Microalbumin/Creatinine [Mass Ratio] in Urine"
        } ]
      },
      "subject": {
        "reference": "Patient/aabef9f5-8a51-4139-bb30-24fd2a2aa998",
        "display": "THREETEST BWHCKDRISKTEST"
      },
      "result": [ {
        "reference": "Observation/19778383-56e5-4441-a9a0-7589446a6000",
        "display": "Malb/Cr"
      } ]
    }
  }, {
    "resource": {
      "resourceType": "Observation",
      "id": "19778383-56e5-4441-a9a0-7589446a6000",
      "identifier": [ {
        "use": "official",
        "system": "urn:oid:1.3.6.1.4.1.16517",
        "value": "100025030650-FC5FB27C-940F-11E3-A946-1CC4B7D83400"
      } ],
      "status": "final",
      "category": [ {
        "coding": [ {
          "system": "http://terminology.hl7.org/CodeSystem/observation-category",
          "code": "laboratory"
        } ]
      } ],
      "code": {
        "coding": [ {
          "system": "http://loinc.org",
          "code": "14959-1",
          "display": "Microalbumin/Creatinine [Mass Ratio] in Urine"
        } ],
        "text": "Malb/Cr"
      },
      "subject": {
        "reference": "Patient/aabef9f5-8a51-4139-bb30-24fd2a2aa998",
        "display": "THREETEST BWHCKDRISKTEST"
      },
      "effectivePeriod": {
        "start": "2014-02-10T09:30:00+01:00"
      },
      "valueQuantity": {
        "value": 15,
        "unit": "mgAlb/gCre",
        "system": "http://unitsofmeasure.org",
        "code": "mgAlb/gCre"
      },
      "referenceRange": [ {
        "text": "0.0-30 mgAlb/gCre"
      } ]
    }
  }, {
    "resource": {
      "resourceType": "DiagnosticReport",
      "id": "64b0a4e1-ac52-409e-acb1-9bd9326eb32f",
      "identifier": [ {
        "use": "official",
        "system": "urn:oid:1.3.6.1.4.1.16517",
        "value": "100025030739-FC5D208E-940F-11E3-A946-1CC4B7D83400"
      } ],
      "status": "final",
      "category": [ {
        "coding": [ {
          "system": "http://terminology.hl7.org/CodeSystem/v2-0074",
          "code": "LAB",
          "display": "Laboratory"
        } ]
      } ],
      "code": {
        "coding": [ {
          "system": "http://loinc.org",
          "code": "2951-2",
          "display": "Sodium [Moles/volume] in Serum or Plasma"
        } ]
      },
      "subject": {
        "reference": "Patient/aabef9f5-8a51-4139-bb30-24fd2a2aa998",
        "display": "THREETEST BWHCKDRISKTEST"
      },
      "result": [ {
        "reference": "Observation/7e9b76a0-0070-407c-a48c-0c9e5cb8bb1c",
        "display": "SODIUM"
      } ]
    }
  }, {
    "resource": {
      "resourceType": "Observation",
      "id": "7e9b76a0-0070-407c-a48c-0c9e5cb8bb1c",
      "identifier": [ {
        "use": "official",
        "system": "urn:oid:1.3.6.1.4.1.16517",
        "value": "100025030739-FC5D208E-940F-11E3-A946-1CC4B7D83400"
      } ],
      "status": "final",
      "category": [ {
        "coding": [ {
          "system": "http://terminology.hl7.org/CodeSystem/observation-category",
          "code": "laboratory"
        } ]
      } ],
      "code": {
        "coding": [ {
          "system": "http://loinc.org",
          "code": "2951-2",
          "display": "Sodium [Moles/volume] in Serum or Plasma"
        } ],
        "text": "SODIUM"
      },
      "subject": {
        "reference": "Patient/aabef9f5-8a51-4139-bb30-24fd2a2aa998",
        "display": "THREETEST BWHCKDRISKTEST"
      },
      "effectivePeriod": {
        "start": "2014-02-11T13:54:00+01:00"
      },
      "valueQuantity": {
        "value": 141,
        "unit": "mmol/L",
        "system": "http://unitsofmeasure.org",
        "code": "mmol/L"
      },
      "referenceRange": [ {
        "text": "136-145 mmol/L"
      } ]
    }
  }, {
    "resource": {
      "resourceType": "DiagnosticReport",
      "id": "b08d3667-ef02-46ae-bef9-801ae4499d8c",
      "identifier": [ {
        "use": "official",
        "system": "urn:oid:1.3.6.1.4.1.16517",
        "value": "100025030666-FC5E8910-940F-11E3-A946-1CC4B7D83400"
      } ],
      "status": "final",
      "category": [ {
        "coding": [ {
          "system": "http://terminology.hl7.org/CodeSystem/v2-0074",
          "code": "LAB",
          "display": "Laboratory"
        } ]
      } ],
      "code": {
        "coding": [ {
          "system": "http://loinc.org",
          "code": "17861-6",
          "display": "Calcium [Mass/volume] in Serum or Plasma"
        } ]
      },
      "subject": {
        "reference": "Patient/aabef9f5-8a51-4139-bb30-24fd2a2aa998",
        "display": "THREETEST BWHCKDRISKTEST"
      },
      "result": [ {
        "reference": "Observation/9316eea8-e322-4f3a-9ffc-bea1217bd5f9",
        "display": "CALCIUM"
      } ]
    }
  }, {
    "resource": {
      "resourceType": "Observation",
      "id": "9316eea8-e322-4f3a-9ffc-bea1217bd5f9",
      "identifier": [ {
        "use": "official",
        "system": "urn:oid:1.3.6.1.4.1.16517",
        "value": "100025030666-FC5E8910-940F-11E3-A946-1CC4B7D83400"
      } ],
      "status": "final",
      "category": [ {
        "coding": [ {
          "system": "http://terminology.hl7.org/CodeSystem/observation-category",
          "code": "laboratory"
        } ]
      } ],
      "code": {
        "coding": [ {
          "system": "http://loinc.org",
          "code": "17861-6",
          "display": "Calcium [Mass/volume] in Serum or Plasma"
        } ],
        "text": "CALCIUM"
      },
      "subject": {
        "reference": "Patient/aabef9f5-8a51-4139-bb30-24fd2a2aa998",
        "display": "THREETEST BWHCKDRISKTEST"
      },
      "effectivePeriod": {
        "start": "2014-02-10T10:00:00+01:00"
      },
      "valueQuantity": {
        "value": 8.6,
        "unit": "mg/dL",
        "system": "http://unitsofmeasure.org",
        "code": "mg/dL"
      },
      "referenceRange": [ {
        "text": "8.8-10.7 mg/dL"
      } ]
    }
  }, {
    "resource": {
      "resourceType": "DiagnosticReport",
      "id": "30aeb92e-aaff-4c12-8486-069ecf1afc3e",
      "identifier": [ {
        "use": "official",
        "system": "urn:oid:1.3.6.1.4.1.16517",
        "value": "100025030667-FC5F348C-940F-11E3-A946-1CC4B7D83400"
      } ],
      "status": "final",
      "category": [ {
        "coding": [ {
          "system": "http://terminology.hl7.org/CodeSystem/v2-0074",
          "code": "LAB",
          "display": "Laboratory"
        } ]
      } ],
      "code": {
        "coding": [ {
          "system": "http://loinc.org",
          "code": "2777-1",
          "display": "Phosphate [Mass/volume] in Serum or Plasma"
        } ]
      },
      "subject": {
        "reference": "Patient/aabef9f5-8a51-4139-bb30-24fd2a2aa998",
        "display": "THREETEST BWHCKDRISKTEST"
      },
      "result": [ {
        "reference": "Observation/332088f7-30ac-4dc0-b977-51f29aa49e8a",
        "display": "PHOSPHATE"
      } ]
    }
  }, {
    "resource": {
      "resourceType": "Observation",
      "id": "332088f7-30ac-4dc0-b977-51f29aa49e8a",
      "identifier": [ {
        "use": "official",
        "system": "urn:oid:1.3.6.1.4.1.16517",
        "value": "100025030667-FC5F348C-940F-11E3-A946-1CC4B7D83400"
      } ],
      "status": "final",
      "category": [ {
        "coding": [ {
          "system": "http://terminology.hl7.org/CodeSystem/observation-category",
          "code": "laboratory"
        } ]
      } ],
      "code": {
        "coding": [ {
          "system": "http://loinc.org",
          "code": "2777-1",
          "display": "Phosphate [Mass/volume] in Serum or Plasma"
        } ],
        "text": "PHOSPHATE"
      },
      "subject": {
        "reference": "Patient/aabef9f5-8a51-4139-bb30-24fd2a2aa998",
        "display": "THREETEST BWHCKDRISKTEST"
      },
      "effectivePeriod": {
        "start": "2014-02-10T10:00:00+01:00"
      },
      "valueQuantity": {
        "value": 5.0,
        "unit": "mg/dL",
        "system": "http://unitsofmeasure.org",
        "code": "mg/dL"
      },
      "referenceRange": [ {
        "text": "2.4-4.3 mg/dL"
      } ]
    }
  }, {
    "resource": {
      "resourceType": "DiagnosticReport",
      "id": "439406c6-0a50-459d-ae16-c877e802e6a8",
      "identifier": [ {
        "use": "official",
        "system": "urn:oid:1.3.6.1.4.1.16517",
        "value": "100025030740-FC5D6A62-940F-11E3-A946-1CC4B7D83400"
      } ],
      "status": "final",
      "category": [ {
        "coding": [ {
          "system": "http://terminology.hl7.org/CodeSystem/v2-0074",
          "code": "LAB",
          "display": "Laboratory"
        } ]
      } ],
      "code": {
        "coding": [ {
          "system": "http://loinc.org",
          "code": "2823-3",
          "display": "Potassium [Moles/volume] in Serum or Plasma"
        } ]
      },
      "subject": {
        "reference": "Patient/aabef9f5-8a51-4139-bb30-24fd2a2aa998",
        "display": "THREETEST BWHCKDRISKTEST"
      },
      "result": [ {
        "reference": "Observation/439fccd6-c049-4312-8693-f75014b0d0e2",
        "display": "POTASSIUM"
      } ]
    }
  }, {
    "resource": {
      "resourceType": "Observation",
      "id": "439fccd6-c049-4312-8693-f75014b0d0e2",
      "identifier": [ {
        "use": "official",
        "system": "urn:oid:1.3.6.1.4.1.16517",
        "value": "100025030740-FC5D6A62-940F-11E3-A946-1CC4B7D83400"
      } ],
      "status": "final",
      "category": [ {
        "coding": [ {
          "system": "http://terminology.hl7.org/CodeSystem/observation-category",
          "code": "laboratory"
        } ]
      } ],
      "code": {
        "coding": [ {
          "system": "http://loinc.org",
          "code": "2823-3",
          "display": "Potassium [Moles/volume] in Serum or Plasma"
        } ],
        "text": "POTASSIUM"
      },
      "subject": {
        "reference": "Patient/aabef9f5-8a51-4139-bb30-24fd2a2aa998",
        "display": "THREETEST BWHCKDRISKTEST"
      },
      "effectivePeriod": {
        "start": "2014-02-11T13:54:00+01:00"
      },
      "valueQuantity": {
        "value": 4.4,
        "unit": "mmol/L",
        "system": "http://unitsofmeasure.org",
        "code": "mmol/L"
      },
      "referenceRange": [ {
        "text": "3.4-5.0 mmol/L"
      } ]
    }
  }, {
    "resource": {
      "resourceType": "DiagnosticReport",
      "id": "d3c1a8c5-bf8a-4bfb-b8c0-82473b563a3e",
      "identifier": [ {
        "use": "official",
        "system": "urn:oid:1.3.6.1.4.1.16517",
        "value": "100025030664-FC5ED852-940F-11E3-A946-1CC4B7D83400"
      } ],
      "status": "final",
      "category": [ {
        "coding": [ {
          "system": "http://terminology.hl7.org/CodeSystem/v2-0074",
          "code": "LAB",
          "display": "Laboratory"
        } ]
      } ],
      "code": {
        "coding": [ {
          "system": "http://loinc.org",
          "code": "2160-0",
          "display": "Creatinine [Mass/volume] in Serum or Plasma"
        } ]
      },
      "subject": {
        "reference": "Patient/aabef9f5-8a51-4139-bb30-24fd2a2aa998",
        "display": "THREETEST BWHCKDRISKTEST"
      },
      "result": [ {
        "reference": "Observation/6a1a2603-4e9d-421f-bcc4-7e55decdfa25",
        "display": "CREATININE"
      } ]
    }
  }, {
    "resource": {
      "resourceType": "Observation",
      "id": "6a1a2603-4e9d-421f-bcc4-7e55decdfa25",
      "identifier": [ {
        "use": "official",
        "system": "urn:oid:1.3.6.1.4.1.16517",
        "value": "100025030664-FC5ED852-940F-11E3-A946-1CC4B7D83400"
      } ],
      "status": "final",
      "category": [ {
        "coding": [ {
          "system": "http://terminology.hl7.org/CodeSystem/observation-category",
          "code": "laboratory"
        } ]
      } ],
      "code": {
        "coding": [ {
          "system": "http://loinc.org",
          "code": "2160-0",
          "display": "Creatinine [Mass/volume] in Serum or Plasma"
        } ],
        "text": "CREATININE"
      },
      "subject": {
        "reference": "Patient/aabef9f5-8a51-4139-bb30-24fd2a2aa998",
        "display": "THREETEST BWHCKDRISKTEST"
      },
      "effectivePeriod": {
        "start": "2014-02-10T10:00:00+01:00"
      },
      "valueQuantity": {
        "value": 1.7,
        "unit": "mg/dL",
        "system": "http://unitsofmeasure.org",
        "code": "mg/dL"
      },
      "referenceRange": [ {
        "text": "0.50-1.20 mg/dL"
      } ]
    }
  }, {
    "resource": {
      "resourceType": "DiagnosticReport",
      "id": "6e5a3fde-e26d-4a10-8027-ffcef4bac0e1",
      "identifier": [ {
        "use": "official",
        "system": "urn:oid:1.3.6.1.4.1.16517",
        "value": "100025030665-FC60333C-940F-11E3-A946-1CC4B7D83400"
      } ],
      "status": "final",
      "category": [ {
        "coding": [ {
          "system": "http://terminology.hl7.org/CodeSystem/v2-0074",
          "code": "LAB",
          "display": "Laboratory"
        } ]
      } ],
      "code": {
        "coding": [ {
          "system": "http://loinc.org",
          "code": "33914-3",
          "display": "Glomerular filtration rate/1.73 sq M.predicted by Creatinine-based formula (MDRD)"
        } ]
      },
      "subject": {
        "reference": "Patient/aabef9f5-8a51-4139-bb30-24fd2a2aa998",
        "display": "THREETEST BWHCKDRISKTEST"
      },
      "result": [ {
        "reference": "Observation/da762031-0844-4438-99c9-dff2255e69bf",
        "display": "eGFR"
      } ]
    }
  }, {
    "resource": {
      "resourceType": "Observation",
      "id": "da762031-0844-4438-99c9-dff2255e69bf",
      "identifier": [ {
        "use": "official",
        "system": "urn:oid:1.3.6.1.4.1.16517",
        "value": "100025030665-FC60333C-940F-11E3-A946-1CC4B7D83400"
      } ],
      "status": "final",
      "category": [ {
        "coding": [ {
          "system": "http://terminology.hl7.org/CodeSystem/observation-category",
          "code": "laboratory"
        } ]
      } ],
      "code": {
        "coding": [ {
          "system": "http://loinc.org",
          "code": "33914-3",
          "display": "Glomerular filtration rate/1.73 sq M.predicted by Creatinine-based formula (MDRD)"
        } ],
        "text": "eGFR"
      },
      "subject": {
        "reference": "Patient/aabef9f5-8a51-4139-bb30-24fd2a2aa998",
        "display": "THREETEST BWHCKDRISKTEST"
      },
      "effectivePeriod": {
        "start": "2014-02-10T10:00:00+01:00"
      },
      "valueQuantity": {
        "value": 32,
        "unit": "1",
        "system": "http://unitsofmeasure.org",
        "code": "1"
      }
    }
  }, {
    "resource": {
      "resourceType": "DiagnosticReport",
      "id": "0184f692-1a39-4ced-ba38-a285f5a2d9ea",
      "identifier": [ {
        "use": "official",
        "system": "urn:oid:1.3.6.1.4.1.16517",
        "value": "100025030744-FC5E6052-940F-11E3-A946-1CC4B7D83400"
      } ],
      "status": "final",
      "category": [ {
        "coding": [ {
          "system": "http://terminology.hl7.org/CodeSystem/v2-0074",
          "code": "LAB",
          "display": "Laboratory"
        } ]
      } ],
      "code": {
        "coding": [ {
          "system": "http://loinc.org",
          "code": "17861-6",
          "display": "Calcium [Mass/volume] in Serum or Plasma"
        } ]
      },
      "subject": {
        "reference": "Patient/aabef9f5-8a51-4139-bb30-24fd2a2aa998",
        "display": "THREETEST BWHCKDRISKTEST"
      },
      "result": [ {
        "reference": "Observation/3c4d15f9-2b55-443b-8c11-beffb99a5d8d",
        "display": "CALCIUM"
      } ]
    }
  }, {
    "resource": {
      "resourceType": "Observation",
      "id": "3c4d15f9-2b55-443b-8c11-beffb99a5d8d",
      "identifier": [ {
        "use": "official",
        "system": "urn:oid:1.3.6.1.4.1.16517",
        "value": "100025030744-FC5E6052-940F-11E3-A946-1CC4B7D83400"
      } ],
      "status": "final",
      "category": [ {
        "coding": [ {
          "system": "http://terminology.hl7.org/CodeSystem/observation-category",
          "code": "laboratory"
        } ]
      } ],
      "code": {
        "coding": [ {
          "system": "http://loinc.org",
          "code": "17861-6",
          "display": "Calcium [Mass/volume] in Serum or Plasma"
        } ],
        "text": "CALCIUM"
      },
      "subject": {
        "reference": "Patient/aabef9f5-8a51-4139-bb30-24fd2a2aa998",
        "display": "THREETEST BWHCKDRISKTEST"
      },
      "effectivePeriod": {
        "start": "2014-02-11T13:54:00+01:00"
      },
      "valueQuantity": {
        "value": 8.6,
        "unit": "mg/dL",
        "system": "http://unitsofmeasure.org",
        "code": "mg/dL"
      },
      "referenceRange": [ {
        "text": "8.8-10.7 mg/dL"
      } ]
    }
  }, {
    "resource": {
      "resourceType": "DiagnosticReport",
      "id": "251c82db-6541-4074-8d5b-9994a7f8a816",
      "identifier": [ {
        "use": "official",
        "system": "urn:oid:1.3.6.1.4.1.16517",
        "value": "100025030669-FC5DEE42-940F-11E3-A946-1CC4B7D83400"
      } ],
      "status": "final",
      "category": [ {
        "coding": [ {
          "system": "http://terminology.hl7.org/CodeSystem/v2-0074",
          "code": "LAB",
          "display": "Laboratory"
        } ]
      } ],
      "code": {
        "coding": [ {
          "system": "http://loinc.org",
          "code": "2028-9",
          "display": "Carbon dioxide, total [Moles/volume] in Serum or Plasma"
        } ]
      },
      "subject": {
        "reference": "Patient/aabef9f5-8a51-4139-bb30-24fd2a2aa998",
        "display": "THREETEST BWHCKDRISKTEST"
      },
      "result": [ {
        "reference": "Observation/f4c20ee7-d392-4320-a524-9d12b2f8a0aa",
        "display": "TOTAL CO2"
      } ]
    }
  }, {
    "resource": {
      "resourceType": "Observation",
      "id": "f4c20ee7-d392-4320-a524-9d12b2f8a0aa",
      "identifier": [ {
        "use": "official",
        "system": "urn:oid:1.3.6.1.4.1.16517",
        "value": "100025030669-FC5DEE42-940F-11E3-A946-1CC4B7D83400"
      } ],
      "status": "final",
      "category": [ {
        "coding": [ {
          "system": "http://terminology.hl7.org/CodeSystem/observation-category",
          "code": "laboratory"
        } ]
      } ],
      "code": {
        "coding": [ {
          "system": "http://loinc.org",
          "code": "2028-9",
          "display": "Carbon dioxide, total [Moles/volume] in Serum or Plasma"
        } ],
        "text": "TOTAL CO2"
      },
      "subject": {
        "reference": "Patient/aabef9f5-8a51-4139-bb30-24fd2a2aa998",
        "display": "THREETEST BWHCKDRISKTEST"
      },
      "effectivePeriod": {
        "start": "2014-02-10T10:00:00+01:00"
      },
      "valueQuantity": {
        "value": 26,
        "unit": "mmol/L",
        "system": "http://unitsofmeasure.org",
        "code": "mmol/L"
      },
      "referenceRange": [ {
        "text": "22-31 mmol/L"
      } ]
    }
  }, {
    "resource": {
      "resourceType": "DiagnosticReport",
      "id": "f2269427-78e0-4660-947f-4d46107cd118",
      "identifier": [ {
        "use": "official",
        "system": "urn:oid:1.3.6.1.4.1.16517",
        "value": "100025030745-FC600182-940F-11E3-A946-1CC4B7D83400"
      } ],
      "status": "final",
      "category": [ {
        "coding": [ {
          "system": "http://terminology.hl7.org/CodeSystem/v2-0074",
          "code": "LAB",
          "display": "Laboratory"
        } ]
      } ],
      "code": {
        "coding": [ {
          "system": "http://loinc.org",
          "code": "33914-3",
          "display": "Glomerular filtration rate/1.73 sq M.predicted by Creatinine-based formula (MDRD)"
        } ]
      },
      "subject": {
        "reference": "Patient/aabef9f5-8a51-4139-bb30-24fd2a2aa998",
        "display": "THREETEST BWHCKDRISKTEST"
      },
      "result": [ {
        "reference": "Observation/40050e06-d74d-4678-8e28-1f8b429c8a30",
        "display": "eGFR"
      } ]
    }
  }, {
    "resource": {
      "resourceType": "Observation",
      "id": "40050e06-d74d-4678-8e28-1f8b429c8a30",
      "identifier": [ {
        "use": "official",
        "system": "urn:oid:1.3.6.1.4.1.16517",
        "value": "100025030745-FC600182-940F-11E3-A946-1CC4B7D83400"
      } ],
      "status": "final",
      "category": [ {
        "coding": [ {
          "system": "http://terminology.hl7.org/CodeSystem/observation-category",
          "code": "laboratory"
        } ]
      } ],
      "code": {
        "coding": [ {
          "system": "http://loinc.org",
          "code": "33914-3",
          "display": "Glomerular filtration rate/1.73 sq M.predicted by Creatinine-based formula (MDRD)"
        } ],
        "text": "eGFR"
      },
      "subject": {
        "reference": "Patient/aabef9f5-8a51-4139-bb30-24fd2a2aa998",
        "display": "THREETEST BWHCKDRISKTEST"
      },
      "effectivePeriod": {
        "start": "2014-02-11T13:54:00+01:00"
      },
      "valueQuantity": {
        "value": 32,
        "unit": "1",
        "system": "http://unitsofmeasure.org",
        "code": "1"
      }
    }
  }, {
    "resource": {
      "resourceType": "DiagnosticReport",
      "id": "d54a46e0-fecb-40fe-a84f-ce2dbc1424a5",
      "identifier": [ {
        "use": "official",
        "system": "urn:oid:1.3.6.1.4.1.16517",
        "value": "100025030742-FC5DC98A-940F-11E3-A946-1CC4B7D83400"
      } ],
      "status": "final",
      "category": [ {
        "coding": [ {
          "system": "http://terminology.hl7.org/CodeSystem/v2-0074",
          "code": "LAB",
          "display": "Laboratory"
        } ]
      } ],
      "code": {
        "coding": [ {
          "system": "http://loinc.org",
          "code": "2028-9",
          "display": "Carbon dioxide, total [Moles/volume] in Serum or Plasma"
        } ]
      },
      "subject": {
        "reference": "Patient/aabef9f5-8a51-4139-bb30-24fd2a2aa998",
        "display": "THREETEST BWHCKDRISKTEST"
      },
      "result": [ {
        "reference": "Observation/bd2e2443-ff26-4d8e-bc34-95933f3ad888",
        "display": "TOTAL CO2"
      } ]
    }
  }, {
    "resource": {
      "resourceType": "Observation",
      "id": "bd2e2443-ff26-4d8e-bc34-95933f3ad888",
      "identifier": [ {
        "use": "official",
        "system": "urn:oid:1.3.6.1.4.1.16517",
        "value": "100025030742-FC5DC98A-940F-11E3-A946-1CC4B7D83400"
      } ],
      "status": "final",
      "category": [ {
        "coding": [ {
          "system": "http://terminology.hl7.org/CodeSystem/observation-category",
          "code": "laboratory"
        } ]
      } ],
      "code": {
        "coding": [ {
          "system": "http://loinc.org",
          "code": "2028-9",
          "display": "Carbon dioxide, total [Moles/volume] in Serum or Plasma"
        } ],
        "text": "TOTAL CO2"
      },
      "subject": {
        "reference": "Patient/aabef9f5-8a51-4139-bb30-24fd2a2aa998",
        "display": "THREETEST BWHCKDRISKTEST"
      },
      "effectivePeriod": {
        "start": "2014-02-11T13:54:00+01:00"
      },
      "valueQuantity": {
        "value": 26,
        "unit": "mmol/L",
        "system": "http://unitsofmeasure.org",
        "code": "mmol/L"
      },
      "referenceRange": [ {
        "text": "22-31 mmol/L"
      } ]
    }
  }, {
    "resource": {
      "resourceType": "DiagnosticReport",
      "id": "dcc51060-3a0f-44a8-aebc-86f2d63a7fe7",
      "identifier": [ {
        "use": "official",
        "system": "urn:oid:1.3.6.1.4.1.16517",
        "value": "100025030651-FC5F8BE4-940F-11E3-A946-1CC4B7D83400"
      } ],
      "status": "final",
      "category": [ {
        "coding": [ {
          "system": "http://terminology.hl7.org/CodeSystem/v2-0074",
          "code": "LAB",
          "display": "Laboratory"
        } ]
      } ],
      "code": {
        "coding": [ {
          "system": "http://loinc.org",
          "code": "14957-5",
          "display": "Microalbumin [Mass/volume] in Urine"
        } ]
      },
      "subject": {
        "reference": "Patient/aabef9f5-8a51-4139-bb30-24fd2a2aa998",
        "display": "THREETEST BWHCKDRISKTEST"
      },
      "result": [ {
        "reference": "Observation/dc6b31a3-dba9-4939-881f-5b4d5b547863",
        "display": "Malb"
      } ]
    }
  }, {
    "resource": {
      "resourceType": "Observation",
      "id": "dc6b31a3-dba9-4939-881f-5b4d5b547863",
      "identifier": [ {
        "use": "official",
        "system": "urn:oid:1.3.6.1.4.1.16517",
        "value": "100025030651-FC5F8BE4-940F-11E3-A946-1CC4B7D83400"
      } ],
      "status": "final",
      "category": [ {
        "coding": [ {
          "system": "http://terminology.hl7.org/CodeSystem/observation-category",
          "code": "laboratory"
        } ]
      } ],
      "code": {
        "coding": [ {
          "system": "http://loinc.org",
          "code": "14957-5",
          "display": "Microalbumin [Mass/volume] in Urine"
        } ],
        "text": "Malb"
      },
      "subject": {
        "reference": "Patient/aabef9f5-8a51-4139-bb30-24fd2a2aa998",
        "display": "THREETEST BWHCKDRISKTEST"
      },
      "effectivePeriod": {
        "start": "2014-02-10T09:30:00+01:00"
      },
      "valueQuantity": {
        "value": 3.6,
        "unit": "mg/dL",
        "system": "http://unitsofmeasure.org",
        "code": "mg/dL"
      },
      "referenceRange": [ {
        "text": "0.0-2.0 mg/dL"
      } ]
    }
  }, {
    "resource": {
      "resourceType": "DiagnosticReport",
      "id": "20ad16de-cd6e-4b95-b98e-8ef8e9091cdb",
      "identifier": [ {
        "use": "official",
        "system": "urn:oid:1.3.6.1.4.1.16517",
        "value": "100025030737-FC5E3802-940F-11E3-A946-1CC4B7D83400"
      } ],
      "status": "final",
      "category": [ {
        "coding": [ {
          "system": "http://terminology.hl7.org/CodeSystem/v2-0074",
          "code": "LAB",
          "display": "Laboratory"
        } ]
      } ],
      "code": {
        "coding": [ {
          "system": "http://loinc.org",
          "code": "3094-0",
          "display": "Urea nitrogen [Mass/volume] in Serum or Plasma"
        } ]
      },
      "subject": {
        "reference": "Patient/aabef9f5-8a51-4139-bb30-24fd2a2aa998",
        "display": "THREETEST BWHCKDRISKTEST"
      },
      "result": [ {
        "reference": "Observation/96454257-7e10-4f6c-afd5-6db25623e021",
        "display": "UREA N"
      } ]
    }
  }, {
    "resource": {
      "resourceType": "Observation",
      "id": "96454257-7e10-4f6c-afd5-6db25623e021",
      "identifier": [ {
        "use": "official",
        "system": "urn:oid:1.3.6.1.4.1.16517",
        "value": "100025030737-FC5E3802-940F-11E3-A946-1CC4B7D83400"
      } ],
      "status": "final",
      "category": [ {
        "coding": [ {
          "system": "http://terminology.hl7.org/CodeSystem/observation-category",
          "code": "laboratory"
        } ]
      } ],
      "code": {
        "coding": [ {
          "system": "http://loinc.org",
          "code": "3094-0",
          "display": "Urea nitrogen [Mass/volume] in Serum or Plasma"
        } ],
        "text": "UREA N"
      },
      "subject": {
        "reference": "Patient/aabef9f5-8a51-4139-bb30-24fd2a2aa998",
        "display": "THREETEST BWHCKDRISKTEST"
      },
      "effectivePeriod": {
        "start": "2014-02-11T13:54:00+01:00"
      },
      "valueQuantity": {
        "value": 14,
        "unit": "mg/dL",
        "system": "http://unitsofmeasure.org",
        "code": "mg/dL"
      },
      "referenceRange": [ {
        "text": "6-23 mg/dL"
      } ]
    }
  }, {
    "resource": {
      "resourceType": "DiagnosticReport",
      "id": "a543d3d1-0ef7-4d5d-91dd-f803fd4fdc62",
      "identifier": [ {
        "use": "official",
        "system": "urn:oid:1.3.6.1.4.1.16517",
        "value": "100025030743-FC5F6092-940F-11E3-A946-1CC4B7D83400"
      } ],
      "status": "final",
      "category": [ {
        "coding": [ {
          "system": "http://terminology.hl7.org/CodeSystem/v2-0074",
          "code": "LAB",
          "display": "Laboratory"
        } ]
      } ],
      "code": {
        "coding": [ {
          "system": "http://loinc.org",
          "code": "10466-1",
          "display": "Anion gap 3 in Serum or Plasma"
        } ]
      },
      "subject": {
        "reference": "Patient/aabef9f5-8a51-4139-bb30-24fd2a2aa998",
        "display": "THREETEST BWHCKDRISKTEST"
      },
      "result": [ {
        "reference": "Observation/d4dac04e-9561-419c-94c6-80012bf87da0",
        "display": "ANION GAP"
      } ]
    }
  }, {
    "resource": {
      "resourceType": "Observation",
      "id": "d4dac04e-9561-419c-94c6-80012bf87da0",
      "identifier": [ {
        "use": "official",
        "system": "urn:oid:1.3.6.1.4.1.16517",
        "value": "100025030743-FC5F6092-940F-11E3-A946-1CC4B7D83400"
      } ],
      "status": "final",
      "category": [ {
        "coding": [ {
          "system": "http://terminology.hl7.org/CodeSystem/observation-category",
          "code": "laboratory"
        } ]
      } ],
      "code": {
        "coding": [ {
          "system": "http://loinc.org",
          "code": "10466-1",
          "display": "Anion gap 3 in Serum or Plasma"
        } ],
        "text": "ANION GAP"
      },
      "subject": {
        "reference": "Patient/aabef9f5-8a51-4139-bb30-24fd2a2aa998",
        "display": "THREETEST BWHCKDRISKTEST"
      },
      "effectivePeriod": {
        "start": "2014-02-11T13:54:00+01:00"
      },
      "valueQuantity": {
        "value": 10,
        "unit": "mmol/L",
        "system": "http://unitsofmeasure.org",
        "code": "mmol/L"
      },
      "referenceRange": [ {
        "text": "5-17 mmol/L"
      } ]
    }
  }, {
    "resource": {
      "resourceType": "AllergyIntolerance",
      "id": "9e56c704-24a7-4fd4-8e07-a6e4d0184562",
      "identifier": [ {
        "use": "official",
        "system": "urn:oid:1.3.6.1.4.1.16517",
        "value": "1"
      } ],
      "clinicalStatus": {
        "coding": [ {
          "system": "http://terminology.hl7.org/CodeSystem/allergyintolerance-clinical",
          "code": "active",
          "display": "Active"
        } ]
      },
      "verificationStatus": {
        "coding": [ {
          "system": "http://terminology.hl7.org/CodeSystem/allergyintolerance-verification",
          "code": "confirmed",
          "display": "Confirmed"
        } ]
      },
      "patient": {
        "reference": "Patient/aabef9f5-8a51-4139-bb30-24fd2a2aa998",
        "display": "THREETEST BWHCKDRISKTEST"
      },
      "recordedDate": "2014-02-12T13:03:33+01:00"
    }
  }, {
    "resource": {
      "resourceType": "CarePlan",
      "id": "51d04bf7-8b77-4b30-9da9-254a7fc6cf37",
      "text": {
        "status": "additional",
        "div": "<div xmlns=\"http://www.w3.org/1999/xhtml\"><table border=\"1\" width=\"100%\"><thead><tr><th>Date</th><th>Care Plan</th></tr></thead><tbody><tr><td>02/12/2014 13:03</td><td>No goal and instruction data is applicable</td></tr></tbody></table></div>"
      },
      "status": "active",
      "intent": "plan",
      "category": [ {
        "coding": [ {
          "system": "http://hl7.org/fhir/us/core/CodeSystem/careplan-category",
          "code": "assess-plan"
        } ]
      } ],
      "title": "Plan of Care",
      "description": "<div><table border=\"1\" width=\"100%\"><thead><tr><th>Date</th><th>Care Plan</th></tr></thead><tbody><tr><td>02/12/2014 13:03</td><td>No goal and instruction data is applicable</td></tr></tbody></table></div>",
      "subject": {
        "reference": "Patient/aabef9f5-8a51-4139-bb30-24fd2a2aa998",
        "display": "THREETEST BWHCKDRISKTEST"
      }
    }
  } ]
}