{
  "resourceType": "Bundle",
  "entry": [ {
    "resource": {
      "resourceType": "Composition",
      "id": "acf198e8-54c7-4f2d-a5d6-a436cbce1358",
      "identifier": {
        "use": "official",
        "value": "28A334FE-9348-4AE5-A48C-6174F3D766A4"
      },
      "status": "preliminary",
      "type": {
        "coding": [ {
          "system": "http://loinc.org",
          "code": "34133-9",
          "display": "Summarization of episode note"
        } ]
      },
      "category": [ {
        "coding": [ {
          "system": "http://hl7.org/fhir/ValueSet/doc-classcodes",
          "code": "LP173421-7",
          "display": "Note"
        } ]
      } ],
      "subject": {
        "reference": "Patient/834a1d59-fa24-4ca8-8b48-6c317bd16131",
        "display": "Victoria E Wade"
      },
      "date": "2010-10-28T09:20:16.829-05:00",
      "author": [ {
        "reference": "Practitioner/4fac2be3-a4a7-4cd0-ab2f-6eb922775b24",
        "display": "Auto Generated"
      } ],
      "title": "Continuity of Care Document: 10/26/2010 to 10/28/2010",
      "confidentiality": "N",
      "custodian": {
        "reference": "Organization/b69878dc-1faa-4c24-aab2-9bd1b1b3369c",
        "display": "Baseline West Medical Center"
      },
      "event": [ {
        "period": {
          "start": "2010-10-26T09:17:00.000-05:00",
          "end": "2010-10-28T09:20:15.977-05:00"
        },
        "detail": [ {
          "reference": "Practitioner/e9adee8c-da47-4b36-84a6-b808aea6894e",
          "display": "Evan Ward MD"
        }, {
          "reference": "Practitioner/4f79505b-2acc-4366-b1a2-c0858016bad3",
          "display": "EV Easley MD"
        }, {
          "reference": "Practitioner/9a9cac27-ee04-4cf3-879d-4c188135cc49",
          "display": "Lee Morris MD"
        } ]
      } ],
      "section": [ {
        "title": "Medications",
        "code": {
          "coding": [ {
            "system": "http://loinc.org",
            "code": "10160-0",
            "display": "History of medication use"
          } ]
        },
        "text": {
          "status": "additional",
          "div": "<div xmlns=\"http://www.w3.org/1999/xhtml\"><table border=\"1\" width=\"95%\"><colgroup><col width=\"20%\"/><col width=\"35%\"/><col width=\"15%\"/><col width=\"15%\"/><col width=\"15%\"/></colgroup><thead><tr><th>Medication</th><th>Instructions</th><th>Start Date</th><th>End Date</th><th>Status</th></tr></thead><tbody><tr><td><span>lisinopril 10 mg oral tablet</span></td><td><span>= 1 cap(s), PO, Once Daily, 10 cap(s)</span></td><td>09/22/2008</td><td>10/02/2008</td><td>Ordered</td></tr><tr><td><span>Lipitor 20 mg oral tablet</span></td><td><span>2 puff(s), INH, QID, 14 g</span></td><td>08/14/2007</td><td> </td><td>Ordered</td></tr><tr><td><span>Tavist</span></td><td><span>75 mg = 1 tab(s), PO, Once Daily, 30 tab(s)</span></td><td>07/15/2009</td><td> </td><td>Ordered</td></tr><tr><td><span>aspirin</span></td><td><span>5 mg = 1 tab(s), PO, Once Daily, 30 tab(s)</span></td><td>07/15/2009</td><td> </td><td>Ordered</td></tr><tr><td><span>Catapres 0.1 mg oral tablet</span></td><td><span>0.1 mg = 1 tab(s), PO, BID, 180 tab(s)</span></td><td>05/16/2006</td><td> </td><td>Ordered</td></tr><tr><td><span>Zestril 30 mg oral tablet</span></td><td><span>30 mg = 1 tab(s), PO, Once Daily, 30 tab(s)</span></td><td>07/15/2009</td><td> </td><td>Ordered</td></tr></tbody></table></div>"
        },
        "mode": "snapshot"
      }, {
        "title": "Problem List",
        "code": {
          "coding": [ {
            "system": "http://loinc.org",
            "code": "11450-4",
            "display": "Problem List"
          } ]
        },
        "text": {
          "status": "additional",
          "div": "<div xmlns=\"http://www.w3.org/1999/xhtml\"><table border=\"1\" width=\"95%\"><colgroup><col width=\"20%\"/><col width=\"20%\"/><col width=\"20%\"/><col width=\"20%\"/><col width=\"20%\"/></colgroup><thead><tr><th>Type</th><th>Problem</th><th>Effective Dates</th><th>Status</th><th>Health Status</th><th>Informant</th></tr></thead><tbody><tr><td>Problem</td><td><span>CEREBRAL ARTERY OCCLUSION, UNSPECIFIED, WITH CEREBRAL INFARCTION</span></td><td>07/09/2009</td><td>Active</td><td/><td/></tr><tr><td>Problem</td><td><span>Chronic Obstruct Airways Disease</span></td><td>08/12/2007</td><td>Active</td><td> </td><td> </td></tr><tr><td>Problem</td><td><span>Hypertension, essential</span></td><td>05/16/2006</td><td>Active</td><td> </td><td> </td></tr><tr><td>Problem</td><td><span>SYNCOPE AND COLLAPSE</span></td><td>02/15/2010</td><td>Active</td><td> </td><td> </td></tr><tr><td>Problem</td><td><span>Urinary tract infection</span></td><td>09/22/2008</td><td>Active</td><td> </td><td> </td></tr></tbody></table></div>"
        },
        "mode": "snapshot",
        "entry": [ {
          "reference": "Condition/5fcf1335-39a7-41d8-b21e-24a029f3ee0a",
          "display": "SYNCOPE AND COLLAPSE"
        }, {
          "reference": "Condition/2e74efb5-f6c4-4301-9aad-55f4afc13382",
          "display": "CEREBRAL ARTERY OCCLUSION, UNSPECIFIED, WITH CEREBRAL INFARCTION"
        }, {
          "reference": "Condition/c272b050-6b5f-4d2b-a5ca-437194de8b61",
          "display": "Chronic Obstruct Airways Disease"
        }, {
          "reference": "Condition/d30969c1-deab-4225-ad4c-942979f38ef6",
          "display": "Urinary tract infection"
        } ]
      } ]
    }
  }, {
    "resource": {
      "resourceType": "Patient",
      "id": "834a1d59-fa24-4ca8-8b48-6c317bd16131",
      "identifier": [ {
        "use": "official",
        "system": "urn:oid:2.16.840.1.113883.3.13.300.1.1.2.1",
        "value": "9473"
      } ],
      "name": [ {
        "use": "usual",
        "family": "Wade",
        "given": [ "Victoria", "E" ]
      } ],
      "telecom": [ {
        "system": "phone",
        "value": "+13093548275",
        "use": "home"
      } ],
      "gender": "female",
      "birthDate": "1954-03-23",
      "address": [ {
        "use": "home",
        "line": [ "266 York Street" ],
        "city": "Morton",
        "state": "IL",
        "postalCode": "61550-",
        "country": "US"
      } ]
    }
  }, {
    "resource": {
      "resourceType": "Practitioner",
      "id": "4fac2be3-a4a7-4cd0-ab2f-6eb922775b24",
      "name": [ {
        "family": "Auto Generated"
      } ]
    }
  }, {
    "resource": {
      "resourceType": "PractitionerRole",
      "id": "c24c4208-8933-4385-918b-0325570af2df",
      "practitioner": {
        "reference": "Practitioner/4fac2be3-a4a7-4cd0-ab2f-6eb922775b24",
        "display": "Auto Generated"
      },
      "organization": {
        "reference": "Organization/f44a8498-bffd-4043-8ad2-9a2a1d5db7c4",
        "display": "Baseline West Medical Center"
      }
    }
  }, {
    "resource": {
      "resourceType": "Organization",
      "id": "f44a8498-bffd-4043-8ad2-9a2a1d5db7c4",
      "name": "Baseline West Medical Center"
    }
  }, {
    "resource": {
      "resourceType": "Practitioner",
      "id": "e9adee8c-da47-4b36-84a6-b808aea6894e",
      "identifier": [ {
        "use": "official",
        "system": "http://hl7.org/fhir/sid/us-npi",
        "value": "8877443210"
      } ],
      "name": [ {
        "family": "Ward",
        "given": [ "Evan" ],
        "suffix": [ "MD" ]
      } ]
    }
  }, {
    "resource": {
      "resourceType": "Practitioner",
      "id": "4f79505b-2acc-4366-b1a2-c0858016bad3",
      "identifier": [ {
        "use": "official",
        "system": "http://hl7.org/fhir/sid/us-npi",
        "value": "8877996546"
      } ],
      "name": [ {
        "family": "Easley",
        "given": [ "EV" ],
        "suffix": [ "MD" ]
      } ],
      "telecom": [ {
        "system": "phone",
        "value": "+18162012811",
        "use": "work"
      } ],
      "address": [ {
        "use": "work",
        "line": [ "2800 Rockcreek Parkway" ],
        "city": "Kansas City",
        "state": "MO",
        "postalCode": "64116-",
        "country": "US"
      } ]
    }
  }, {
    "resource": {
      "resourceType": "Practitioner",
      "id": "9a9cac27-ee04-4cf3-879d-4c188135cc49",
      "identifier": [ {
        "use": "official",
        "system": "http://hl7.org/fhir/sid/us-npi",
        "value": "6257677609"
      } ],
      "name": [ {
        "family": "Morris",
        "given": [ "Lee" ],
        "suffix": [ "MD" ]
      } ],
      "address": [ {
        "use": "work",
        "line": [ "Base Physician Office", "2800 Rockcreek Parkway", "(816)201-1190   Fax (816)571-1190" ],
        "city": "Kansas City",
        "state": "MO",
        "postalCode": "64117-",
        "country": "US"
      } ]
    }
  }, {
    "resource": {
      "resourceType": "Organization",
      "id": "b69878dc-1faa-4c24-aab2-9bd1b1b3369c",
      "identifier": [ {
        "use": "official",
        "value": "2.16.840.1.113883.3.13.300.1.1.2"
      } ],
      "name": "Baseline West Medical Center",
      "telecom": [ {
        "system": "phone",
        "value": "+18162011202",
        "use": "work"
      } ],
      "address": [ {
        "use": "work",
        "line": [ "1500 Baseline Beltway" ],
        "city": "Kansas City",
        "state": "MO",
        "postalCode": "64118-",
        "country": "US"
      } ]
    }
  }, {
    "resource": {
      "resourceType": "Condition",
      "id": "5fcf1335-39a7-41d8-b21e-24a029f3ee0a",
      "identifier": [ {
        "use": "official",
        "value": "1799BE60-6174-40C1-AE3E-66043D63AEDD"
      } ],
      "clinicalStatus": {
        "coding": [ {
          "system": "http://terminology.hl7.org/CodeSystem/condition-clinical",
          "code": "active",
          "display": "Active"
        } ]
      },
      "verificationStatus": {
        "coding": [ {
          "system": "http://terminology.hl7.org/CodeSystem/condition-ver-status",
          "code": "confirmed",
          "display": "Confirmed"
        } ]
      },
      "category": [ {
        "coding": [ {
          "system": "http://terminology.hl7.org/CodeSystem/condition-category",
          "code": "problem-list-item",
          "display": "Problem List Item"
        } ]
      } ],
      "code": {
        "coding": [ {
          "system": "urn:oid:2.16.840.1.113883.6.104",
          "code": "780.2",
          "display": "SYNCOPE AND COLLAPSE"
        } ],
        "text": "SYNCOPE AND COLLAPSE"
      },
      "subject": {
        "reference": "Patient/834a1d59-fa24-4ca8-8b48-6c317bd16131",
        "display": "Victoria E Wade"
      },
      "onsetDateTime": "2010-02-15"
    }
  }, {
    "resource": {
      "resourceType": "Condition",
      "id": "2e74efb5-f6c4-4301-9aad-55f4afc13382",
      "identifier": [ {
        "use": "official",
        "value": "DD1E8337-0006-4E75-B244-36EB26D18971"
      } ],
      "clinicalStatus": {
        "coding": [ {
          "system": "http://terminology.hl7.org/CodeSystem/condition-clinical",
          "code": "active",
          "display": "Active"
        } ]
      },
      "verificationStatus": {
        "coding": [ {
          "system": "http://terminology.hl7.org/CodeSystem/condition-ver-status",
          "code": "confirmed",
          "display": "Confirmed"
        } ]
      },
      "category": [ {
        "coding": [ {
          "system": "http://terminology.hl7.org/CodeSystem/condition-category",
          "code": "problem-list-item",
          "display": "Problem List Item"
        } ]
      } ],
      "code": {
        "coding": [ {
          "system": "urn:oid:2.16.840.1.113883.6.104",
          "code": "434.91",
          "display": "CEREBRAL ARTERY OCCLUSION, UNSPECIFIED, WITH CEREBRAL INFARCTION"
        } ],
        "text": "CEREBRAL ARTERY OCCLUSION, UNSPECIFIED, WITH CEREBRAL INFARCTION"
      },
      "subject": {
        "reference": "Patient/834a1d59-fa24-4ca8-8b48-6c317bd16131",
        "display": "Victoria E Wade"
      },
      "onsetDateTime": "2009-07-09"
    }
  }, {
    "resource": {
      "resourceType": "Condition",
      "id": "c272b050-6b5f-4d2b-a5ca-437194de8b61",
      "identifier": [ {
        "use": "official",
        "value": "4B69C554-A55E-463C-8845-8EB457046974"
      } ],
      "clinicalStatus": {
        "coding": [ {
          "system": "http://terminology.hl7.org/CodeSystem/condition-clinical",
          "code": "active",
          "display": "Active"
        } ]
      },
      "verificationStatus": {
        "coding": [ {
          "system": "http://terminology.hl7.org/CodeSystem/condition-ver-status",
          "code": "confirmed",
          "display": "Confirmed"
        } ]
      },
      "category": [ {
        "coding": [ {
          "system": "http://terminology.hl7.org/CodeSystem/condition-category",
          "code": "problem-list-item",
          "display": "Problem List Item"
        } ]
      } ],
      "code": {
        "coding": [ {
          "system": "urn:oid:2.16.840.1.113883.6.104",
          "code": "496",
          "display": "Chronic Obstruct Airways Disease"
        } ],
        "text": "Chronic Obstruct Airways Disease"
      },
      "subject": {
        "reference": "Patient/834a1d59-fa24-4ca8-8b48-6c317bd16131",
        "display": "Victoria E Wade"
      },
      "onsetDateTime": "2007-08-12"
    }
  }, {
    "resource": {
      "resourceType": "Condition",
      "id": "d30969c1-deab-4225-ad4c-942979f38ef6",
      "identifier": [ {
        "use": "official",
        "value": "E61A8960-119A-448C-BDCF-911836D50C0D"
      } ],
      "clinicalStatus": {
        "coding": [ {
          "system": "http://terminology.hl7.org/CodeSystem/condition-clinical",
          "code": "active",
          "display": "Active"
        } ]
      },
      "verificationStatus": {
        "coding": [ {
          "system": "http://terminology.hl7.org/CodeSystem/condition-ver-status",
          "code": "confirmed",
          "display": "Confirmed"
        } ]
      },
      "category": [ {
        "coding": [ {
          "system": "http://terminology.hl7.org/CodeSystem/condition-category",
          "code": "problem-list-item",
          "display": "Problem List Item"
        } ]
      } ],
      "code": {
        "coding": [ {
          "system": "urn:oid:2.16.840.1.113883.6.104",
          "code": "599.0",
          "display": "Urinary tract infection"
        } ],
        "text": "Urinary tract infection"
      },
      "subject": {
        "reference": "Patient/834a1d59-fa24-4ca8-8b48-6c317bd16131",
        "display": "Victoria E Wade"
      },
      "onsetDateTime": "2008-09-22"
    }
  } ]
}