{
  "resourceType": "Bundle",
  "entry": [ {
    "resource": {
      "resourceType": "Composition",
      "id": "c550d92f-24b5-442a-8ca8-8ed22909c4c2",
      "identifier": {
        "use": "official",
        "system": "urn:oid:2.16.840.1.113883.1.13.99999.999362",
        "value": "280004"
      },
      "status": "preliminary",
      "type": {
        "coding": [ {
          "system": "http://loinc.org",
          "code": "34133-9",
          "display": "Summarization of episode note"
        } ]
      },
      "category": [ {
        "coding": [ {
          "system": "http://hl7.org/fhir/ValueSet/doc-classcodes",
          "code": "LP173421-7",
          "display": "Note"
        } ]
      } ],
      "subject": {
        "reference": "Patient/28c82502-e606-4a24-887b-796ffda4027c",
        "display": "Steve Williamson"
      },
      "date": "2013-07-17T11:44:46.302-05:00",
      "title": "Transition of Care/Referral Summary",
      "confidentiality": "N",
      "custodian": {
        "reference": "Organization/1760f760-79a1-4eb2-9fee-6501aa3a06f3",
        "display": "Local Community Hospital Organization"
      },
      "event": [ {
        "period": {
          "start": "2013-07-10T21:44:00.000-05:00",
          "end": "2013-07-17T11:44:41.401-05:00"
        },
        "detail": [ {
          "reference": "Practitioner/4a3e7709-87a4-4950-afff-5ac73a05eca0",
          "display": "Aaron Admit MD"
        } ]
      } ],
      "section": [ {
        "title": "Medications",
        "code": {
          "coding": [ {
            "system": "http://loinc.org",
            "code": "10160-0",
            "display": "History of Medication Use"
          } ]
        },
        "text": {
          "status": "additional",
          "div": "<div xmlns=\"http://www.w3.org/1999/xhtml\"><table border=\"1\" width=\"95%\"><colgroup><col width=\"20%\"/><col width=\"35%\"/><col width=\"15%\"/><col width=\"15%\"/><col width=\"15%\"/></colgroup><thead><tr><th>Medication</th><th>Instructions</th><th>Start Date</th><th>Stop Date</th><th>Status</th></tr></thead><tbody><tr><td><span>aspirin 81 mg oral tablet</span></td><td><span>81 mg = 1 tab(s), PO, Once Daily, 30 tab(s)</span></td><td>07/10/2013</td><td> </td><td>Ordered</td></tr><tr><td><span>atorvastatin 40 mg oral tablet</span></td><td><span>40 mg = 1 tab(s), PO, Once Daily</span></td><td>08/08/2008</td><td> </td><td>Ordered</td></tr><tr><td><span>Lantus 100 units/ml subcutaneous solution</span></td><td><span>30 units, Subcutaneous, At Bedtime, 10 mL</span></td><td>01/09/2009</td><td> </td><td>Ordered</td></tr><tr><td><span>NovoLog</span></td><td><span>15 units, Subcutaneous, TIDAC, 10 mL</span></td><td>01/09/2009</td><td> </td><td>Ordered</td></tr></tbody></table></div>"
        },
        "mode": "snapshot"
      }, {
        "title": "Encounter",
        "code": {
          "coding": [ {
            "system": "http://loinc.org",
            "code": "46240-8",
            "display": "History of hospitalizations+History of outpatient visits"
          } ]
        },
        "text": {
          "status": "additional",
          "div": "<div xmlns=\"http://www.w3.org/1999/xhtml\"><table cellpadding=\"0\" cellspacing=\"1\" width=\"95%\"><colgroup><col width=\"10%\"/><col width=\"35%\"/><col width=\"20%\"/><col width=\"35%\"/></colgroup><thead><tr><th>Dates</th><th>Location</th><th>Diagnoses</th><th>Providers</th></tr></thead><tbody><tr><td>07/10/2013</td><td>Local Community Hospital Organization<br/>4000 Hospital Dr.<br/>Portland, OR 97005-    , USA</td><td><span>Final: Exercise-induced angina</span><br/><br/><span>Final: Angina</span></td><td>Owens , Dale<br/>Admit MD, Aaron<br/>Nightengale RN, Nancy<br/></td></tr></tbody></table></div>"
        },
        "mode": "snapshot",
        "entry": [ {
          "reference": "Encounter/c436cb10-a662-44db-9cc6-874c63b9691b",
          "display": "Inpatient"
        } ]
      }, {
        "title": "Immunizations",
        "code": {
          "coding": [ {
            "system": "http://loinc.org",
            "code": "11369-6",
            "display": "History of immunizations"
          } ]
        },
        "text": {
          "status": "additional",
          "div": "<div xmlns=\"http://www.w3.org/1999/xhtml\"><table border=\"1\" width=\"95%\"><colgroup><col width=\"65%\"/><col width=\"20%\"/><col width=\"15%\"/></colgroup><thead><tr><th>Vaccine</th><th>Date</th><th>Refusal Reason</th></tr></thead><tbody><tr><td><span>influenza virus vaccine, inactivated</span></td><td>07/10/2013</td><td> </td></tr></tbody></table></div>"
        },
        "mode": "snapshot",
        "entry": [ {
          "reference": "Immunization/d678ff55-9a39-4a24-9dc1-ae02fc02efdc",
          "display": "influenza virus vaccine, inactivated"
        } ]
      }, {
        "title": "Social History",
        "code": {
          "coding": [ {
            "system": "http://loinc.org",
            "code": "29762-2",
            "display": "Social History"
          } ]
        },
        "text": {
          "status": "additional",
          "div": "<div xmlns=\"http://www.w3.org/1999/xhtml\"><table border=\"1\" width=\"95%\"><colgroup><col width=\"50%\"/><col width=\"50%\"/></colgroup><thead><tr><th>Social History Type</th><th>Response</th></tr></thead><tbody><tr><td><span>Smoking Status</span></td><td><span>Never smoker</span></td></tr></tbody></table></div>"
        },
        "mode": "snapshot",
        "entry": [ {
          "reference": "Observation/0937d002-c43f-4a8d-9024-fff9640d2079"
        } ]
      }, {
        "title": "Results",
        "code": {
          "coding": [ {
            "system": "http://loinc.org",
            "code": "30954-2",
            "display": "Relevant diagnostic tests and/or laboratory data"
          } ]
        },
        "text": {
          "status": "additional",
          "div": "<div xmlns=\"http://www.w3.org/1999/xhtml\"><p>CHEMISTRY</p><table border=\"1\" width=\"95%\"><colgroup><col width=\"20%\"/><col width=\"80%\"/></colgroup><thead><tr><th align=\"right\">Most recent to oldest [Reference Range]:</th><th>1</th></tr></thead><tbody><tr><td>Sodium Level [135-145 mmol/L]</td><td><span>135 mmol/L <br/>(07/10/2013 22:25:00 America/Chicago) </span></td></tr><tr><td>Potassium Level [3.5-5.0 mmol/L]</td><td><span>3.5 mmol/L <br/>(07/10/2013 22:25:00 America/Chicago) </span></td></tr><tr><td>Chloride [95-110 mmol/L]</td><td><span>95 mmol/L <br/>(07/10/2013 22:25:00 America/Chicago) </span></td></tr><tr><td>CO2 [22-33 mmol/L]</td><td><span>23 mmol/L <br/>(07/10/2013 22:25:00 America/Chicago) </span></td></tr><tr><td>Glucose, Random [65-110 mg/dL]</td><td><span>185 mg/dL <br/>*HI*<br/>(07/10/2013 22:25:00 America/Chicago) </span></td></tr><tr><td>BUN [4-18 mg/dL]</td><td><span>8 mg/dL <br/>(07/10/2013 22:25:00 America/Chicago) </span></td></tr><tr><td>Creatinine [0.5-1.2 mg/dL]</td><td><span>.8 mg/dL <br/>(07/10/2013 22:25:00 America/Chicago) </span></td></tr><tr><td>Troponin-T [0.00-0.20 ng/mL]</td><td><span>.01 ng/mL <br/>(07/10/2013 22:25:00 America/Chicago) </span></td></tr></tbody></table></div>"
        },
        "mode": "snapshot",
        "entry": [ {
          "reference": "DiagnosticReport/e2b47dbd-4736-4830-bea2-e5dd1a71d3a5",
          "display": "Chemistry"
        }, {
          "reference": "DiagnosticReport/08efa78c-e285-4852-94c4-04d54f8d22e1",
          "display": "Chemistry"
        } ]
      }, {
        "title": "Procedures",
        "code": {
          "coding": [ {
            "system": "http://loinc.org",
            "code": "47519-4",
            "display": "History of Procedures"
          } ]
        },
        "text": {
          "status": "additional",
          "div": "<div xmlns=\"http://www.w3.org/1999/xhtml\"><table cellpadding=\"0\" cellspacing=\"1\" width=\"95%\"><thead><tr><th>Procedure Type</th><th>Body Site</th><th>Date of Procedure</th><th>Related Diagnosis</th></tr></thead><tbody><tr><td><span>Electrocardiographic procedure</span></td><td> </td><td>07/10/2013 00:00:00 America/Chicago</td><td> </td></tr><tr><td><span>Intranasal oxygen therapy</span></td><td> </td><td>07/10/2013 00:00:00 America/Chicago</td><td> </td></tr></tbody></table></div>"
        },
        "mode": "snapshot",
        "entry": [ {
          "reference": "Procedure/1b53b63e-b6d8-4270-b180-cdadd04136dc",
          "display": "Electrocardiographic procedure"
        }, {
          "reference": "Procedure/d0ad923a-58df-4c90-8988-837cc84fa17e",
          "display": "Intranasal oxygen therapy"
        } ]
      }, {
        "title": "Vital Signs",
        "code": {
          "coding": [ {
            "system": "http://loinc.org",
            "code": "8716-3",
            "display": "Vital Signs"
          } ]
        },
        "text": {
          "status": "additional",
          "div": "<div xmlns=\"http://www.w3.org/1999/xhtml\"><table border=\"1\" width=\"95%\"><colgroup><col width=\"20%\"/><col width=\"80%\"/></colgroup><thead><tr><th align=\"right\">Most recent to oldest [Reference Range]:</th><th>1</th></tr></thead><tbody><tr><td>Systolic Blood Pressure [90-140 mmHg]</td><td><span>150 mmHg <br/>*HI*<br/>(07/10/2013 22:00:00 America/Chicago)</span></td></tr><tr><td>Diastolic Blood Pressure [60-90 mmHg]</td><td><span>95 mmHg <br/>*HI*<br/>(07/10/2013 22:00:00 America/Chicago)</span></td></tr><tr><td>Mean Arterial Pressure [70-100 mmHg]</td><td><span>113 mmHg <br/>*&amp;gt;HHI*<br/>(07/10/2013 22:00:00 America/Chicago)</span></td></tr><tr><td>Height/Length Measured</td><td><span>178 cm <br/>(07/10/2013 22:00:00 America/Chicago)</span></td></tr><tr><td>Weight Measured</td><td><span>82 kg <br/>(07/10/2013 22:00:00 America/Chicago)</span></td></tr><tr><td>BSA Measured</td><td><span>2.01 mm2 <br/>(07/10/2013 22:00:00 America/Chicago)</span></td></tr><tr><td>Body Mass Index Measured</td><td><span>25.88 m2 <br/>(07/10/2013 22:00:00 America/Chicago)</span></td></tr></tbody></table></div>"
        },
        "mode": "snapshot",
        "entry": [ {
          "reference": "Observation/d99b5edf-b353-4481-b67f-e6388fa86486",
          "display": "Mean Arterial Pressure"
        }, {
          "reference": "Observation/005e3743-0930-4960-aa49-c705d009e706",
          "display": "Systolic Blood Pressure"
        }, {
          "reference": "Observation/dc54acc3-050b-4bb7-81de-e40bb02448f0",
          "display": "Diastolic Blood Pressure"
        }, {
          "reference": "Observation/fe70ca14-710a-4f57-96b6-a14a1b52c1c1",
          "display": "Body Mass Index Measured"
        }, {
          "reference": "Observation/1491bd8c-4c73-4a74-b9f5-2e8eeafd3cb0",
          "display": "BSA Measured"
        }, {
          "reference": "Observation/a65f444e-3a40-4142-93dc-32b198ba516d",
          "display": "Weight Measured"
        }, {
          "reference": "Observation/14f63497-a96f-4ed0-ad25-fccad13542b8",
          "display": "Height/Length Measured"
        } ]
      }, {
        "title": "Problem List",
        "code": {
          "coding": [ {
            "system": "http://loinc.org",
            "code": "11450-4",
            "display": "Problem List"
          } ]
        },
        "text": {
          "status": "additional",
          "div": "<div xmlns=\"http://www.w3.org/1999/xhtml\"><table border=\"1\" width=\"95%\"><colgroup><col width=\"20%\"/><col width=\"20%\"/><col width=\"20%\"/><col width=\"20%\"/><col width=\"20%\"/></colgroup><thead><tr><th>Condition</th><th>Effective Dates</th><th>Status</th><th>Health Status</th><th>Informant</th></tr></thead><tbody><tr><td><span>Angina(<span>Confirmed</span>)</span></td><td>07/10/2013</td><td><span>Active</span></td><td><span> </span></td><td> </td></tr><tr><td><span>Diabetes mellitus type 2(<span>Confirmed</span>)</span></td><td>01/09/2009</td><td><span>Active</span></td><td><span> </span></td><td> </td></tr><tr><td><span>Hypercholesterolemia(<span>Confirmed</span>)</span></td><td>08/08/2008</td><td><span>Active</span></td><td><span> </span></td><td> </td></tr></tbody></table><br/><table border=\"1\" width=\"95%\"><colgroup><col width=\"18%\"/><col width=\"18%\"/><col width=\"16%\"/><col width=\"16%\"/><col width=\"16%\"/><col width=\"16%\"/></colgroup><thead><tr><th>Diagnosis</th><th>Diagnosis Type</th><th>Effective Dates</th><th>Health Status</th><th>Clinical Service</th><th>Informant</th></tr></thead><tbody><tr><td><span>Angina</span></td><td>Final</td><td>07/17/2013</td><td><span> </span></td><td>Non-Specified</td><td> </td></tr><tr><td><span>Exercise-induced angina</span></td><td>Final</td><td>07/11/2013</td><td><span> </span></td><td>Non-Specified</td><td> </td></tr></tbody></table></div>"
        },
        "mode": "snapshot",
        "entry": [ {
          "reference": "Condition/36165ff4-a863-45cb-a71f-0c8c8dff1bbc",
          "display": "Exercise-induced angina"
        }, {
          "reference": "Condition/193aee37-7186-4fab-9e87-66deccf678d2",
          "display": "Angina()"
        }, {
          "reference": "Condition/73c9edfc-1c8e-44a6-aa62-c9a2b9980467",
          "display": "Diabetes mellitus type 2()"
        }, {
          "reference": "Condition/d2a328f3-7968-49f5-ae36-c22c74b69f3c",
          "display": "Hypercholesterolemia()"
        }, {
          "reference": "Condition/6fa7d2f3-e91e-42be-9d93-0a47e9a3190e",
          "display": "Angina"
        } ]
      }, {
        "title": "Allergies, Adverse Reactions, Alerts",
        "code": {
          "coding": [ {
            "system": "http://loinc.org",
            "code": "48765-2",
            "display": "Allergies, adverse reactions, alerts"
          } ]
        },
        "text": {
          "status": "additional",
          "div": "<div xmlns=\"http://www.w3.org/1999/xhtml\"><table border=\"1\" width=\"95%\"><colgroup><col width=\"35%\"/><col width=\"50%\"/><col width=\"15%\"/></colgroup><thead><tr><th>Substance</th><th>Reaction</th><th>Severity</th><th>Status</th></tr></thead><tbody><tr><td><span>codeine</span></td><td><span>Nausea</span></td><td><span>Moderate</span></td><td><span>Active</span></td></tr><tr><td><span>penicillin G benzathine</span></td><td><span>Hives</span></td><td><span>Moderate</span></td><td><span>Active</span></td></tr></tbody></table></div>"
        },
        "mode": "snapshot",
        "entry": [ {
          "reference": "AllergyIntolerance/7a74837a-65b2-4d46-a480-8878cf32da0c",
          "display": "Penicillin G"
        }, {
          "reference": "AllergyIntolerance/46905c49-760f-4581-ac60-f48da03c3e80",
          "display": "Codeine"
        } ]
      }, {
        "title": "Functional Status",
        "code": {
          "coding": [ {
            "system": "http://loinc.org",
            "code": "47420-5",
            "display": "Functional Status"
          } ]
        },
        "text": {
          "status": "additional",
          "div": "<div xmlns=\"http://www.w3.org/1999/xhtml\"><p><span>FUNCTIONAL</span></p><p>07/10/2013<br/>Functional Status : Dependence on walking stick<br/></p><p><span>COGNITIVE</span></p><p>07/10/2013<br/>Cognitive Status : Memory impairment<br/></p></div>"
        },
        "mode": "snapshot"
      } ]
    }
  }, {
    "resource": {
      "resourceType": "Patient",
      "id": "28c82502-e606-4a24-887b-796ffda4027c",
      "extension": [ {
        "url": "http://hl7.org/fhir/us/core/StructureDefinition/us-core-race",
        "extension": [ {
          "url": "text",
          "valueString": "Black or African American"
        }, {
          "url": "ombCategory",
          "valueCoding": {
            "system": "urn:oid:2.16.840.1.113883.6.238",
            "code": "2054-5",
            "display": "Black or African American"
          }
        } ]
      }, {
        "url": "http://hl7.org/fhir/us/core/StructureDefinition/us-core-ethnicity",
        "extension": [ {
          "url": "text",
          "valueString": "Not Hispanic or Latino"
        }, {
          "url": "ombCategory",
          "valueCoding": {
            "system": "urn:oid:2.16.840.1.113883.6.238",
            "code": "2186-5",
            "display": "Not Hispanic or Latino"
          }
        } ]
      } ],
      "identifier": [ {
        "use": "official",
        "system": "urn:oid:2.16.840.1.113883.1.13.99999.1",
        "value": "106",
        "assigner": {
          "display": "LCH MRN"
        }
      } ],
      "name": [ {
        "use": "usual",
        "family": "Williamson",
        "given": [ "Steve" ]
      } ],
      "telecom": [ {
        "system": "phone",
        "value": "(503) 325-7464",
        "use": "home"
      } ],
      "gender": "male",
      "birthDate": "1947-04-07",
      "address": [ {
        "use": "home",
        "line": [ "8745 W Willenow Rd" ],
        "city": "Beaverton",
        "state": "OR",
        "postalCode": "97005-",
        "country": "US"
      } ],
      "communication": [ {
        "language": {
          "coding": [ {
            "system": "urn:ietf:bcp:47",
            "code": "eng"
          } ]
        }
      } ],
      "managingOrganization": {
        "reference": "Organization/1760f760-79a1-4eb2-9fee-6501aa3a06f3",
        "display": "Local Community Hospital Organization"
      }
    }
  }, {
    "resource": {
      "resourceType": "Organization",
      "id": "1760f760-79a1-4eb2-9fee-6501aa3a06f3",
      "identifier": [ {
        "use": "official",
        "value": "2.16.840.1.113883.1.13.99999"
      } ],
      "name": "Local Community Hospital Organization",
      "telecom": [ {
        "system": "phone",
        "value": "(555) 555-1010",
        "use": "work"
      } ],
      "address": [ {
        "use": "work",
        "line": [ "4000 Hospital Dr." ],
        "city": "Portland",
        "state": "OR",
        "postalCode": "97005-",
        "country": "US"
      } ]
    }
  }, {
    "resource": {
      "resourceType": "Practitioner",
      "id": "4a3e7709-87a4-4950-afff-5ac73a05eca0",
      "name": [ {
        "family": "Admit",
        "given": [ "Aaron" ],
        "suffix": [ "MD" ]
      } ],
      "telecom": [ {
        "system": "phone",
        "value": "(555) 555-1006",
        "use": "work"
      } ],
      "address": [ {
        "use": "work",
        "line": [ "1006 Healthcare Dr" ],
        "city": "Portland",
        "state": "OR",
        "postalCode": "97005-",
        "country": "US"
      } ]
    }
  }, {
    "resource": {
      "resourceType": "Encounter",
      "id": "c436cb10-a662-44db-9cc6-874c63b9691b",
      "identifier": [ {
        "use": "official",
        "system": "urn:oid:2.16.840.1.113883.1.13.99999.2",
        "value": "162",
        "assigner": {
          "display": "LCH Fin #"
        }
      } ],
      "status": "finished",
      "type": [ {
        "text": "Inpatient"
      } ],
      "subject": {
        "reference": "Patient/28c82502-e606-4a24-887b-796ffda4027c",
        "display": "Steve Williamson"
      },
      "participant": [ {
        "type": [ {
          "coding": [ {
            "system": "http://terminology.hl7.org/CodeSystem/v3-ParticipationType",
            "code": "PART",
            "display": "Participation"
          } ]
        } ],
        "period": {
          "start": "2013-07-10T21:44:00.000-05:00"
        },
        "individual": {
          "reference": "Practitioner/f271ecc9-06bb-4303-8cd3-f2d6dda87e05",
          "display": "Dale Owens"
        }
      }, {
        "type": [ {
          "coding": [ {
            "system": "http://terminology.hl7.org/CodeSystem/v3-ParticipationType",
            "code": "PART",
            "display": "Participation"
          } ]
        } ],
        "period": {
          "start": "2013-07-10T21:44:00.000-05:00"
        },
        "individual": {
          "reference": "Practitioner/92bff076-b7c1-4227-b283-390cfef6c3ea",
          "display": "Nancy Nightengale RN"
        }
      }, {
        "type": [ {
          "coding": [ {
            "system": "http://terminology.hl7.org/CodeSystem/v3-ParticipationType",
            "code": "PART",
            "display": "Participation"
          } ]
        } ],
        "period": {
          "start": "2013-07-10T21:44:00.000-05:00"
        },
        "individual": {
          "reference": "Practitioner/c197df16-d21f-4fca-af1a-1f0ee96feac3",
          "display": "Aaron Admit MD"
        }
      } ],
      "period": {
        "start": "2013-07-10T21:44:00.000-05:00"
      },
      "diagnosis": [ {
        "condition": {
          "reference": "Condition/c9e77e03-0a0f-47cf-9b20-1a949b36ed7c",
          "display": "Final: Exercise-induced angina"
        }
      }, {
        "condition": {
          "reference": "Condition/592e14ab-7625-47ad-8683-f855bd8add95",
          "display": "Final: Angina"
        }
      } ],
      "location": [ {
        "location": {
          "reference": "Location/a73c7d84-0380-434e-8e90-fd4b0f5d78f4",
          "display": "Local Community Hospital Organization"
        }
      } ]
    }
  }, {
    "resource": {
      "resourceType": "Practitioner",
      "id": "f271ecc9-06bb-4303-8cd3-f2d6dda87e05",
      "name": [ {
        "family": "Owens",
        "given": [ "Dale" ]
      } ]
    }
  }, {
    "resource": {
      "resourceType": "Practitioner",
      "id": "92bff076-b7c1-4227-b283-390cfef6c3ea",
      "name": [ {
        "family": "Nightengale",
        "given": [ "Nancy" ],
        "suffix": [ "RN" ]
      } ],
      "telecom": [ {
        "system": "phone",
        "value": "(555) 555-1014",
        "use": "work"
      } ],
      "address": [ {
        "use": "work",
        "line": [ "1004 Healthcare Dr.", "Get Well Clinic" ],
        "city": "Portland",
        "state": "OR",
        "postalCode": "97005-",
        "country": "US"
      } ]
    }
  }, {
    "resource": {
      "resourceType": "Practitioner",
      "id": "c197df16-d21f-4fca-af1a-1f0ee96feac3",
      "name": [ {
        "family": "Admit",
        "given": [ "Aaron" ],
        "suffix": [ "MD" ]
      } ],
      "telecom": [ {
        "system": "phone",
        "value": "(555) 555-1006",
        "use": "work"
      } ],
      "address": [ {
        "use": "work",
        "line": [ "1006 Healthcare Dr" ],
        "city": "Portland",
        "state": "OR",
        "postalCode": "97005-",
        "country": "US"
      } ]
    }
  }, {
    "resource": {
      "resourceType": "Condition",
      "id": "c9e77e03-0a0f-47cf-9b20-1a949b36ed7c",
      "identifier": [ {
        "use": "official",
        "value": "4061A4A6-F8D6-4870-B6D5-05E1F3DAB302"
      } ],
      "clinicalStatus": {
        "coding": [ {
          "system": "http://terminology.hl7.org/CodeSystem/condition-clinical",
          "code": "active",
          "display": "Active"
        } ]
      },
      "verificationStatus": {
        "coding": [ {
          "system": "http://terminology.hl7.org/CodeSystem/condition-ver-status",
          "code": "confirmed",
          "display": "Confirmed"
        } ]
      },
      "category": [ {
        "coding": [ {
          "system": "http://terminology.hl7.org/CodeSystem/condition-category",
          "code": "problem-list-item",
          "display": "Problem List Item"
        } ]
      } ],
      "code": {
        "coding": [ {
          "system": "urn:oid:2.16.840.1.113883.6.103",
          "code": "413.9",
          "display": "Other and unspecified angina pectoris"
        } ],
        "text": "Final: Exercise-induced angina"
      },
      "subject": {
        "reference": "Patient/28c82502-e606-4a24-887b-796ffda4027c",
        "display": "Steve Williamson"
      },
      "onsetDateTime": "2013-07-11T00:00:00.000-05:00"
    }
  }, {
    "resource": {
      "resourceType": "Condition",
      "id": "592e14ab-7625-47ad-8683-f855bd8add95",
      "identifier": [ {
        "use": "official",
        "value": "F2C50FAB-B95D-4002-B33E-50D6E5B66AE1"
      } ],
      "clinicalStatus": {
        "coding": [ {
          "system": "http://terminology.hl7.org/CodeSystem/condition-clinical",
          "code": "active",
          "display": "Active"
        } ]
      },
      "verificationStatus": {
        "coding": [ {
          "system": "http://terminology.hl7.org/CodeSystem/condition-ver-status",
          "code": "confirmed",
          "display": "Confirmed"
        } ]
      },
      "category": [ {
        "coding": [ {
          "system": "http://terminology.hl7.org/CodeSystem/condition-category",
          "code": "problem-list-item",
          "display": "Problem List Item"
        } ]
      } ],
      "code": {
        "coding": [ {
          "system": "http://snomed.info/sct",
          "code": "194828000",
          "display": "Angina (disorder)"
        } ],
        "text": "Final: Angina"
      },
      "subject": {
        "reference": "Patient/28c82502-e606-4a24-887b-796ffda4027c",
        "display": "Steve Williamson"
      },
      "onsetDateTime": "2013-07-17T00:00:00.000-05:00"
    }
  }, {
    "resource": {
      "resourceType": "Location",
      "id": "a73c7d84-0380-434e-8e90-fd4b0f5d78f4",
      "name": "Local Community Hospital Organization",
      "telecom": [ {
        "system": "phone",
        "value": "(555) 555-1010",
        "use": "work"
      } ],
      "address": {
        "use": "work",
        "line": [ "4000 Hospital Dr." ],
        "city": "Portland",
        "state": "OR",
        "postalCode": "97005-",
        "country": "US"
      }
    }
  }, {
    "resource": {
      "resourceType": "Immunization",
      "id": "d678ff55-9a39-4a24-9dc1-ae02fc02efdc",
      "identifier": [ {
        "use": "official",
        "value": "9CFC73B2-FBD5-4364-A406-DCC2F9E971F6"
      } ],
      "status": "completed",
      "vaccineCode": {
        "coding": [ {
          "system": "http://www2a.cdc.gov/vaccines/iis/iisstandards/vaccines.asp?rpt=cvx",
          "code": "88",
          "display": "influenza virus vaccine, inactivated"
        } ],
        "text": "influenza virus vaccine, inactivated"
      },
      "patient": {
        "reference": "Patient/28c82502-e606-4a24-887b-796ffda4027c",
        "display": "Steve Williamson"
      },
      "occurrenceDateTime": "2013-07-10T22:02:00.000-05:00",
      "primarySource": true,
      "route": {
        "coding": [ {
          "system": "http://www.nlm.nih.gov/research/umls/nci",
          "code": "C28161"
        } ],
        "text": "Intramuscular"
      },
      "doseQuantity": {
        "value": 0.25,
        "unit": "mL",
        "system": "http://unitsofmeasure.org/ucum.html"
      },
      "performer": [ {
        "function": {
          "coding": [ {
            "system": "http://hl7.org/fhir/v2/0443",
            "code": "AP",
            "display": "Administering Provider"
          } ]
        },
        "actor": {
          "reference": "Practitioner/39b17c69-082e-43ee-bbaf-9f70da9122ac",
          "display": "Nancy Nightengale RN"
        }
      } ]
    }
  }, {
    "resource": {
      "resourceType": "Practitioner",
      "id": "39b17c69-082e-43ee-bbaf-9f70da9122ac",
      "name": [ {
        "family": "Nightengale",
        "given": [ "Nancy" ],
        "suffix": [ "RN" ]
      } ],
      "telecom": [ {
        "system": "phone",
        "value": "(555) 555-1014",
        "use": "work"
      } ],
      "address": [ {
        "use": "work",
        "line": [ "1004 Healthcare Dr.", "Get Well Clinic" ],
        "city": "Portland",
        "state": "OR",
        "postalCode": "97005-",
        "country": "US"
      } ]
    }
  }, {
    "resource": {
      "resourceType": "Observation",
      "id": "0937d002-c43f-4a8d-9024-fff9640d2079",
      "identifier": [ {
        "use": "official",
        "value": "1C0B2012-3FBF-49DF-BC12-4C52C7F1060A"
      } ],
      "status": "final",
      "code": {
        "coding": [ {
          "system": "urn:oid:2.16.840.1.113883.5.4",
          "code": "ASSERTION"
        } ]
      },
      "subject": {
        "reference": "Patient/28c82502-e606-4a24-887b-796ffda4027c",
        "display": "Steve Williamson"
      },
      "issued": "2013-07-10T21:48:41.000-05:00",
      "performer": [ {
        "reference": "Practitioner/9ff622cc-3773-4a8e-834a-c3509e064ace"
      } ],
      "valueCodeableConcept": {
        "coding": [ {
          "system": "http://snomed.info/sct",
          "code": "266919005",
          "display": "Never smoked tobacco (finding)"
        }, {
          "system": "urn:oid:2.16.840.1.113883.3.13.2.1.1",
          "code": "00DD54E1-3728-45D6-9407-924EAA4F0F7B",
          "display": "Never smoker"
        } ]
      }
    }
  }, {
    "resource": {
      "resourceType": "Practitioner",
      "id": "9ff622cc-3773-4a8e-834a-c3509e064ace",
      "name": [ {
        "family": "Nightengale",
        "given": [ "Nancy" ],
        "suffix": [ "RN" ]
      } ],
      "telecom": [ {
        "system": "phone",
        "value": "(555) 555-1014",
        "use": "work"
      } ],
      "address": [ {
        "use": "work",
        "line": [ "1004 Healthcare Dr.", "Get Well Clinic" ],
        "city": "Portland",
        "state": "OR",
        "postalCode": "97005-",
        "country": "US"
      } ]
    }
  }, {
    "resource": {
      "resourceType": "DiagnosticReport",
      "id": "e2b47dbd-4736-4830-bea2-e5dd1a71d3a5",
      "identifier": [ {
        "use": "official",
        "value": "AC4185E0-49A8-43A1-86AB-70825F216D36"
      } ],
      "status": "final",
      "category": [ {
        "coding": [ {
          "system": "http://terminology.hl7.org/CodeSystem/v2-0074",
          "code": "LAB",
          "display": "Laboratory"
        } ]
      } ],
      "code": {
        "coding": [ {
          "system": "http://loinc.org",
          "code": "18719-5"
        } ],
        "text": "Chemistry"
      },
      "subject": {
        "reference": "Patient/28c82502-e606-4a24-887b-796ffda4027c",
        "display": "Steve Williamson"
      },
      "result": [ {
        "reference": "Observation/dc71fc0b-9903-443c-ab07-216af0432c8c",
        "display": "Troponin-T"
      } ]
    }
  }, {
    "resource": {
      "resourceType": "Observation",
      "id": "dc71fc0b-9903-443c-ab07-216af0432c8c",
      "identifier": [ {
        "use": "official",
        "value": "91B44A30-083E-4DE6-A8C5-C099AE8C17DC"
      } ],
      "status": "final",
      "category": [ {
        "coding": [ {
          "system": "http://terminology.hl7.org/CodeSystem/observation-category",
          "code": "laboratory"
        } ]
      } ],
      "code": {
        "coding": [ {
          "system": "http://loinc.org",
          "code": "6598-7",
          "display": "TROPONIN T.CARDIAC:MCNC:PT:SER/PLAS:QN:"
        } ],
        "text": "Troponin-T"
      },
      "subject": {
        "reference": "Patient/28c82502-e606-4a24-887b-796ffda4027c",
        "display": "Steve Williamson"
      },
      "effectivePeriod": {
        "start": "2013-07-10T22:25:00.000-05:00"
      },
      "issued": "2013-07-10T22:31:21.000-05:00",
      "performer": [ {
        "reference": "Practitioner/b63f6083-f5f0-4391-a40b-de5bc1af5a7f"
      } ],
      "valueQuantity": {
        "value": 0.01,
        "unit": "ng/mL",
        "system": "http://unitsofmeasure.org",
        "code": "ng/mL"
      },
      "interpretation": [ {
        "coding": [ {
          "system": "http://terminology.hl7.org/CodeSystem/v3-ObservationInterpretation",
          "code": "N"
        } ]
      } ],
      "referenceRange": [ {
        "text": "0.00-0.20 ng/mL"
      } ]
    }
  }, {
    "resource": {
      "resourceType": "Practitioner",
      "id": "b63f6083-f5f0-4391-a40b-de5bc1af5a7f",
      "name": [ {
        "family": "Vogl-Williams",
        "given": [ "Megan" ]
      } ]
    }
  }, {
    "resource": {
      "resourceType": "DiagnosticReport",
      "id": "08efa78c-e285-4852-94c4-04d54f8d22e1",
      "identifier": [ {
        "use": "official",
        "value": "017E3917-08E5-4999-9F95-6A4E570446C8"
      } ],
      "status": "final",
      "category": [ {
        "coding": [ {
          "system": "http://terminology.hl7.org/CodeSystem/v2-0074",
          "code": "LAB",
          "display": "Laboratory"
        } ]
      } ],
      "code": {
        "coding": [ {
          "system": "http://loinc.org",
          "code": "18719-5"
        } ],
        "text": "Chemistry"
      },
      "subject": {
        "reference": "Patient/28c82502-e606-4a24-887b-796ffda4027c",
        "display": "Steve Williamson"
      },
      "result": [ {
        "reference": "Observation/ddc6f754-8934-4514-a05a-7d2e44dbe933",
        "display": "Potassium Level"
      }, {
        "reference": "Observation/4f46f0c3-beb5-4d95-892c-5be14a12f0ff",
        "display": "BUN"
      }, {
        "reference": "Observation/cb5b4587-810d-4b71-a4ea-afd15033d5e0",
        "display": "Sodium Level"
      }, {
        "reference": "Observation/822149d4-3c2d-44a2-868e-941b7bfe3e0b",
        "display": "Glucose, Random"
      }, {
        "reference": "Observation/1a86874f-2111-48dd-8961-92b8179311c0",
        "display": "Creatinine"
      }, {
        "reference": "Observation/1f499ed9-d64c-42ab-8e8d-1d34b0123fcb",
        "display": "CO2"
      }, {
        "reference": "Observation/5c333216-3074-48ca-a275-74f6ba0ad44a",
        "display": "Chloride"
      } ]
    }
  }, {
    "resource": {
      "resourceType": "Observation",
      "id": "ddc6f754-8934-4514-a05a-7d2e44dbe933",
      "identifier": [ {
        "use": "official",
        "value": "36BC4056-C342-4B43-A721-087D0787E23F"
      } ],
      "status": "final",
      "category": [ {
        "coding": [ {
          "system": "http://terminology.hl7.org/CodeSystem/observation-category",
          "code": "laboratory"
        } ]
      } ],
      "code": {
        "coding": [ {
          "system": "http://loinc.org",
          "code": "6298-4",
          "display": "POTASSIUM:SCNC:PT:BLD:QN:"
        } ],
        "text": "Potassium Level"
      },
      "subject": {
        "reference": "Patient/28c82502-e606-4a24-887b-796ffda4027c",
        "display": "Steve Williamson"
      },
      "effectivePeriod": {
        "start": "2013-07-10T22:25:00.000-05:00"
      },
      "issued": "2013-07-10T22:31:21.000-05:00",
      "performer": [ {
        "reference": "Practitioner/22151035-95e2-49e4-b7e1-733fcfbcb99e"
      } ],
      "valueQuantity": {
        "value": 3.5,
        "unit": "mmol/L",
        "system": "http://unitsofmeasure.org",
        "code": "mmol/L"
      },
      "interpretation": [ {
        "coding": [ {
          "system": "http://terminology.hl7.org/CodeSystem/v3-ObservationInterpretation",
          "code": "N"
        } ]
      } ],
      "referenceRange": [ {
        "text": "3.5-5.0 mmol/L"
      } ]
    }
  }, {
    "resource": {
      "resourceType": "Practitioner",
      "id": "22151035-95e2-49e4-b7e1-733fcfbcb99e",
      "name": [ {
        "family": "Vogl-Williams",
        "given": [ "Megan" ]
      } ]
    }
  }, {
    "resource": {
      "resourceType": "Observation",
      "id": "4f46f0c3-beb5-4d95-892c-5be14a12f0ff",
      "identifier": [ {
        "use": "official",
        "value": "7F3C68D9-15D9-46BD-AA86-19458DB8D5E1"
      } ],
      "status": "final",
      "category": [ {
        "coding": [ {
          "system": "http://terminology.hl7.org/CodeSystem/observation-category",
          "code": "laboratory"
        } ]
      } ],
      "code": {
        "coding": [ {
          "system": "http://loinc.org",
          "code": "6299-2",
          "display": "UREA NITROGEN:MCNC:PT:BLD:QN:"
        } ],
        "text": "BUN"
      },
      "subject": {
        "reference": "Patient/28c82502-e606-4a24-887b-796ffda4027c",
        "display": "Steve Williamson"
      },
      "effectivePeriod": {
        "start": "2013-07-10T22:25:00.000-05:00"
      },
      "issued": "2013-07-10T22:31:21.000-05:00",
      "performer": [ {
        "reference": "Practitioner/92854d2c-c6e8-4dc2-a16c-7d8438f62b82"
      } ],
      "valueQuantity": {
        "value": 8,
        "unit": "mg/dL",
        "system": "http://unitsofmeasure.org",
        "code": "mg/dL"
      },
      "interpretation": [ {
        "coding": [ {
          "system": "http://terminology.hl7.org/CodeSystem/v3-ObservationInterpretation",
          "code": "N"
        } ]
      } ],
      "referenceRange": [ {
        "text": "4-18 mg/dL"
      } ]
    }
  }, {
    "resource": {
      "resourceType": "Practitioner",
      "id": "92854d2c-c6e8-4dc2-a16c-7d8438f62b82",
      "name": [ {
        "family": "Vogl-Williams",
        "given": [ "Megan" ]
      } ]
    }
  }, {
    "resource": {
      "resourceType": "Observation",
      "id": "cb5b4587-810d-4b71-a4ea-afd15033d5e0",
      "identifier": [ {
        "use": "official",
        "value": "0600879C-3BF8-4B74-8260-0160363D9A1D"
      } ],
      "status": "final",
      "category": [ {
        "coding": [ {
          "system": "http://terminology.hl7.org/CodeSystem/observation-category",
          "code": "laboratory"
        } ]
      } ],
      "code": {
        "coding": [ {
          "system": "http://loinc.org",
          "code": "2947-0",
          "display": "SODIUM:SCNC:PT:BLD:QN:"
        } ],
        "text": "Sodium Level"
      },
      "subject": {
        "reference": "Patient/28c82502-e606-4a24-887b-796ffda4027c",
        "display": "Steve Williamson"
      },
      "effectivePeriod": {
        "start": "2013-07-10T22:25:00.000-05:00"
      },
      "issued": "2013-07-10T22:31:21.000-05:00",
      "performer": [ {
        "reference": "Practitioner/17024df9-7063-4bee-81af-4b241ed99661"
      } ],
      "valueQuantity": {
        "value": 135,
        "unit": "mmol/L",
        "system": "http://unitsofmeasure.org",
        "code": "mmol/L"
      },
      "interpretation": [ {
        "coding": [ {
          "system": "http://terminology.hl7.org/CodeSystem/v3-ObservationInterpretation",
          "code": "N"
        } ]
      } ],
      "referenceRange": [ {
        "text": "135-145 mmol/L"
      } ]
    }
  }, {
    "resource": {
      "resourceType": "Practitioner",
      "id": "17024df9-7063-4bee-81af-4b241ed99661",
      "name": [ {
        "family": "Vogl-Williams",
        "given": [ "Megan" ]
      } ]
    }
  }, {
    "resource": {
      "resourceType": "Observation",
      "id": "822149d4-3c2d-44a2-868e-941b7bfe3e0b",
      "identifier": [ {
        "use": "official",
        "value": "E03D8FCD-2EFC-4EE7-B195-4DFF15BFF96E"
      } ],
      "status": "final",
      "category": [ {
        "coding": [ {
          "system": "http://terminology.hl7.org/CodeSystem/observation-category",
          "code": "laboratory"
        } ]
      } ],
      "code": {
        "coding": [ {
          "system": "http://loinc.org",
          "code": "2339-0",
          "display": "GLUCOSE:MCNC:PT:BLD:QN:"
        } ],
        "text": "Glucose, Random"
      },
      "subject": {
        "reference": "Patient/28c82502-e606-4a24-887b-796ffda4027c",
        "display": "Steve Williamson"
      },
      "effectivePeriod": {
        "start": "2013-07-10T22:25:00.000-05:00"
      },
      "issued": "2013-07-10T22:31:21.000-05:00",
      "performer": [ {
        "reference": "Practitioner/7f85e85b-9dcc-4a02-aeb4-583fbd45ecf1"
      } ],
      "valueQuantity": {
        "value": 185,
        "unit": "mg/dL",
        "system": "http://unitsofmeasure.org",
        "code": "mg/dL"
      },
      "interpretation": [ {
        "coding": [ {
          "system": "http://terminology.hl7.org/CodeSystem/v3-ObservationInterpretation",
          "code": "H"
        } ]
      } ],
      "referenceRange": [ {
        "text": "65-110 mg/dL"
      } ]
    }
  }, {
    "resource": {
      "resourceType": "Practitioner",
      "id": "7f85e85b-9dcc-4a02-aeb4-583fbd45ecf1",
      "name": [ {
        "family": "Vogl-Williams",
        "given": [ "Megan" ]
      } ]
    }
  }, {
    "resource": {
      "resourceType": "Observation",
      "id": "1a86874f-2111-48dd-8961-92b8179311c0",
      "identifier": [ {
        "use": "official",
        "value": "4DEDB271-7066-4A69-B187-1D3A4D2B6E9F"
      } ],
      "status": "final",
      "category": [ {
        "coding": [ {
          "system": "http://terminology.hl7.org/CodeSystem/observation-category",
          "code": "laboratory"
        } ]
      } ],
      "code": {
        "coding": [ {
          "system": "http://loinc.org",
          "code": "38483-4",
          "display": "CREATININE:MCNC:PT:BLD:QN:"
        } ],
        "text": "Creatinine"
      },
      "subject": {
        "reference": "Patient/28c82502-e606-4a24-887b-796ffda4027c",
        "display": "Steve Williamson"
      },
      "effectivePeriod": {
        "start": "2013-07-10T22:25:00.000-05:00"
      },
      "issued": "2013-07-10T22:31:21.000-05:00",
      "performer": [ {
        "reference": "Practitioner/ced5ed49-af4c-4e7e-9e4a-27dc25646ec5"
      } ],
      "valueQuantity": {
        "value": 0.8,
        "unit": "mg/dL",
        "system": "http://unitsofmeasure.org",
        "code": "mg/dL"
      },
      "interpretation": [ {
        "coding": [ {
          "system": "http://terminology.hl7.org/CodeSystem/v3-ObservationInterpretation",
          "code": "N"
        } ]
      } ],
      "referenceRange": [ {
        "text": "0.5-1.2 mg/dL"
      } ]
    }
  }, {
    "resource": {
      "resourceType": "Practitioner",
      "id": "ced5ed49-af4c-4e7e-9e4a-27dc25646ec5",
      "name": [ {
        "family": "Vogl-Williams",
        "given": [ "Megan" ]
      } ]
    }
  }, {
    "resource": {
      "resourceType": "Observation",
      "id": "1f499ed9-d64c-42ab-8e8d-1d34b0123fcb",
      "identifier": [ {
        "use": "official",
        "value": "0C22AB7D-B3F2-4EE0-A6FA-0A2F3CAB3B18"
      } ],
      "status": "final",
      "category": [ {
        "coding": [ {
          "system": "http://terminology.hl7.org/CodeSystem/observation-category",
          "code": "laboratory"
        } ]
      } ],
      "code": {
        "coding": [ {
          "system": "http://loinc.org",
          "code": "2028-9",
          "display": "CARBON DIOXIDE:SCNC:PT:SER/PLAS:QN:"
        } ],
        "text": "CO2"
      },
      "subject": {
        "reference": "Patient/28c82502-e606-4a24-887b-796ffda4027c",
        "display": "Steve Williamson"
      },
      "effectivePeriod": {
        "start": "2013-07-10T22:25:00.000-05:00"
      },
      "issued": "2013-07-10T22:31:21.000-05:00",
      "performer": [ {
        "reference": "Practitioner/669accf5-ef1c-4ed0-8471-6aee0113407e"
      } ],
      "valueQuantity": {
        "value": 23,
        "unit": "mmol/L",
        "system": "http://unitsofmeasure.org",
        "code": "mmol/L"
      },
      "interpretation": [ {
        "coding": [ {
          "system": "http://terminology.hl7.org/CodeSystem/v3-ObservationInterpretation",
          "code": "N"
        } ]
      } ],
      "referenceRange": [ {
        "text": "22-33 mmol/L"
      } ]
    }
  }, {
    "resource": {
      "resourceType": "Practitioner",
      "id": "669accf5-ef1c-4ed0-8471-6aee0113407e",
      "name": [ {
        "family": "Vogl-Williams",
        "given": [ "Megan" ]
      } ]
    }
  }, {
    "resource": {
      "resourceType": "Observation",
      "id": "5c333216-3074-48ca-a275-74f6ba0ad44a",
      "identifier": [ {
        "use": "official",
        "value": "4AB64BAD-9534-4005-A8FF-06E7A0116C0B"
      } ],
      "status": "final",
      "category": [ {
        "coding": [ {
          "system": "http://terminology.hl7.org/CodeSystem/observation-category",
          "code": "laboratory"
        } ]
      } ],
      "code": {
        "coding": [ {
          "system": "http://loinc.org",
          "code": "2069-3",
          "display": "CHLORIDE:SCNC:PT:BLD:QN:"
        } ],
        "text": "Chloride"
      },
      "subject": {
        "reference": "Patient/28c82502-e606-4a24-887b-796ffda4027c",
        "display": "Steve Williamson"
      },
      "effectivePeriod": {
        "start": "2013-07-10T22:25:00.000-05:00"
      },
      "issued": "2013-07-10T22:31:21.000-05:00",
      "performer": [ {
        "reference": "Practitioner/95f57374-36ad-4c61-b296-1b75c344e20b"
      } ],
      "valueQuantity": {
        "value": 95,
        "unit": "mmol/L",
        "system": "http://unitsofmeasure.org",
        "code": "mmol/L"
      },
      "interpretation": [ {
        "coding": [ {
          "system": "http://terminology.hl7.org/CodeSystem/v3-ObservationInterpretation",
          "code": "N"
        } ]
      } ],
      "referenceRange": [ {
        "text": "95-110 mmol/L"
      } ]
    }
  }, {
    "resource": {
      "resourceType": "Practitioner",
      "id": "95f57374-36ad-4c61-b296-1b75c344e20b",
      "name": [ {
        "family": "Vogl-Williams",
        "given": [ "Megan" ]
      } ]
    }
  }, {
    "resource": {
      "resourceType": "Procedure",
      "id": "1b53b63e-b6d8-4270-b180-cdadd04136dc",
      "identifier": [ {
        "use": "official",
        "value": "FCFF8009-BD21-440F-8BEA-E76E19491DDD"
      } ],
      "status": "completed",
      "code": {
        "coding": [ {
          "system": "http://snomed.info/sct",
          "code": "29303009",
          "display": "Electrocardiographic procedure (procedure)"
        } ],
        "text": "Electrocardiographic procedure"
      },
      "subject": {
        "reference": "Patient/28c82502-e606-4a24-887b-796ffda4027c",
        "display": "Steve Williamson"
      },
      "encounter": {
        "reference": "Encounter/c436cb10-a662-44db-9cc6-874c63b9691b",
        "display": "Electrocardiographic procedure"
      },
      "performedPeriod": {
        "start": "2013-07-10T00:00:00.000-05:00"
      }
    }
  }, {
    "resource": {
      "resourceType": "Procedure",
      "id": "d0ad923a-58df-4c90-8988-837cc84fa17e",
      "identifier": [ {
        "use": "official",
        "value": "1886B155-D01F-4D90-8395-5BB79EA741CF"
      } ],
      "status": "completed",
      "code": {
        "coding": [ {
          "system": "http://snomed.info/sct",
          "code": "71786000",
          "display": "Intranasal oxygen therapy (procedure)"
        } ],
        "text": "Intranasal oxygen therapy"
      },
      "subject": {
        "reference": "Patient/28c82502-e606-4a24-887b-796ffda4027c",
        "display": "Steve Williamson"
      },
      "encounter": {
        "reference": "Encounter/c436cb10-a662-44db-9cc6-874c63b9691b",
        "display": "Intranasal oxygen therapy"
      },
      "performedPeriod": {
        "start": "2013-07-10T00:00:00.000-05:00"
      }
    }
  }, {
    "resource": {
      "resourceType": "Observation",
      "id": "d99b5edf-b353-4481-b67f-e6388fa86486",
      "identifier": [ {
        "use": "official",
        "value": "32FE5620-BCED-4B41-88F2-E0D92D6F2C28"
      } ],
      "status": "final",
      "category": [ {
        "coding": [ {
          "system": "http://terminology.hl7.org/CodeSystem/observation-category",
          "code": "vital-signs",
          "display": "Vital Signs"
        } ]
      } ],
      "code": {
        "text": "Mean Arterial Pressure"
      },
      "subject": {
        "reference": "Patient/28c82502-e606-4a24-887b-796ffda4027c",
        "display": "Steve Williamson"
      },
      "effectivePeriod": {
        "start": "2013-07-10T22:00:00.000-05:00"
      },
      "issued": "2013-07-10T22:01:47.000-05:00",
      "performer": [ {
        "reference": "Practitioner/c36ef787-5894-4403-8732-364236ed27a7"
      } ],
      "valueQuantity": {
        "value": 113,
        "unit": "mm[Hg]",
        "system": "http://unitsofmeasure.org",
        "code": "mm[Hg]"
      },
      "referenceRange": [ {
        "text": "70-100 mmHg"
      } ]
    }
  }, {
    "resource": {
      "resourceType": "Practitioner",
      "id": "c36ef787-5894-4403-8732-364236ed27a7"
    }
  }, {
    "resource": {
      "resourceType": "Observation",
      "id": "005e3743-0930-4960-aa49-c705d009e706",
      "identifier": [ {
        "use": "official",
        "value": "95D23B1C-3115-475D-86BF-F57BDC0E3970"
      } ],
      "status": "final",
      "category": [ {
        "coding": [ {
          "system": "http://terminology.hl7.org/CodeSystem/observation-category",
          "code": "vital-signs",
          "display": "Vital Signs"
        } ]
      } ],
      "code": {
        "coding": [ {
          "system": "http://loinc.org",
          "code": "8480-6"
        } ],
        "text": "Systolic Blood Pressure"
      },
      "subject": {
        "reference": "Patient/28c82502-e606-4a24-887b-796ffda4027c",
        "display": "Steve Williamson"
      },
      "effectivePeriod": {
        "start": "2013-07-10T22:00:00.000-05:00"
      },
      "issued": "2013-07-10T22:01:47.000-05:00",
      "performer": [ {
        "reference": "Practitioner/41763a6d-22da-4503-a395-9abd8cdb6e2f"
      } ],
      "valueQuantity": {
        "value": 150,
        "unit": "mm[Hg]",
        "system": "http://unitsofmeasure.org",
        "code": "mm[Hg]"
      },
      "interpretation": [ {
        "coding": [ {
          "system": "http://terminology.hl7.org/CodeSystem/v3-ObservationInterpretation",
          "code": "H"
        } ]
      } ],
      "referenceRange": [ {
        "text": "90-140 mmHg"
      } ]
    }
  }, {
    "resource": {
      "resourceType": "Practitioner",
      "id": "41763a6d-22da-4503-a395-9abd8cdb6e2f"
    }
  }, {
    "resource": {
      "resourceType": "Observation",
      "id": "dc54acc3-050b-4bb7-81de-e40bb02448f0",
      "identifier": [ {
        "use": "official",
        "value": "0157B02E-26DD-4AE7-82A2-C095EF153C9E"
      } ],
      "status": "final",
      "category": [ {
        "coding": [ {
          "system": "http://terminology.hl7.org/CodeSystem/observation-category",
          "code": "vital-signs",
          "display": "Vital Signs"
        } ]
      } ],
      "code": {
        "coding": [ {
          "system": "http://loinc.org",
          "code": "8462-4"
        } ],
        "text": "Diastolic Blood Pressure"
      },
      "subject": {
        "reference": "Patient/28c82502-e606-4a24-887b-796ffda4027c",
        "display": "Steve Williamson"
      },
      "effectivePeriod": {
        "start": "2013-07-10T22:00:00.000-05:00"
      },
      "issued": "2013-07-10T22:01:47.000-05:00",
      "performer": [ {
        "reference": "Practitioner/aa263837-e0c2-4b25-bf3e-c3cce5a34611"
      } ],
      "valueQuantity": {
        "value": 95,
        "unit": "mm[Hg]",
        "system": "http://unitsofmeasure.org",
        "code": "mm[Hg]"
      },
      "interpretation": [ {
        "coding": [ {
          "system": "http://terminology.hl7.org/CodeSystem/v3-ObservationInterpretation",
          "code": "H"
        } ]
      } ],
      "referenceRange": [ {
        "text": "60-90 mmHg"
      } ]
    }
  }, {
    "resource": {
      "resourceType": "Practitioner",
      "id": "aa263837-e0c2-4b25-bf3e-c3cce5a34611"
    }
  }, {
    "resource": {
      "resourceType": "Observation",
      "id": "fe70ca14-710a-4f57-96b6-a14a1b52c1c1",
      "identifier": [ {
        "use": "official",
        "value": "0D14EEC1-4409-44CB-98A3-F434ADD58B97"
      } ],
      "status": "final",
      "category": [ {
        "coding": [ {
          "system": "http://terminology.hl7.org/CodeSystem/observation-category",
          "code": "vital-signs",
          "display": "Vital Signs"
        } ]
      } ],
      "code": {
        "text": "Body Mass Index Measured"
      },
      "subject": {
        "reference": "Patient/28c82502-e606-4a24-887b-796ffda4027c",
        "display": "Steve Williamson"
      },
      "effectivePeriod": {
        "start": "2013-07-10T22:00:00.000-05:00"
      },
      "issued": "2013-07-10T22:01:47.000-05:00",
      "performer": [ {
        "reference": "Practitioner/dade3830-03da-4de4-820d-89df3a0e2d2f"
      } ],
      "valueQuantity": {
        "value": 25.88,
        "unit": "m2",
        "system": "http://unitsofmeasure.org",
        "code": "m2"
      }
    }
  }, {
    "resource": {
      "resourceType": "Practitioner",
      "id": "dade3830-03da-4de4-820d-89df3a0e2d2f"
    }
  }, {
    "resource": {
      "resourceType": "Observation",
      "id": "1491bd8c-4c73-4a74-b9f5-2e8eeafd3cb0",
      "identifier": [ {
        "use": "official",
        "value": "6C4E3F38-ED99-4480-B680-1FB35A9FA6C1"
      } ],
      "status": "final",
      "category": [ {
        "coding": [ {
          "system": "http://terminology.hl7.org/CodeSystem/observation-category",
          "code": "vital-signs",
          "display": "Vital Signs"
        } ]
      } ],
      "code": {
        "coding": [ {
          "system": "http://loinc.org",
          "code": "3139-2"
        } ],
        "text": "BSA Measured"
      },
      "subject": {
        "reference": "Patient/28c82502-e606-4a24-887b-796ffda4027c",
        "display": "Steve Williamson"
      },
      "effectivePeriod": {
        "start": "2013-07-10T22:00:00.000-05:00"
      },
      "issued": "2013-07-10T22:01:47.000-05:00",
      "performer": [ {
        "reference": "Practitioner/bf29ea63-bdb9-4525-9dd3-59bb7c5ebca3"
      } ],
      "valueQuantity": {
        "value": 2.01,
        "unit": "mm2",
        "system": "http://unitsofmeasure.org",
        "code": "mm2"
      }
    }
  }, {
    "resource": {
      "resourceType": "Practitioner",
      "id": "bf29ea63-bdb9-4525-9dd3-59bb7c5ebca3"
    }
  }, {
    "resource": {
      "resourceType": "Observation",
      "id": "a65f444e-3a40-4142-93dc-32b198ba516d",
      "identifier": [ {
        "use": "official",
        "value": "36C153FB-2F34-4E09-A960-693112CBCF35"
      } ],
      "status": "final",
      "category": [ {
        "coding": [ {
          "system": "http://terminology.hl7.org/CodeSystem/observation-category",
          "code": "vital-signs",
          "display": "Vital Signs"
        } ]
      } ],
      "code": {
        "coding": [ {
          "system": "http://loinc.org",
          "code": "3141-9"
        } ],
        "text": "Weight Measured"
      },
      "subject": {
        "reference": "Patient/28c82502-e606-4a24-887b-796ffda4027c",
        "display": "Steve Williamson"
      },
      "effectivePeriod": {
        "start": "2013-07-10T22:00:00.000-05:00"
      },
      "issued": "2013-07-10T22:01:47.000-05:00",
      "performer": [ {
        "reference": "Practitioner/3aaff21c-1e88-46c2-9a88-a4adf703264d"
      } ],
      "valueQuantity": {
        "value": 82,
        "unit": "kg",
        "system": "http://unitsofmeasure.org",
        "code": "kg"
      }
    }
  }, {
    "resource": {
      "resourceType": "Practitioner",
      "id": "3aaff21c-1e88-46c2-9a88-a4adf703264d"
    }
  }, {
    "resource": {
      "resourceType": "Observation",
      "id": "14f63497-a96f-4ed0-ad25-fccad13542b8",
      "identifier": [ {
        "use": "official",
        "value": "96F24947-A62E-4E26-86F4-9D42B27021FF"
      } ],
      "status": "final",
      "category": [ {
        "coding": [ {
          "system": "http://terminology.hl7.org/CodeSystem/observation-category",
          "code": "vital-signs",
          "display": "Vital Signs"
        } ]
      } ],
      "code": {
        "coding": [ {
          "system": "http://loinc.org",
          "code": "8302-2"
        } ],
        "text": "Height/Length Measured"
      },
      "subject": {
        "reference": "Patient/28c82502-e606-4a24-887b-796ffda4027c",
        "display": "Steve Williamson"
      },
      "effectivePeriod": {
        "start": "2013-07-10T22:00:00.000-05:00"
      },
      "issued": "2013-07-10T22:01:47.000-05:00",
      "performer": [ {
        "reference": "Practitioner/29c659b8-9fd9-4fbc-b4a1-379323afe050"
      } ],
      "valueQuantity": {
        "value": 178,
        "unit": "cm",
        "system": "http://unitsofmeasure.org",
        "code": "cm"
      }
    }
  }, {
    "resource": {
      "resourceType": "Practitioner",
      "id": "29c659b8-9fd9-4fbc-b4a1-379323afe050"
    }
  }, {
    "resource": {
      "resourceType": "Condition",
      "id": "36165ff4-a863-45cb-a71f-0c8c8dff1bbc",
      "identifier": [ {
        "use": "official",
        "system": "urn:oid:2.16.840.1.113883.1.13.99999.999239",
        "value": "121387536"
      } ],
      "clinicalStatus": {
        "coding": [ {
          "system": "http://terminology.hl7.org/CodeSystem/condition-clinical",
          "code": "active",
          "display": "Active"
        } ]
      },
      "verificationStatus": {
        "coding": [ {
          "system": "http://terminology.hl7.org/CodeSystem/condition-ver-status",
          "code": "confirmed",
          "display": "Confirmed"
        } ]
      },
      "category": [ {
        "coding": [ {
          "system": "http://terminology.hl7.org/CodeSystem/condition-category",
          "code": "problem-list-item",
          "display": "Problem List Item"
        } ]
      } ],
      "code": {
        "coding": [ {
          "system": "http://snomed.info/sct",
          "code": "194828000",
          "display": "Angina (disorder)"
        }, {
          "system": "urn:oid:2.16.840.1.113883.6.103",
          "code": "413.9",
          "display": "Other and unspecified angina pectoris"
        } ],
        "text": "Exercise-induced angina"
      },
      "subject": {
        "reference": "Patient/28c82502-e606-4a24-887b-796ffda4027c",
        "display": "Steve Williamson"
      },
      "onsetDateTime": "2013-07-11"
    }
  }, {
    "resource": {
      "resourceType": "Condition",
      "id": "193aee37-7186-4fab-9e87-66deccf678d2",
      "identifier": [ {
        "use": "official",
        "value": "0D1159C0-FF39-483F-868A-F8A69595025B"
      } ],
      "clinicalStatus": {
        "coding": [ {
          "system": "http://terminology.hl7.org/CodeSystem/condition-clinical",
          "code": "active",
          "display": "Active"
        } ]
      },
      "verificationStatus": {
        "coding": [ {
          "system": "http://terminology.hl7.org/CodeSystem/condition-ver-status",
          "code": "confirmed",
          "display": "Confirmed"
        } ]
      },
      "category": [ {
        "coding": [ {
          "system": "http://terminology.hl7.org/CodeSystem/condition-category",
          "code": "problem-list-item",
          "display": "Problem List Item"
        } ]
      } ],
      "code": {
        "coding": [ {
          "system": "http://snomed.info/sct",
          "code": "194828000",
          "display": "Angina (disorder)"
        } ],
        "text": "Angina()"
      },
      "subject": {
        "reference": "Patient/28c82502-e606-4a24-887b-796ffda4027c",
        "display": "Steve Williamson"
      },
      "onsetDateTime": "2013-07-10",
      "recordedDate": "2013-07-10T22:10:54.000-05:00",
      "asserter": {
        "reference": "Practitioner/86d32626-a0ad-42e1-adf8-0ca9f10189ff"
      }
    }
  }, {
    "resource": {
      "resourceType": "Practitioner",
      "id": "86d32626-a0ad-42e1-adf8-0ca9f10189ff"
    }
  }, {
    "resource": {
      "resourceType": "Condition",
      "id": "73c9edfc-1c8e-44a6-aa62-c9a2b9980467",
      "identifier": [ {
        "use": "official",
        "value": "5C17EDD3-F021-4577-8B74-275FF442925A"
      } ],
      "clinicalStatus": {
        "coding": [ {
          "system": "http://terminology.hl7.org/CodeSystem/condition-clinical",
          "code": "active",
          "display": "Active"
        } ]
      },
      "verificationStatus": {
        "coding": [ {
          "system": "http://terminology.hl7.org/CodeSystem/condition-ver-status",
          "code": "confirmed",
          "display": "Confirmed"
        } ]
      },
      "category": [ {
        "coding": [ {
          "system": "http://terminology.hl7.org/CodeSystem/condition-category",
          "code": "problem-list-item",
          "display": "Problem List Item"
        } ]
      } ],
      "code": {
        "coding": [ {
          "system": "http://snomed.info/sct",
          "code": "44054006",
          "display": "Diabetes mellitus type 2 (disorder)"
        } ],
        "text": "Diabetes mellitus type 2()"
      },
      "subject": {
        "reference": "Patient/28c82502-e606-4a24-887b-796ffda4027c",
        "display": "Steve Williamson"
      },
      "onsetDateTime": "2009-01-09",
      "recordedDate": "2013-07-10T22:09:13.000-05:00",
      "asserter": {
        "reference": "Practitioner/0ae3cb00-d170-4651-ab47-1a0f3d3d5867"
      }
    }
  }, {
    "resource": {
      "resourceType": "Practitioner",
      "id": "0ae3cb00-d170-4651-ab47-1a0f3d3d5867"
    }
  }, {
    "resource": {
      "resourceType": "Condition",
      "id": "d2a328f3-7968-49f5-ae36-c22c74b69f3c",
      "identifier": [ {
        "use": "official",
        "value": "AB0F15B0-916E-4B8E-ACA2-FC178E06D9A6"
      } ],
      "clinicalStatus": {
        "coding": [ {
          "system": "http://terminology.hl7.org/CodeSystem/condition-clinical",
          "code": "active",
          "display": "Active"
        } ]
      },
      "verificationStatus": {
        "coding": [ {
          "system": "http://terminology.hl7.org/CodeSystem/condition-ver-status",
          "code": "confirmed",
          "display": "Confirmed"
        } ]
      },
      "category": [ {
        "coding": [ {
          "system": "http://terminology.hl7.org/CodeSystem/condition-category",
          "code": "problem-list-item",
          "display": "Problem List Item"
        } ]
      } ],
      "code": {
        "coding": [ {
          "system": "http://snomed.info/sct",
          "code": "13644009",
          "display": "Hypercholesterolemia (disorder)"
        } ],
        "text": "Hypercholesterolemia()"
      },
      "subject": {
        "reference": "Patient/28c82502-e606-4a24-887b-796ffda4027c",
        "display": "Steve Williamson"
      },
      "onsetDateTime": "2008-08-08",
      "recordedDate": "2013-07-10T22:10:12.000-05:00",
      "asserter": {
        "reference": "Practitioner/88df0ab7-cff4-4571-9d8c-7d3908e39812"
      }
    }
  }, {
    "resource": {
      "resourceType": "Practitioner",
      "id": "88df0ab7-cff4-4571-9d8c-7d3908e39812"
    }
  }, {
    "resource": {
      "resourceType": "Condition",
      "id": "6fa7d2f3-e91e-42be-9d93-0a47e9a3190e",
      "identifier": [ {
        "use": "official",
        "system": "urn:oid:2.16.840.1.113883.1.13.99999.999239",
        "value": "121480397"
      } ],
      "clinicalStatus": {
        "coding": [ {
          "system": "http://terminology.hl7.org/CodeSystem/condition-clinical",
          "code": "active",
          "display": "Active"
        } ]
      },
      "verificationStatus": {
        "coding": [ {
          "system": "http://terminology.hl7.org/CodeSystem/condition-ver-status",
          "code": "confirmed",
          "display": "Confirmed"
        } ]
      },
      "category": [ {
        "coding": [ {
          "system": "http://terminology.hl7.org/CodeSystem/condition-category",
          "code": "problem-list-item",
          "display": "Problem List Item"
        } ]
      } ],
      "code": {
        "coding": [ {
          "system": "http://snomed.info/sct",
          "code": "194828000",
          "display": "Angina (disorder)"
        } ],
        "text": "Angina"
      },
      "subject": {
        "reference": "Patient/28c82502-e606-4a24-887b-796ffda4027c",
        "display": "Steve Williamson"
      },
      "onsetDateTime": "2013-07-17"
    }
  }, {
    "resource": {
      "resourceType": "AllergyIntolerance",
      "id": "7a74837a-65b2-4d46-a480-8878cf32da0c",
      "identifier": [ {
        "use": "official",
        "value": "5D8D15C4-AFE3-49B3-86D9-6B5E4A8A4E8F"
      } ],
      "clinicalStatus": {
        "coding": [ {
          "system": "http://terminology.hl7.org/CodeSystem/allergyintolerance-clinical",
          "code": "active",
          "display": "Active"
        } ]
      },
      "verificationStatus": {
        "coding": [ {
          "system": "http://terminology.hl7.org/CodeSystem/allergyintolerance-verification",
          "code": "confirmed",
          "display": "Confirmed"
        } ]
      },
      "type": "allergy",
      "category": [ "medication" ],
      "code": {
        "coding": [ {
          "system": "http://www.nlm.nih.gov/research/umls/rxnorm",
          "code": "7980",
          "display": "Penicillin G"
        }, {
          "system": "http://www.nlm.nih.gov/research/umls/mmsl",
          "code": "d07727",
          "display": "penicillin G benzathine"
        } ]
      },
      "patient": {
        "reference": "Patient/28c82502-e606-4a24-887b-796ffda4027c",
        "display": "Steve Williamson"
      },
      "recorder": {
        "reference": "Practitioner/89c7f37f-b11a-484e-bffd-50ab092ea946"
      },
      "reaction": [ {
        "manifestation": [ {
          "coding": [ {
            "system": "http://snomed.info/sct",
            "code": "247472004",
            "display": "Weal (disorder)"
          } ],
          "text": "Hives"
        } ]
      } ]
    }
  }, {
    "resource": {
      "resourceType": "Practitioner",
      "id": "89c7f37f-b11a-484e-bffd-50ab092ea946"
    }
  }, {
    "resource": {
      "resourceType": "AllergyIntolerance",
      "id": "46905c49-760f-4581-ac60-f48da03c3e80",
      "identifier": [ {
        "use": "official",
        "value": "8726AA93-451C-4596-A709-99C806E9D08B"
      } ],
      "clinicalStatus": {
        "coding": [ {
          "system": "http://terminology.hl7.org/CodeSystem/allergyintolerance-clinical",
          "code": "active",
          "display": "Active"
        } ]
      },
      "verificationStatus": {
        "coding": [ {
          "system": "http://terminology.hl7.org/CodeSystem/allergyintolerance-verification",
          "code": "confirmed",
          "display": "Confirmed"
        } ]
      },
      "type": "allergy",
      "category": [ "medication" ],
      "code": {
        "coding": [ {
          "system": "http://www.nlm.nih.gov/research/umls/rxnorm",
          "code": "2670",
          "display": "Codeine"
        }, {
          "system": "http://www.nlm.nih.gov/research/umls/mmsl",
          "code": "d00012",
          "display": "codeine"
        } ]
      },
      "patient": {
        "reference": "Patient/28c82502-e606-4a24-887b-796ffda4027c",
        "display": "Steve Williamson"
      },
      "recorder": {
        "reference": "Practitioner/dd74e6bd-0204-40e4-a040-36029565ad5a"
      },
      "reaction": [ {
        "manifestation": [ {
          "coding": [ {
            "system": "http://snomed.info/sct",
            "code": "422587007",
            "display": "Nausea (finding)"
          } ],
          "text": "Nausea"
        } ]
      } ]
    }
  }, {
    "resource": {
      "resourceType": "Practitioner",
      "id": "dd74e6bd-0204-40e4-a040-36029565ad5a"
    }
  } ]
}