{
  "resourceType": "Bundle",
  "entry": [ {
    "resource": {
      "resourceType": "Composition",
      "id": "bd634fdb-b6c9-49de-ae8d-c69f2dbab1c0",
      "identifier": {
        "use": "official",
        "system": "urn:oid:2.16.840.1.113883.19.5.99999.1",
        "value": "TT988"
      },
      "status": "preliminary",
      "type": {
        "coding": [ {
          "system": "http://loinc.org",
          "code": "11504-8",
          "display": "Surgical Operation Note"
        } ]
      },
      "category": [ {
        "coding": [ {
          "system": "http://hl7.org/fhir/ValueSet/doc-classcodes",
          "code": "LP173421-7",
          "display": "Note"
        } ]
      } ],
      "subject": {
        "reference": "Patient/6522c5d7-57c4-42e2-82d5-a097356078ee",
        "display": "Skip Manam"
      },
      "date": "2013-07-17T18:29:13+02:00",
      "author": [ {
        "reference": "Practitioner/6831cc80-063f-44db-b179-fad35e661dd0",
        "display": "Orthopedic Surgery"
      } ],
      "title": "Operative Report",
      "confidentiality": "N",
      "attester": [ {
        "mode": "legal",
        "time": "2013-07-17T18:29:13+02:00",
        "party": {
          "reference": "Practitioner/d3b9c916-3921-4578-8dc4-28eaefe840fb",
          "display": "Orthopedic Surgery"
        }
      } ],
      "custodian": {
        "reference": "Organization/a538e8c8-195d-44f1-a666-ab353e5355c8",
        "display": "Default Center"
      },
      "event": [ {
        "period": {
          "start": "2013-07-17",
          "end": "2013-07-17"
        },
        "detail": [ {
          "reference": "Practitioner/d3b9c916-3921-4578-8dc4-28eaefe840fb",
          "display": "Orthopedic Surgery"
        } ]
      }, {
        "period": {
          "start": "2013-07-17",
          "end": "2013-07-17"
        },
        "detail": [ {
          "reference": "Practitioner/d3b9c916-3921-4578-8dc4-28eaefe840fb",
          "display": "Orthopedic Surgery"
        } ]
      } ]
    }
  }, {
    "resource": {
      "resourceType": "Patient",
      "id": "6522c5d7-57c4-42e2-82d5-a097356078ee",
      "identifier": [ {
        "use": "official",
        "system": "urn:oid:2.16.840.1.113883.19.5.99999.2",
        "value": "456"
      } ],
      "name": [ {
        "use": "usual",
        "family": "Manam",
        "given": [ "Skip" ]
      } ],
      "gender": "male",
      "birthDate": "1968-03-11"
    }
  }, {
    "resource": {
      "resourceType": "Practitioner",
      "id": "6831cc80-063f-44db-b179-fad35e661dd0",
      "identifier": [ {
        "use": "official",
        "system": "urn:oid:2.16.840.1.113883.4.6",
        "value": "99999999"
      } ],
      "name": [ {
        "family": "Surgery",
        "given": [ "Orthopedic" ]
      } ]
    }
  }, {
    "resource": {
      "resourceType": "Practitioner",
      "id": "d3b9c916-3921-4578-8dc4-28eaefe840fb",
      "identifier": [ {
        "use": "official",
        "system": "http://hl7.org/fhir/sid/us-npi",
        "value": "999999999"
      } ],
      "name": [ {
        "family": "Surgery",
        "given": [ "Orthopedic" ]
      } ]
    }
  }, {
    "resource": {
      "resourceType": "Organization",
      "id": "a538e8c8-195d-44f1-a666-ab353e5355c8",
      "identifier": [ {
        "use": "official",
        "system": "urn:oid:2.16.840.1.113883.4.6",
        "value": "99999999"
      } ],
      "name": "Default Center"
    }
  } ]
}