{
  "resourceType": "Bundle",
  "entry": [ {
    "resource": {
      "resourceType": "Composition",
      "id": "b8e6eb38-07e8-48b6-b73a-86ee6ca8aeb7",
      "identifier": {
        "use": "official",
        "system": "urn:oid:2.16.840.1.113883.3.3297",
        "value": "1.1.1.6.999.."
      },
      "status": "preliminary",
      "type": {
        "coding": [ {
          "system": "http://loinc.org",
          "code": "34133-9",
          "display": "Summarization of episode note"
        } ]
      },
      "category": [ {
        "coding": [ {
          "system": "http://hl7.org/fhir/ValueSet/doc-classcodes",
          "code": "LP173421-7",
          "display": "Note"
        } ]
      } ],
      "subject": {
        "reference": "Patient/82ff9beb-e7b0-47bc-9f45-67a812ce7450",
        "display": "Timmy Wilkinson"
      },
      "author": [ {
        "reference": "Practitioner/6557efb5-6781-47eb-ab23-20e95a4215d8",
        "display": "Jackson Wilkinson"
      } ],
      "title": "Kinsights CCDA",
      "confidentiality": "N",
      "custodian": {
        "reference": "Organization/2a3c27a7-1884-4f7a-b5d9-69b62c3d6293",
        "display": "Kinsights"
      },
      "event": [ {
        "detail": [ {
          "reference": "Practitioner/0c0e1bcc-6d47-4ffa-b468-ba96acaa72b6"
        }, {
          "reference": "Practitioner/5bd65d23-b215-4e67-b414-4ef02daee59a"
        } ]
      } ],
      "section": [ {
        "title": "Vital Signs",
        "code": {
          "coding": [ {
            "system": "http://loinc.org",
            "code": "8716-3",
            "display": "Vital signs"
          } ]
        },
        "text": {
          "status": "additional",
          "div": "<div xmlns=\"http://www.w3.org/1999/xhtml\"/>"
        },
        "mode": "snapshot",
        "entry": [ {
          "reference": "Observation/dd4b8852-19ec-47be-ba26-dbc827272ee5",
          "display": "Body Mass Index"
        }, {
          "reference": "Observation/bd8be4fa-38f9-40eb-81d0-37ef3104b631",
          "display": "Body Height (Measured)"
        }, {
          "reference": "Observation/4c2eee98-f860-4b88-bf25-06cca9bf94cb",
          "display": "Body Mass Index"
        }, {
          "reference": "Observation/a349ca55-88d1-417c-a8fc-934ce5d3138b",
          "display": "Body Mass Index"
        }, {
          "reference": "Observation/8e8dfd9b-6c7d-44eb-8368-466c67cf9a74",
          "display": "Body Weight (Measured)"
        }, {
          "reference": "Observation/bd318c3f-e743-49ce-9776-5d2242fa7382",
          "display": "Body Height (Measured)"
        }, {
          "reference": "Observation/5702db96-8cca-4195-8d7f-d4f96a458a6a",
          "display": "Body Mass Index"
        }, {
          "reference": "Observation/15239c63-4541-49f2-bbf5-b4d0b4dcfdd5",
          "display": "Body Height (Measured)"
        }, {
          "reference": "Observation/52316783-d27e-45d9-b9d7-d6fd1c212288",
          "display": "Body Mass Index"
        }, {
          "reference": "Observation/f4ff287d-9ecf-4e7c-ac40-cc6a6c27f20e",
          "display": "Body Weight (Measured)"
        }, {
          "reference": "Observation/ff806e7d-74fe-4e0c-a053-6791bacb1e51",
          "display": "Head Circumference"
        }, {
          "reference": "Observation/5061d02b-ad30-4489-b86a-0625e8c67f45",
          "display": "Body Mass Index"
        }, {
          "reference": "Observation/732d0d56-7326-4304-82ca-524c70b73065",
          "display": "Body Mass Index"
        }, {
          "reference": "Observation/dd40aa70-7540-4a31-9e82-862ec5476a0a",
          "display": "Body Height (Measured)"
        }, {
          "reference": "Observation/a9b64a94-3f9e-417d-9a03-30d3f92f5e6d",
          "display": "Body Weight (Measured)"
        }, {
          "reference": "Observation/a1c748aa-386f-4ae0-9f53-e0e3daf4b658",
          "display": "Body Height (Measured)"
        }, {
          "reference": "Observation/098fccb1-4a03-4fa5-a7e0-bef28b04b272",
          "display": "Body Height (Measured)"
        }, {
          "reference": "Observation/302966e6-7197-4fae-a011-2ff7d11865f0",
          "display": "Body Height (Measured)"
        }, {
          "reference": "Observation/a36bad90-3f8a-4871-8d91-c7249650e5ad",
          "display": "Body Weight (Measured)"
        }, {
          "reference": "Observation/0d68d49d-37df-478f-ac62-d28abef4184c",
          "display": "Body Height (Measured)"
        }, {
          "reference": "Observation/e46d0d90-9781-43f3-a0ff-e75ba6147861",
          "display": "Body Weight (Measured)"
        }, {
          "reference": "Observation/dd13cfdc-7367-4fa8-874c-16fac977774d",
          "display": "Head Circumference"
        }, {
          "reference": "Observation/fe3fb5a5-6cc5-4666-ab09-6f3fe14c438e",
          "display": "Body Height (Measured)"
        }, {
          "reference": "Observation/e634861b-4750-4725-933f-2e2b7eebdeb7",
          "display": "Body Mass Index"
        }, {
          "reference": "Observation/d3a88621-55e8-4a2a-9520-af99cfdd635a",
          "display": "Body Weight (Measured)"
        }, {
          "reference": "Observation/eb1dc43e-016c-43d1-8bb2-05a7fac8cc91",
          "display": "Body Weight (Measured)"
        }, {
          "reference": "Observation/992bb66c-45b5-400e-9483-baa29e06530a",
          "display": "Body Height (Measured)"
        }, {
          "reference": "Observation/c870ca10-e174-4c9e-89bc-2f1de1281353",
          "display": "Body Height (Measured)"
        }, {
          "reference": "Observation/563ef17b-cdac-4d96-a97d-1c6f000fa27b",
          "display": "Body Weight (Measured)"
        }, {
          "reference": "Observation/d0713766-68c7-4974-98e4-3f0b6e76b06b",
          "display": "Body Weight (Measured)"
        }, {
          "reference": "Observation/5f390ca0-4510-4dae-97a5-8209eecfd65e",
          "display": "Body Mass Index"
        }, {
          "reference": "Observation/c5573381-76e4-46b6-ad2e-5745e35bdc69",
          "display": "Body Mass Index"
        }, {
          "reference": "Observation/535192d0-ebc0-4828-8bc2-2d7117875b6d",
          "display": "Body Weight (Measured)"
        }, {
          "reference": "Observation/33d5f74c-ccf7-438f-8825-c31b66220c72",
          "display": "Body Mass Index"
        }, {
          "reference": "Observation/92612dcf-016f-4112-b185-1f4db339fea3",
          "display": "Body Height (Measured)"
        } ]
      }, {
        "title": "History Of Immunizations",
        "code": {
          "coding": [ {
            "system": "http://loinc.org",
            "code": "11369-6",
            "display": "History of immunizations"
          } ]
        },
        "mode": "snapshot",
        "entry": [ {
          "reference": "Immunization/77498376-6a09-4122-9c29-1cc7e39af2a7",
          "display": "Inactivated Poliovirus"
        }, {
          "reference": "Immunization/9e364ea8-b038-4790-acae-4f619a42fe5c",
          "display": "Inactivated Poliovirus"
        }, {
          "reference": "Immunization/7ceb3fbc-9e19-43ca-944e-53cf8d7199a8",
          "display": "Pneumococcal"
        }, {
          "reference": "Immunization/1e9fea12-a56f-4fd0-971d-feebb8aed57a",
          "display": "Hepatitis A"
        }, {
          "reference": "Immunization/e1f43594-31ea-48ab-8373-9aa5b8896e69",
          "display": "Inactivated Poliovirus"
        }, {
          "reference": "Immunization/32618f71-02b5-4ab1-ab47-3e0802a2e743",
          "display": "Haemophilus influenzae type b"
        }, {
          "reference": "Immunization/944bdf4c-225b-40c9-9d13-0152a98ad1b9",
          "display": "Haemophilus influenzae type b"
        }, {
          "reference": "Immunization/42be2987-4a62-45f6-a993-28161b5ea2d6",
          "display": "Rotavirus"
        }, {
          "reference": "Immunization/2ec80965-5c3b-4391-b33c-c4684a43afbf",
          "display": "Diphtheria, Tetanus, Pertussis"
        }, {
          "reference": "Immunization/8ae38e8a-20c9-4fb5-b03a-d70a7c40a4b9",
          "display": "Pneumococcal"
        }, {
          "reference": "Immunization/854654e7-b373-4b76-86af-bc6fade031d2",
          "display": "Rotavirus"
        }, {
          "reference": "Immunization/76c5be4c-9098-4857-9307-54149ea998c5",
          "display": "Hepatitis B"
        }, {
          "reference": "Immunization/67bd94e0-568f-41d2-bc40-ba1e7a148745",
          "display": "Influenza"
        }, {
          "reference": "Immunization/3039eadf-a1c4-47e6-84bc-8a4acf70440c",
          "display": "Diphtheria, Tetanus, Pertussis"
        }, {
          "reference": "Immunization/b0633f03-1a9d-4762-bf48-4e734deada84",
          "display": "Rotavirus"
        }, {
          "reference": "Immunization/05541319-38c1-43af-b777-7d68d2324087",
          "display": "Haemophilus influenzae type b"
        }, {
          "reference": "Immunization/b876a3cd-fed1-4eb9-a940-dd60bd591555",
          "display": "Diphtheria, Tetanus, Pertussis"
        }, {
          "reference": "Immunization/e271afde-1eb8-4996-a509-25c67af10de9",
          "display": "Pneumococcal"
        }, {
          "reference": "Immunization/5290e309-fd67-41be-b14b-add0d1cfa65e",
          "display": "Hepatitis B"
        } ]
      }, {
        "title": "Allergies & Adverse Reactions",
        "code": {
          "coding": [ {
            "system": "http://loinc.org",
            "code": "48765-2"
          } ]
        },
        "mode": "snapshot",
        "entry": [ {
          "reference": "AllergyIntolerance/ac623802-2c3c-4f2a-a95b-bb0c3c2d30a1",
          "display": "cat hair"
        } ]
      }, {
        "title": "Medications",
        "code": {
          "coding": [ {
            "system": "http://loinc.org",
            "code": "10160-0",
            "display": "History of medication use"
          } ]
        },
        "text": {
          "status": "additional",
          "div": "<div xmlns=\"http://www.w3.org/1999/xhtml\"/>"
        },
        "mode": "snapshot"
      } ]
    }
  }, {
    "resource": {
      "resourceType": "Patient",
      "id": "82ff9beb-e7b0-47bc-9f45-67a812ce7450",
      "identifier": [ {
        "use": "official",
        "system": "urn:oid:2.16.840.1.113883.3.3297.1.1.1",
        "value": "6"
      } ],
      "name": [ {
        "family": "Wilkinson",
        "given": [ "Timmy" ]
      } ],
      "telecom": [ {
        "system": "phone",
        "value": "703-373-1575",
        "use": "home"
      }, {
        "system": "phone",
        "value": "207-841-9103",
        "use": "work"
      } ],
      "gender": "male",
      "birthDate": "2011-04-01",
      "maritalStatus": {
        "coding": [ {
          "system": "http://terminology.hl7.org/CodeSystem/v3-MaritalStatus",
          "code": "S",
          "display": "Never Married"
        } ]
      },
      "contact": [ {
        "relationship": [ {
          "coding": [ {
            "system": "http://terminology.hl7.org/CodeSystem/v2-0131",
            "code": "C",
            "display": "Emergency Contact"
          } ]
        } ],
        "name": {
          "family": "Wilkinson",
          "given": [ "Jackson" ]
        },
        "telecom": [ {
          "system": "phone",
          "value": "207-841-9103",
          "use": "work"
        }, {
          "system": "phone",
          "value": "703-373-1575",
          "use": "home"
        } ],
        "address": {
          "use": "home",
          "line": [ "119 Grattan St" ],
          "city": "San Francisco",
          "state": "CA",
          "postalCode": "94117",
          "country": "US"
        }
      } ],
      "communication": [ {
        "language": {
          "coding": [ {
            "system": "urn:ietf:bcp:47",
            "code": "eng"
          } ]
        }
      } ],
      "managingOrganization": {
        "reference": "Organization/f66ced51-06bc-42d5-acab-f7b8bd7e38f0",
        "display": "Dr. David Yoon"
      }
    }
  }, {
    "resource": {
      "resourceType": "Organization",
      "id": "f66ced51-06bc-42d5-acab-f7b8bd7e38f0",
      "name": "Dr. David Yoon",
      "telecom": [ {
        "system": "phone",
        "value": "215-343-1212",
        "use": "work"
      }, {
        "system": "phone",
        "value": "215-343-1213"
      } ]
    }
  }, {
    "resource": {
      "resourceType": "Practitioner",
      "id": "6557efb5-6781-47eb-ab23-20e95a4215d8",
      "name": [ {
        "family": "Wilkinson",
        "given": [ "Jackson" ]
      } ],
      "telecom": [ {
        "system": "phone",
        "value": "703-373-1575",
        "use": "home"
      }, {
        "system": "phone",
        "value": "207-841-9103",
        "use": "work"
      } ],
      "address": [ {
        "line": [ "119 Grattan St" ],
        "city": "San Francisco",
        "state": "CA",
        "postalCode": "94117",
        "country": "US"
      } ]
    }
  }, {
    "resource": {
      "resourceType": "Practitioner",
      "id": "0c0e1bcc-6d47-4ffa-b468-ba96acaa72b6",
      "identifier": [ {
        "use": "official",
        "system": "http://hl7.org/fhir/sid/us-npi",
        "value": "UNK"
      } ]
    }
  }, {
    "resource": {
      "resourceType": "Practitioner",
      "id": "5bd65d23-b215-4e67-b414-4ef02daee59a",
      "name": [ {
        "text": "\n              Dr. David Yoon\n            "
      } ],
      "telecom": [ {
        "system": "phone",
        "value": "215-343-1212",
        "use": "work"
      }, {
        "system": "phone",
        "value": "215-343-1213"
      } ]
    }
  }, {
    "resource": {
      "resourceType": "Organization",
      "id": "2a3c27a7-1884-4f7a-b5d9-69b62c3d6293",
      "name": "Kinsights",
      "telecom": [ {
        "system": "phone",
        "value": "888.773.5303",
        "use": "work"
      } ],
      "address": [ {
        "line": [ "119 Grattan St" ],
        "city": "San Francisco",
        "state": "CA",
        "postalCode": "94117",
        "country": "United States"
      } ]
    }
  }, {
    "resource": {
      "resourceType": "Observation",
      "id": "dd4b8852-19ec-47be-ba26-dbc827272ee5",
      "identifier": [ {
        "use": "official",
        "system": "urn:oid:2.16.840.1.113883.3.3297.1.1.1.6.1.10.3",
        "value": "16"
      } ],
      "status": "final",
      "category": [ {
        "coding": [ {
          "system": "http://terminology.hl7.org/CodeSystem/observation-category",
          "code": "vital-signs",
          "display": "Vital Signs"
        } ]
      } ],
      "code": {
        "coding": [ {
          "system": "http://loinc.org",
          "code": "39156-5",
          "display": "Body Mass Index"
        } ]
      },
      "subject": {
        "reference": "Patient/82ff9beb-e7b0-47bc-9f45-67a812ce7450",
        "display": "Timmy Wilkinson"
      },
      "valueQuantity": {
        "value": 16.6,
        "unit": "kg/m2",
        "system": "http://unitsofmeasure.org",
        "code": "kg/m2"
      }
    }
  }, {
    "resource": {
      "resourceType": "Observation",
      "id": "bd8be4fa-38f9-40eb-81d0-37ef3104b631",
      "identifier": [ {
        "use": "official",
        "system": "urn:oid:2.16.840.1.113883.3.3297.1.1.1.6.1.10.1",
        "value": "10"
      } ],
      "status": "final",
      "category": [ {
        "coding": [ {
          "system": "http://terminology.hl7.org/CodeSystem/observation-category",
          "code": "vital-signs",
          "display": "Vital Signs"
        } ]
      } ],
      "code": {
        "coding": [ {
          "system": "http://loinc.org",
          "code": "8302-2",
          "display": "Body Height (Measured)"
        } ]
      },
      "subject": {
        "reference": "Patient/82ff9beb-e7b0-47bc-9f45-67a812ce7450",
        "display": "Timmy Wilkinson"
      },
      "effectivePeriod": {
        "start": "2011-09-01T00:00:00+02:00"
      },
      "valueQuantity": {
        "value": 18.0,
        "unit": "[in_us]",
        "system": "http://unitsofmeasure.org",
        "code": "[in_us]"
      }
    }
  }, {
    "resource": {
      "resourceType": "Observation",
      "id": "4c2eee98-f860-4b88-bf25-06cca9bf94cb",
      "identifier": [ {
        "use": "official",
        "system": "urn:oid:2.16.840.1.113883.3.3297.1.1.1.6.1.10.3",
        "value": "158"
      } ],
      "status": "final",
      "category": [ {
        "coding": [ {
          "system": "http://terminology.hl7.org/CodeSystem/observation-category",
          "code": "vital-signs",
          "display": "Vital Signs"
        } ]
      } ],
      "code": {
        "coding": [ {
          "system": "http://loinc.org",
          "code": "39156-5",
          "display": "Body Mass Index"
        } ]
      },
      "subject": {
        "reference": "Patient/82ff9beb-e7b0-47bc-9f45-67a812ce7450",
        "display": "Timmy Wilkinson"
      },
      "valueQuantity": {
        "value": 23.4,
        "unit": "kg/m2",
        "system": "http://unitsofmeasure.org",
        "code": "kg/m2"
      }
    }
  }, {
    "resource": {
      "resourceType": "Observation",
      "id": "a349ca55-88d1-417c-a8fc-934ce5d3138b",
      "identifier": [ {
        "use": "official",
        "system": "urn:oid:2.16.840.1.113883.3.3297.1.1.1.6.1.10.3",
        "value": "13"
      } ],
      "status": "final",
      "category": [ {
        "coding": [ {
          "system": "http://terminology.hl7.org/CodeSystem/observation-category",
          "code": "vital-signs",
          "display": "Vital Signs"
        } ]
      } ],
      "code": {
        "coding": [ {
          "system": "http://loinc.org",
          "code": "39156-5",
          "display": "Body Mass Index"
        } ]
      },
      "subject": {
        "reference": "Patient/82ff9beb-e7b0-47bc-9f45-67a812ce7450",
        "display": "Timmy Wilkinson"
      },
      "valueQuantity": {
        "value": 14.3,
        "unit": "kg/m2",
        "system": "http://unitsofmeasure.org",
        "code": "kg/m2"
      }
    }
  }, {
    "resource": {
      "resourceType": "Observation",
      "id": "8e8dfd9b-6c7d-44eb-8368-466c67cf9a74",
      "identifier": [ {
        "use": "official",
        "value": "2.16.840.1.113883.3.3297.1.1.1.6.1.10.2"
      } ],
      "status": "final",
      "category": [ {
        "coding": [ {
          "system": "http://terminology.hl7.org/CodeSystem/observation-category",
          "code": "vital-signs",
          "display": "Vital Signs"
        } ]
      } ],
      "code": {
        "coding": [ {
          "system": "http://loinc.org",
          "code": "3141-9",
          "display": "Body Weight (Measured)"
        } ]
      },
      "subject": {
        "reference": "Patient/82ff9beb-e7b0-47bc-9f45-67a812ce7450",
        "display": "Timmy Wilkinson"
      },
      "effectivePeriod": {
        "start": "2013-06-12T00:00:00+02:00"
      },
      "valueQuantity": {
        "value": 31.0000,
        "unit": "[lb_av]",
        "system": "http://unitsofmeasure.org",
        "code": "[lb_av]"
      }
    }
  }, {
    "resource": {
      "resourceType": "Observation",
      "id": "bd318c3f-e743-49ce-9776-5d2242fa7382",
      "identifier": [ {
        "use": "official",
        "system": "urn:oid:2.16.840.1.113883.3.3297.1.1.1.6.1.10.1",
        "value": "6"
      } ],
      "status": "final",
      "category": [ {
        "coding": [ {
          "system": "http://terminology.hl7.org/CodeSystem/observation-category",
          "code": "vital-signs",
          "display": "Vital Signs"
        } ]
      } ],
      "code": {
        "coding": [ {
          "system": "http://loinc.org",
          "code": "8302-2",
          "display": "Body Height (Measured)"
        } ]
      },
      "subject": {
        "reference": "Patient/82ff9beb-e7b0-47bc-9f45-67a812ce7450",
        "display": "Timmy Wilkinson"
      },
      "effectivePeriod": {
        "start": "2011-05-01T00:00:00+02:00"
      },
      "valueQuantity": {
        "value": 21.0,
        "unit": "[in_us]",
        "system": "http://unitsofmeasure.org",
        "code": "[in_us]"
      }
    }
  }, {
    "resource": {
      "resourceType": "Observation",
      "id": "5702db96-8cca-4195-8d7f-d4f96a458a6a",
      "identifier": [ {
        "use": "official",
        "system": "urn:oid:2.16.840.1.113883.3.3297.1.1.1.6.1.10.3",
        "value": "6"
      } ],
      "status": "final",
      "category": [ {
        "coding": [ {
          "system": "http://terminology.hl7.org/CodeSystem/observation-category",
          "code": "vital-signs",
          "display": "Vital Signs"
        } ]
      } ],
      "code": {
        "coding": [ {
          "system": "http://loinc.org",
          "code": "39156-5",
          "display": "Body Mass Index"
        } ]
      },
      "subject": {
        "reference": "Patient/82ff9beb-e7b0-47bc-9f45-67a812ce7450",
        "display": "Timmy Wilkinson"
      },
      "valueQuantity": {
        "value": 16.6,
        "unit": "kg/m2",
        "system": "http://unitsofmeasure.org",
        "code": "kg/m2"
      }
    }
  }, {
    "resource": {
      "resourceType": "Observation",
      "id": "15239c63-4541-49f2-bbf5-b4d0b4dcfdd5",
      "identifier": [ {
        "use": "official",
        "system": "urn:oid:2.16.840.1.113883.3.3297.1.1.1.6.1.10.1",
        "value": "5"
      } ],
      "status": "final",
      "category": [ {
        "coding": [ {
          "system": "http://terminology.hl7.org/CodeSystem/observation-category",
          "code": "vital-signs",
          "display": "Vital Signs"
        } ]
      } ],
      "code": {
        "coding": [ {
          "system": "http://loinc.org",
          "code": "8302-2",
          "display": "Body Height (Measured)"
        } ]
      },
      "subject": {
        "reference": "Patient/82ff9beb-e7b0-47bc-9f45-67a812ce7450",
        "display": "Timmy Wilkinson"
      },
      "effectivePeriod": {
        "start": "2011-06-01T00:00:00+02:00"
      },
      "valueQuantity": {
        "value": 23.0,
        "unit": "[in_us]",
        "system": "http://unitsofmeasure.org",
        "code": "[in_us]"
      }
    }
  }, {
    "resource": {
      "resourceType": "Observation",
      "id": "52316783-d27e-45d9-b9d7-d6fd1c212288",
      "identifier": [ {
        "use": "official",
        "system": "urn:oid:2.16.840.1.113883.3.3297.1.1.1.6.1.10.3",
        "value": "34"
      } ],
      "status": "final",
      "category": [ {
        "coding": [ {
          "system": "http://terminology.hl7.org/CodeSystem/observation-category",
          "code": "vital-signs",
          "display": "Vital Signs"
        } ]
      } ],
      "code": {
        "coding": [ {
          "system": "http://loinc.org",
          "code": "39156-5",
          "display": "Body Mass Index"
        } ]
      },
      "subject": {
        "reference": "Patient/82ff9beb-e7b0-47bc-9f45-67a812ce7450",
        "display": "Timmy Wilkinson"
      },
      "valueQuantity": {
        "value": 16.0,
        "unit": "kg/m2",
        "system": "http://unitsofmeasure.org",
        "code": "kg/m2"
      }
    }
  }, {
    "resource": {
      "resourceType": "Observation",
      "id": "f4ff287d-9ecf-4e7c-ac40-cc6a6c27f20e",
      "identifier": [ {
        "use": "official",
        "value": "2.16.840.1.113883.3.3297.1.1.1.6.1.10.2"
      } ],
      "status": "final",
      "category": [ {
        "coding": [ {
          "system": "http://terminology.hl7.org/CodeSystem/observation-category",
          "code": "vital-signs",
          "display": "Vital Signs"
        } ]
      } ],
      "code": {
        "coding": [ {
          "system": "http://loinc.org",
          "code": "3141-9",
          "display": "Body Weight (Measured)"
        } ]
      },
      "subject": {
        "reference": "Patient/82ff9beb-e7b0-47bc-9f45-67a812ce7450",
        "display": "Timmy Wilkinson"
      },
      "effectivePeriod": {
        "start": "2012-08-09T00:00:00+02:00"
      },
      "valueQuantity": {
        "value": 24.5000,
        "unit": "[lb_av]",
        "system": "http://unitsofmeasure.org",
        "code": "[lb_av]"
      }
    }
  }, {
    "resource": {
      "resourceType": "Observation",
      "id": "ff806e7d-74fe-4e0c-a053-6791bacb1e51",
      "identifier": [ {
        "use": "official",
        "system": "urn:oid:2.16.840.1.113883.3.3297.1.1.1.6.1.10.4",
        "value": "2"
      } ],
      "status": "final",
      "category": [ {
        "coding": [ {
          "system": "http://terminology.hl7.org/CodeSystem/observation-category",
          "code": "vital-signs",
          "display": "Vital Signs"
        } ]
      } ],
      "code": {
        "coding": [ {
          "system": "http://loinc.org",
          "code": "8287-5",
          "display": "Head Circumference"
        } ]
      },
      "subject": {
        "reference": "Patient/82ff9beb-e7b0-47bc-9f45-67a812ce7450",
        "display": "Timmy Wilkinson"
      },
      "effectivePeriod": {
        "start": "2012-01-26T00:00:00+01:00"
      },
      "valueQuantity": {
        "value": 18.2,
        "unit": "[in_i]",
        "system": "http://unitsofmeasure.org",
        "code": "[in_i]"
      }
    }
  }, {
    "resource": {
      "resourceType": "Observation",
      "id": "5061d02b-ad30-4489-b86a-0625e8c67f45",
      "identifier": [ {
        "use": "official",
        "system": "urn:oid:2.16.840.1.113883.3.3297.1.1.1.6.1.10.3",
        "value": "172"
      } ],
      "status": "final",
      "category": [ {
        "coding": [ {
          "system": "http://terminology.hl7.org/CodeSystem/observation-category",
          "code": "vital-signs",
          "display": "Vital Signs"
        } ]
      } ],
      "code": {
        "coding": [ {
          "system": "http://loinc.org",
          "code": "39156-5",
          "display": "Body Mass Index"
        } ]
      },
      "subject": {
        "reference": "Patient/82ff9beb-e7b0-47bc-9f45-67a812ce7450",
        "display": "Timmy Wilkinson"
      },
      "valueQuantity": {
        "value": 18.9,
        "unit": "kg/m2",
        "system": "http://unitsofmeasure.org",
        "code": "kg/m2"
      }
    }
  }, {
    "resource": {
      "resourceType": "Observation",
      "id": "732d0d56-7326-4304-82ca-524c70b73065",
      "identifier": [ {
        "use": "official",
        "system": "urn:oid:2.16.840.1.113883.3.3297.1.1.1.6.1.10.3",
        "value": "83"
      } ],
      "status": "final",
      "category": [ {
        "coding": [ {
          "system": "http://terminology.hl7.org/CodeSystem/observation-category",
          "code": "vital-signs",
          "display": "Vital Signs"
        } ]
      } ],
      "code": {
        "coding": [ {
          "system": "http://loinc.org",
          "code": "39156-5",
          "display": "Body Mass Index"
        } ]
      },
      "subject": {
        "reference": "Patient/82ff9beb-e7b0-47bc-9f45-67a812ce7450",
        "display": "Timmy Wilkinson"
      },
      "valueQuantity": {
        "value": 16.0,
        "unit": "kg/m2",
        "system": "http://unitsofmeasure.org",
        "code": "kg/m2"
      }
    }
  }, {
    "resource": {
      "resourceType": "Observation",
      "id": "dd40aa70-7540-4a31-9e82-862ec5476a0a",
      "identifier": [ {
        "use": "official",
        "system": "urn:oid:2.16.840.1.113883.3.3297.1.1.1.6.1.10.1",
        "value": "20"
      } ],
      "status": "final",
      "category": [ {
        "coding": [ {
          "system": "http://terminology.hl7.org/CodeSystem/observation-category",
          "code": "vital-signs",
          "display": "Vital Signs"
        } ]
      } ],
      "code": {
        "coding": [ {
          "system": "http://loinc.org",
          "code": "8302-2",
          "display": "Body Height (Measured)"
        } ]
      },
      "subject": {
        "reference": "Patient/82ff9beb-e7b0-47bc-9f45-67a812ce7450",
        "display": "Timmy Wilkinson"
      },
      "effectivePeriod": {
        "start": "2011-11-17T00:00:00+01:00"
      },
      "valueQuantity": {
        "value": 28.0,
        "unit": "[in_us]",
        "system": "http://unitsofmeasure.org",
        "code": "[in_us]"
      }
    }
  }, {
    "resource": {
      "resourceType": "Observation",
      "id": "a9b64a94-3f9e-417d-9a03-30d3f92f5e6d",
      "identifier": [ {
        "use": "official",
        "value": "2.16.840.1.113883.3.3297.1.1.1.6.1.10.2"
      } ],
      "status": "final",
      "category": [ {
        "coding": [ {
          "system": "http://terminology.hl7.org/CodeSystem/observation-category",
          "code": "vital-signs",
          "display": "Vital Signs"
        } ]
      } ],
      "code": {
        "coding": [ {
          "system": "http://loinc.org",
          "code": "3141-9",
          "display": "Body Weight (Measured)"
        } ]
      },
      "subject": {
        "reference": "Patient/82ff9beb-e7b0-47bc-9f45-67a812ce7450",
        "display": "Timmy Wilkinson"
      },
      "effectivePeriod": {
        "start": "2011-08-07T00:00:00+02:00"
      },
      "valueQuantity": {
        "value": 15.1250,
        "unit": "[lb_av]",
        "system": "http://unitsofmeasure.org",
        "code": "[lb_av]"
      }
    }
  }, {
    "resource": {
      "resourceType": "Observation",
      "id": "a1c748aa-386f-4ae0-9f53-e0e3daf4b658",
      "identifier": [ {
        "use": "official",
        "system": "urn:oid:2.16.840.1.113883.3.3297.1.1.1.6.1.10.1",
        "value": "3"
      } ],
      "status": "final",
      "category": [ {
        "coding": [ {
          "system": "http://terminology.hl7.org/CodeSystem/observation-category",
          "code": "vital-signs",
          "display": "Vital Signs"
        } ]
      } ],
      "code": {
        "coding": [ {
          "system": "http://loinc.org",
          "code": "8302-2",
          "display": "Body Height (Measured)"
        } ]
      },
      "subject": {
        "reference": "Patient/82ff9beb-e7b0-47bc-9f45-67a812ce7450",
        "display": "Timmy Wilkinson"
      },
      "effectivePeriod": {
        "start": "2011-08-07T00:00:00+02:00"
      },
      "valueQuantity": {
        "value": 26.0,
        "unit": "[in_us]",
        "system": "http://unitsofmeasure.org",
        "code": "[in_us]"
      }
    }
  }, {
    "resource": {
      "resourceType": "Observation",
      "id": "098fccb1-4a03-4fa5-a7e0-bef28b04b272",
      "identifier": [ {
        "use": "official",
        "system": "urn:oid:2.16.840.1.113883.3.3297.1.1.1.6.1.10.1",
        "value": "40"
      } ],
      "status": "final",
      "category": [ {
        "coding": [ {
          "system": "http://terminology.hl7.org/CodeSystem/observation-category",
          "code": "vital-signs",
          "display": "Vital Signs"
        } ]
      } ],
      "code": {
        "coding": [ {
          "system": "http://loinc.org",
          "code": "8302-2",
          "display": "Body Height (Measured)"
        } ]
      },
      "subject": {
        "reference": "Patient/82ff9beb-e7b0-47bc-9f45-67a812ce7450",
        "display": "Timmy Wilkinson"
      },
      "effectivePeriod": {
        "start": "2012-01-24T00:00:00+01:00"
      },
      "valueQuantity": {
        "value": 28.5,
        "unit": "[in_us]",
        "system": "http://unitsofmeasure.org",
        "code": "[in_us]"
      }
    }
  }, {
    "resource": {
      "resourceType": "Observation",
      "id": "302966e6-7197-4fae-a011-2ff7d11865f0",
      "identifier": [ {
        "use": "official",
        "system": "urn:oid:2.16.840.1.113883.3.3297.1.1.1.6.1.10.1",
        "value": "206"
      } ],
      "status": "final",
      "category": [ {
        "coding": [ {
          "system": "http://terminology.hl7.org/CodeSystem/observation-category",
          "code": "vital-signs",
          "display": "Vital Signs"
        } ]
      } ],
      "code": {
        "coding": [ {
          "system": "http://loinc.org",
          "code": "8302-2",
          "display": "Body Height (Measured)"
        } ]
      },
      "subject": {
        "reference": "Patient/82ff9beb-e7b0-47bc-9f45-67a812ce7450",
        "display": "Timmy Wilkinson"
      },
      "effectivePeriod": {
        "start": "2013-06-12T00:00:00+02:00"
      },
      "valueQuantity": {
        "value": 37.0,
        "unit": "[in_us]",
        "system": "http://unitsofmeasure.org",
        "code": "[in_us]"
      }
    }
  }, {
    "resource": {
      "resourceType": "Observation",
      "id": "a36bad90-3f8a-4871-8d91-c7249650e5ad",
      "identifier": [ {
        "use": "official",
        "value": "2.16.840.1.113883.3.3297.1.1.1.6.1.10.2"
      } ],
      "status": "final",
      "category": [ {
        "coding": [ {
          "system": "http://terminology.hl7.org/CodeSystem/observation-category",
          "code": "vital-signs",
          "display": "Vital Signs"
        } ]
      } ],
      "code": {
        "coding": [ {
          "system": "http://loinc.org",
          "code": "3141-9",
          "display": "Body Weight (Measured)"
        } ]
      },
      "subject": {
        "reference": "Patient/82ff9beb-e7b0-47bc-9f45-67a812ce7450",
        "display": "Timmy Wilkinson"
      },
      "effectivePeriod": {
        "start": "2011-05-01T00:00:00+02:00"
      },
      "valueQuantity": {
        "value": 8.2000,
        "unit": "[lb_av]",
        "system": "http://unitsofmeasure.org",
        "code": "[lb_av]"
      }
    }
  }, {
    "resource": {
      "resourceType": "Observation",
      "id": "0d68d49d-37df-478f-ac62-d28abef4184c",
      "identifier": [ {
        "use": "official",
        "system": "urn:oid:2.16.840.1.113883.3.3297.1.1.1.6.1.10.1",
        "value": "15"
      } ],
      "status": "final",
      "category": [ {
        "coding": [ {
          "system": "http://terminology.hl7.org/CodeSystem/observation-category",
          "code": "vital-signs",
          "display": "Vital Signs"
        } ]
      } ],
      "code": {
        "coding": [ {
          "system": "http://loinc.org",
          "code": "8302-2",
          "display": "Body Height (Measured)"
        } ]
      },
      "subject": {
        "reference": "Patient/82ff9beb-e7b0-47bc-9f45-67a812ce7450",
        "display": "Timmy Wilkinson"
      },
      "effectivePeriod": {
        "start": "2011-10-03T00:00:00+02:00"
      },
      "valueQuantity": {
        "value": 27.0,
        "unit": "[in_us]",
        "system": "http://unitsofmeasure.org",
        "code": "[in_us]"
      }
    }
  }, {
    "resource": {
      "resourceType": "Observation",
      "id": "e46d0d90-9781-43f3-a0ff-e75ba6147861",
      "identifier": [ {
        "use": "official",
        "value": "2.16.840.1.113883.3.3297.1.1.1.6.1.10.2"
      } ],
      "status": "final",
      "category": [ {
        "coding": [ {
          "system": "http://terminology.hl7.org/CodeSystem/observation-category",
          "code": "vital-signs",
          "display": "Vital Signs"
        } ]
      } ],
      "code": {
        "coding": [ {
          "system": "http://loinc.org",
          "code": "3141-9",
          "display": "Body Weight (Measured)"
        } ]
      },
      "subject": {
        "reference": "Patient/82ff9beb-e7b0-47bc-9f45-67a812ce7450",
        "display": "Timmy Wilkinson"
      },
      "effectivePeriod": {
        "start": "2011-07-01T00:00:00+02:00"
      },
      "valueQuantity": {
        "value": 13.8000,
        "unit": "[lb_av]",
        "system": "http://unitsofmeasure.org",
        "code": "[lb_av]"
      }
    }
  }, {
    "resource": {
      "resourceType": "Observation",
      "id": "dd13cfdc-7367-4fa8-874c-16fac977774d",
      "identifier": [ {
        "use": "official",
        "system": "urn:oid:2.16.840.1.113883.3.3297.1.1.1.6.1.10.4",
        "value": "1"
      } ],
      "status": "final",
      "category": [ {
        "coding": [ {
          "system": "http://terminology.hl7.org/CodeSystem/observation-category",
          "code": "vital-signs",
          "display": "Vital Signs"
        } ]
      } ],
      "code": {
        "coding": [ {
          "system": "http://loinc.org",
          "code": "8287-5",
          "display": "Head Circumference"
        } ]
      },
      "subject": {
        "reference": "Patient/82ff9beb-e7b0-47bc-9f45-67a812ce7450",
        "display": "Timmy Wilkinson"
      },
      "effectivePeriod": {
        "start": "2012-01-24T00:00:00+01:00"
      },
      "valueQuantity": {
        "value": 18.0,
        "unit": "[in_i]",
        "system": "http://unitsofmeasure.org",
        "code": "[in_i]"
      }
    }
  }, {
    "resource": {
      "resourceType": "Observation",
      "id": "fe3fb5a5-6cc5-4666-ab09-6f3fe14c438e",
      "identifier": [ {
        "use": "official",
        "system": "urn:oid:2.16.840.1.113883.3.3297.1.1.1.6.1.10.1",
        "value": "110"
      } ],
      "status": "final",
      "category": [ {
        "coding": [ {
          "system": "http://terminology.hl7.org/CodeSystem/observation-category",
          "code": "vital-signs",
          "display": "Vital Signs"
        } ]
      } ],
      "code": {
        "coding": [ {
          "system": "http://loinc.org",
          "code": "8302-2",
          "display": "Body Height (Measured)"
        } ]
      },
      "subject": {
        "reference": "Patient/82ff9beb-e7b0-47bc-9f45-67a812ce7450",
        "display": "Timmy Wilkinson"
      },
      "effectivePeriod": {
        "start": "2011-12-08T00:00:00+01:00"
      },
      "valueQuantity": {
        "value": 18.0,
        "unit": "[in_us]",
        "system": "http://unitsofmeasure.org",
        "code": "[in_us]"
      }
    }
  }, {
    "resource": {
      "resourceType": "Observation",
      "id": "e634861b-4750-4725-933f-2e2b7eebdeb7",
      "identifier": [ {
        "use": "official",
        "system": "urn:oid:2.16.840.1.113883.3.3297.1.1.1.6.1.10.3",
        "value": "11"
      } ],
      "status": "final",
      "category": [ {
        "coding": [ {
          "system": "http://terminology.hl7.org/CodeSystem/observation-category",
          "code": "vital-signs",
          "display": "Vital Signs"
        } ]
      } ],
      "code": {
        "coding": [ {
          "system": "http://loinc.org",
          "code": "39156-5",
          "display": "Body Mass Index"
        } ]
      },
      "subject": {
        "reference": "Patient/82ff9beb-e7b0-47bc-9f45-67a812ce7450",
        "display": "Timmy Wilkinson"
      },
      "valueQuantity": {
        "value": 15.4,
        "unit": "kg/m2",
        "system": "http://unitsofmeasure.org",
        "code": "kg/m2"
      }
    }
  }, {
    "resource": {
      "resourceType": "Observation",
      "id": "d3a88621-55e8-4a2a-9520-af99cfdd635a",
      "identifier": [ {
        "use": "official",
        "value": "2.16.840.1.113883.3.3297.1.1.1.6.1.10.2"
      } ],
      "status": "final",
      "category": [ {
        "coding": [ {
          "system": "http://terminology.hl7.org/CodeSystem/observation-category",
          "code": "vital-signs",
          "display": "Vital Signs"
        } ]
      } ],
      "code": {
        "coding": [ {
          "system": "http://loinc.org",
          "code": "3141-9",
          "display": "Body Weight (Measured)"
        } ]
      },
      "subject": {
        "reference": "Patient/82ff9beb-e7b0-47bc-9f45-67a812ce7450",
        "display": "Timmy Wilkinson"
      },
      "effectivePeriod": {
        "start": "2011-11-17T00:00:00+01:00"
      },
      "valueQuantity": {
        "value": 18.5000,
        "unit": "[lb_av]",
        "system": "http://unitsofmeasure.org",
        "code": "[lb_av]"
      }
    }
  }, {
    "resource": {
      "resourceType": "Observation",
      "id": "eb1dc43e-016c-43d1-8bb2-05a7fac8cc91",
      "identifier": [ {
        "use": "official",
        "value": "2.16.840.1.113883.3.3297.1.1.1.6.1.10.2"
      } ],
      "status": "final",
      "category": [ {
        "coding": [ {
          "system": "http://terminology.hl7.org/CodeSystem/observation-category",
          "code": "vital-signs",
          "display": "Vital Signs"
        } ]
      } ],
      "code": {
        "coding": [ {
          "system": "http://loinc.org",
          "code": "3141-9",
          "display": "Body Weight (Measured)"
        } ]
      },
      "subject": {
        "reference": "Patient/82ff9beb-e7b0-47bc-9f45-67a812ce7450",
        "display": "Timmy Wilkinson"
      },
      "effectivePeriod": {
        "start": "2013-01-28T00:00:00+01:00"
      },
      "valueQuantity": {
        "value": 27.0000,
        "unit": "[lb_av]",
        "system": "http://unitsofmeasure.org",
        "code": "[lb_av]"
      }
    }
  }, {
    "resource": {
      "resourceType": "Observation",
      "id": "992bb66c-45b5-400e-9483-baa29e06530a",
      "identifier": [ {
        "use": "official",
        "system": "urn:oid:2.16.840.1.113883.3.3297.1.1.1.6.1.10.1",
        "value": "189"
      } ],
      "status": "final",
      "category": [ {
        "coding": [ {
          "system": "http://terminology.hl7.org/CodeSystem/observation-category",
          "code": "vital-signs",
          "display": "Vital Signs"
        } ]
      } ],
      "code": {
        "coding": [ {
          "system": "http://loinc.org",
          "code": "8302-2",
          "display": "Body Height (Measured)"
        } ]
      },
      "subject": {
        "reference": "Patient/82ff9beb-e7b0-47bc-9f45-67a812ce7450",
        "display": "Timmy Wilkinson"
      },
      "effectivePeriod": {
        "start": "2013-01-28T00:00:00+01:00"
      },
      "valueQuantity": {
        "value": 34.0,
        "unit": "[in_us]",
        "system": "http://unitsofmeasure.org",
        "code": "[in_us]"
      }
    }
  }, {
    "resource": {
      "resourceType": "Observation",
      "id": "c870ca10-e174-4c9e-89bc-2f1de1281353",
      "identifier": [ {
        "use": "official",
        "system": "urn:oid:2.16.840.1.113883.3.3297.1.1.1.6.1.10.1",
        "value": "7"
      } ],
      "status": "final",
      "category": [ {
        "coding": [ {
          "system": "http://terminology.hl7.org/CodeSystem/observation-category",
          "code": "vital-signs",
          "display": "Vital Signs"
        } ]
      } ],
      "code": {
        "coding": [ {
          "system": "http://loinc.org",
          "code": "8302-2",
          "display": "Body Height (Measured)"
        } ]
      },
      "subject": {
        "reference": "Patient/82ff9beb-e7b0-47bc-9f45-67a812ce7450",
        "display": "Timmy Wilkinson"
      },
      "effectivePeriod": {
        "start": "2011-04-01T00:00:00+02:00"
      },
      "valueQuantity": {
        "value": 18.5,
        "unit": "[in_us]",
        "system": "http://unitsofmeasure.org",
        "code": "[in_us]"
      }
    }
  }, {
    "resource": {
      "resourceType": "Observation",
      "id": "563ef17b-cdac-4d96-a97d-1c6f000fa27b",
      "identifier": [ {
        "use": "official",
        "value": "2.16.840.1.113883.3.3297.1.1.1.6.1.10.2"
      } ],
      "status": "final",
      "category": [ {
        "coding": [ {
          "system": "http://terminology.hl7.org/CodeSystem/observation-category",
          "code": "vital-signs",
          "display": "Vital Signs"
        } ]
      } ],
      "code": {
        "coding": [ {
          "system": "http://loinc.org",
          "code": "3141-9",
          "display": "Body Weight (Measured)"
        } ]
      },
      "subject": {
        "reference": "Patient/82ff9beb-e7b0-47bc-9f45-67a812ce7450",
        "display": "Timmy Wilkinson"
      },
      "effectivePeriod": {
        "start": "2011-09-01T00:00:00+02:00"
      },
      "valueQuantity": {
        "value": 16.0000,
        "unit": "[lb_av]",
        "system": "http://unitsofmeasure.org",
        "code": "[lb_av]"
      }
    }
  }, {
    "resource": {
      "resourceType": "Observation",
      "id": "d0713766-68c7-4974-98e4-3f0b6e76b06b",
      "identifier": [ {
        "use": "official",
        "value": "2.16.840.1.113883.3.3297.1.1.1.6.1.10.2"
      } ],
      "status": "final",
      "category": [ {
        "coding": [ {
          "system": "http://terminology.hl7.org/CodeSystem/observation-category",
          "code": "vital-signs",
          "display": "Vital Signs"
        } ]
      } ],
      "code": {
        "coding": [ {
          "system": "http://loinc.org",
          "code": "3141-9",
          "display": "Body Weight (Measured)"
        } ]
      },
      "subject": {
        "reference": "Patient/82ff9beb-e7b0-47bc-9f45-67a812ce7450",
        "display": "Timmy Wilkinson"
      },
      "effectivePeriod": {
        "start": "2011-06-01T00:00:00+02:00"
      },
      "valueQuantity": {
        "value": 12.0000,
        "unit": "[lb_av]",
        "system": "http://unitsofmeasure.org",
        "code": "[lb_av]"
      }
    }
  }, {
    "resource": {
      "resourceType": "Observation",
      "id": "5f390ca0-4510-4dae-97a5-8209eecfd65e",
      "identifier": [ {
        "use": "official",
        "system": "urn:oid:2.16.840.1.113883.3.3297.1.1.1.6.1.10.3",
        "value": "3"
      } ],
      "status": "final",
      "category": [ {
        "coding": [ {
          "system": "http://terminology.hl7.org/CodeSystem/observation-category",
          "code": "vital-signs",
          "display": "Vital Signs"
        } ]
      } ],
      "code": {
        "coding": [ {
          "system": "http://loinc.org",
          "code": "39156-5",
          "display": "Body Mass Index"
        } ]
      },
      "subject": {
        "reference": "Patient/82ff9beb-e7b0-47bc-9f45-67a812ce7450",
        "display": "Timmy Wilkinson"
      },
      "valueQuantity": {
        "value": 15.7,
        "unit": "kg/m2",
        "system": "http://unitsofmeasure.org",
        "code": "kg/m2"
      }
    }
  }, {
    "resource": {
      "resourceType": "Observation",
      "id": "c5573381-76e4-46b6-ad2e-5745e35bdc69",
      "identifier": [ {
        "use": "official",
        "system": "urn:oid:2.16.840.1.113883.3.3297.1.1.1.6.1.10.3",
        "value": "134"
      } ],
      "status": "final",
      "category": [ {
        "coding": [ {
          "system": "http://terminology.hl7.org/CodeSystem/observation-category",
          "code": "vital-signs",
          "display": "Vital Signs"
        } ]
      } ],
      "code": {
        "coding": [ {
          "system": "http://loinc.org",
          "code": "39156-5",
          "display": "Body Mass Index"
        } ]
      },
      "subject": {
        "reference": "Patient/82ff9beb-e7b0-47bc-9f45-67a812ce7450",
        "display": "Timmy Wilkinson"
      },
      "valueQuantity": {
        "value": 16.9,
        "unit": "kg/m2",
        "system": "http://unitsofmeasure.org",
        "code": "kg/m2"
      }
    }
  }, {
    "resource": {
      "resourceType": "Observation",
      "id": "535192d0-ebc0-4828-8bc2-2d7117875b6d",
      "identifier": [ {
        "use": "official",
        "value": "2.16.840.1.113883.3.3297.1.1.1.6.1.10.2"
      } ],
      "status": "final",
      "category": [ {
        "coding": [ {
          "system": "http://terminology.hl7.org/CodeSystem/observation-category",
          "code": "vital-signs",
          "display": "Vital Signs"
        } ]
      } ],
      "code": {
        "coding": [ {
          "system": "http://loinc.org",
          "code": "3141-9",
          "display": "Body Weight (Measured)"
        } ]
      },
      "subject": {
        "reference": "Patient/82ff9beb-e7b0-47bc-9f45-67a812ce7450",
        "display": "Timmy Wilkinson"
      },
      "effectivePeriod": {
        "start": "2011-04-01T00:00:00+02:00"
      },
      "valueQuantity": {
        "value": 5.5000,
        "unit": "[lb_av]",
        "system": "http://unitsofmeasure.org",
        "code": "[lb_av]"
      }
    }
  }, {
    "resource": {
      "resourceType": "Observation",
      "id": "33d5f74c-ccf7-438f-8825-c31b66220c72",
      "identifier": [ {
        "use": "official",
        "system": "urn:oid:2.16.840.1.113883.3.3297.1.1.1.6.1.10.3",
        "value": "2"
      } ],
      "status": "final",
      "category": [ {
        "coding": [ {
          "system": "http://terminology.hl7.org/CodeSystem/observation-category",
          "code": "vital-signs",
          "display": "Vital Signs"
        } ]
      } ],
      "code": {
        "coding": [ {
          "system": "http://loinc.org",
          "code": "39156-5",
          "display": "Body Mass Index"
        } ]
      },
      "subject": {
        "reference": "Patient/82ff9beb-e7b0-47bc-9f45-67a812ce7450",
        "display": "Timmy Wilkinson"
      },
      "valueQuantity": {
        "value": 13.6,
        "unit": "kg/m2",
        "system": "http://unitsofmeasure.org",
        "code": "kg/m2"
      }
    }
  }, {
    "resource": {
      "resourceType": "Observation",
      "id": "92612dcf-016f-4112-b185-1f4db339fea3",
      "identifier": [ {
        "use": "official",
        "system": "urn:oid:2.16.840.1.113883.3.3297.1.1.1.6.1.10.1",
        "value": "4"
      } ],
      "status": "final",
      "category": [ {
        "coding": [ {
          "system": "http://terminology.hl7.org/CodeSystem/observation-category",
          "code": "vital-signs",
          "display": "Vital Signs"
        } ]
      } ],
      "code": {
        "coding": [ {
          "system": "http://loinc.org",
          "code": "8302-2",
          "display": "Body Height (Measured)"
        } ]
      },
      "subject": {
        "reference": "Patient/82ff9beb-e7b0-47bc-9f45-67a812ce7450",
        "display": "Timmy Wilkinson"
      },
      "effectivePeriod": {
        "start": "2011-07-01T00:00:00+02:00"
      },
      "valueQuantity": {
        "value": 24.5,
        "unit": "[in_us]",
        "system": "http://unitsofmeasure.org",
        "code": "[in_us]"
      }
    }
  }, {
    "resource": {
      "resourceType": "Immunization",
      "id": "77498376-6a09-4122-9c29-1cc7e39af2a7",
      "identifier": [ {
        "use": "official",
        "system": "urn:oid:2.16.840.1.113883.3.3297.1.1.1.6.1.12",
        "value": "16"
      } ],
      "status": "completed",
      "vaccineCode": {
        "coding": [ {
          "system": "http://www2a.cdc.gov/vaccines/iis/iisstandards/vaccines.asp?rpt=cvx",
          "code": "10",
          "display": "IPV"
        } ],
        "text": "Inactivated Poliovirus"
      },
      "patient": {
        "reference": "Patient/82ff9beb-e7b0-47bc-9f45-67a812ce7450",
        "display": "Timmy Wilkinson"
      },
      "occurrenceDateTime": "2011-11-04T00:00:00+01:00"
    }
  }, {
    "resource": {
      "resourceType": "Immunization",
      "id": "9e364ea8-b038-4790-acae-4f619a42fe5c",
      "identifier": [ {
        "use": "official",
        "system": "urn:oid:2.16.840.1.113883.3.3297.1.1.1.6.1.12",
        "value": "6"
      } ],
      "status": "completed",
      "vaccineCode": {
        "coding": [ {
          "system": "http://www2a.cdc.gov/vaccines/iis/iisstandards/vaccines.asp?rpt=cvx",
          "code": "10",
          "display": "IPV"
        } ],
        "text": "Inactivated Poliovirus"
      },
      "patient": {
        "reference": "Patient/82ff9beb-e7b0-47bc-9f45-67a812ce7450",
        "display": "Timmy Wilkinson"
      },
      "occurrenceDateTime": "2011-09-01T00:00:00+02:00"
    }
  }, {
    "resource": {
      "resourceType": "Immunization",
      "id": "7ceb3fbc-9e19-43ca-944e-53cf8d7199a8",
      "identifier": [ {
        "use": "official",
        "system": "urn:oid:2.16.840.1.113883.3.3297.1.1.1.6.1.12",
        "value": "11"
      } ],
      "status": "completed",
      "vaccineCode": {
        "coding": [ {
          "system": "http://www2a.cdc.gov/vaccines/iis/iisstandards/vaccines.asp?rpt=cvx",
          "code": "133",
          "display": "PCV"
        } ],
        "text": "Pneumococcal"
      },
      "patient": {
        "reference": "Patient/82ff9beb-e7b0-47bc-9f45-67a812ce7450",
        "display": "Timmy Wilkinson"
      },
      "occurrenceDateTime": "2011-09-09T00:00:00+02:00"
    }
  }, {
    "resource": {
      "resourceType": "Immunization",
      "id": "1e9fea12-a56f-4fd0-971d-feebb8aed57a",
      "identifier": [ {
        "use": "official",
        "system": "urn:oid:2.16.840.1.113883.3.3297.1.1.1.6.1.12",
        "value": "292"
      } ],
      "status": "completed",
      "vaccineCode": {
        "coding": [ {
          "system": "http://www2a.cdc.gov/vaccines/iis/iisstandards/vaccines.asp?rpt=cvx",
          "code": "85",
          "display": "HepA"
        } ],
        "text": "Hepatitis A"
      },
      "patient": {
        "reference": "Patient/82ff9beb-e7b0-47bc-9f45-67a812ce7450",
        "display": "Timmy Wilkinson"
      },
      "occurrenceDateTime": "2013-01-09T00:00:00+01:00"
    }
  }, {
    "resource": {
      "resourceType": "Immunization",
      "id": "e1f43594-31ea-48ab-8373-9aa5b8896e69",
      "identifier": [ {
        "use": "official",
        "system": "urn:oid:2.16.840.1.113883.3.3297.1.1.1.6.1.12",
        "value": "15"
      } ],
      "status": "completed",
      "vaccineCode": {
        "coding": [ {
          "system": "http://www2a.cdc.gov/vaccines/iis/iisstandards/vaccines.asp?rpt=cvx",
          "code": "10",
          "display": "IPV"
        } ],
        "text": "Inactivated Poliovirus"
      },
      "patient": {
        "reference": "Patient/82ff9beb-e7b0-47bc-9f45-67a812ce7450",
        "display": "Timmy Wilkinson"
      },
      "occurrenceDateTime": "2011-11-01T00:00:00+01:00"
    }
  }, {
    "resource": {
      "resourceType": "Immunization",
      "id": "32618f71-02b5-4ab1-ab47-3e0802a2e743",
      "identifier": [ {
        "use": "official",
        "system": "urn:oid:2.16.840.1.113883.3.3297.1.1.1.6.1.12",
        "value": "93"
      } ],
      "status": "completed",
      "vaccineCode": {
        "coding": [ {
          "system": "http://www2a.cdc.gov/vaccines/iis/iisstandards/vaccines.asp?rpt=cvx",
          "code": "17",
          "display": "Hib"
        } ],
        "text": "Haemophilus influenzae type b"
      },
      "patient": {
        "reference": "Patient/82ff9beb-e7b0-47bc-9f45-67a812ce7450",
        "display": "Timmy Wilkinson"
      },
      "occurrenceDateTime": "2012-01-01T00:00:00+01:00"
    }
  }, {
    "resource": {
      "resourceType": "Immunization",
      "id": "944bdf4c-225b-40c9-9d13-0152a98ad1b9",
      "identifier": [ {
        "use": "official",
        "system": "urn:oid:2.16.840.1.113883.3.3297.1.1.1.6.1.12",
        "value": "10"
      } ],
      "status": "completed",
      "vaccineCode": {
        "coding": [ {
          "system": "http://www2a.cdc.gov/vaccines/iis/iisstandards/vaccines.asp?rpt=cvx",
          "code": "17",
          "display": "Hib"
        } ],
        "text": "Haemophilus influenzae type b"
      },
      "patient": {
        "reference": "Patient/82ff9beb-e7b0-47bc-9f45-67a812ce7450",
        "display": "Timmy Wilkinson"
      },
      "occurrenceDateTime": "2011-09-09T00:00:00+02:00"
    }
  }, {
    "resource": {
      "resourceType": "Immunization",
      "id": "42be2987-4a62-45f6-a993-28161b5ea2d6",
      "identifier": [ {
        "use": "official",
        "system": "urn:oid:2.16.840.1.113883.3.3297.1.1.1.6.1.12",
        "value": "8"
      } ],
      "status": "completed",
      "vaccineCode": {
        "coding": [ {
          "system": "http://www2a.cdc.gov/vaccines/iis/iisstandards/vaccines.asp?rpt=cvx",
          "code": "122",
          "display": "RV"
        } ],
        "text": "Rotavirus"
      },
      "patient": {
        "reference": "Patient/82ff9beb-e7b0-47bc-9f45-67a812ce7450",
        "display": "Timmy Wilkinson"
      },
      "occurrenceDateTime": "2011-09-01T00:00:00+02:00"
    }
  }, {
    "resource": {
      "resourceType": "Immunization",
      "id": "2ec80965-5c3b-4391-b33c-c4684a43afbf",
      "identifier": [ {
        "use": "official",
        "system": "urn:oid:2.16.840.1.113883.3.3297.1.1.1.6.1.12",
        "value": "319"
      } ],
      "status": "completed",
      "vaccineCode": {
        "coding": [ {
          "system": "http://www2a.cdc.gov/vaccines/iis/iisstandards/vaccines.asp?rpt=cvx",
          "code": "107",
          "display": "DTaP"
        } ],
        "text": "Diphtheria, Tetanus, Pertussis"
      },
      "patient": {
        "reference": "Patient/82ff9beb-e7b0-47bc-9f45-67a812ce7450",
        "display": "Timmy Wilkinson"
      },
      "occurrenceDateTime": "2013-05-01T00:00:00+02:00"
    }
  }, {
    "resource": {
      "resourceType": "Immunization",
      "id": "8ae38e8a-20c9-4fb5-b03a-d70a7c40a4b9",
      "identifier": [ {
        "use": "official",
        "system": "urn:oid:2.16.840.1.113883.3.3297.1.1.1.6.1.12",
        "value": "99"
      } ],
      "status": "completed",
      "vaccineCode": {
        "coding": [ {
          "system": "http://www2a.cdc.gov/vaccines/iis/iisstandards/vaccines.asp?rpt=cvx",
          "code": "133",
          "display": "PCV"
        } ],
        "text": "Pneumococcal"
      },
      "patient": {
        "reference": "Patient/82ff9beb-e7b0-47bc-9f45-67a812ce7450",
        "display": "Timmy Wilkinson"
      },
      "occurrenceDateTime": "2012-01-01T00:00:00+01:00"
    }
  }, {
    "resource": {
      "resourceType": "Immunization",
      "id": "854654e7-b373-4b76-86af-bc6fade031d2",
      "identifier": [ {
        "use": "official",
        "system": "urn:oid:2.16.840.1.113883.3.3297.1.1.1.6.1.12",
        "value": "100"
      } ],
      "status": "completed",
      "vaccineCode": {
        "coding": [ {
          "system": "http://www2a.cdc.gov/vaccines/iis/iisstandards/vaccines.asp?rpt=cvx",
          "code": "122",
          "display": "RV"
        } ],
        "text": "Rotavirus"
      },
      "patient": {
        "reference": "Patient/82ff9beb-e7b0-47bc-9f45-67a812ce7450",
        "display": "Timmy Wilkinson"
      },
      "occurrenceDateTime": "2012-01-03T00:00:00+01:00"
    }
  }, {
    "resource": {
      "resourceType": "Immunization",
      "id": "76c5be4c-9098-4857-9307-54149ea998c5",
      "identifier": [ {
        "use": "official",
        "system": "urn:oid:2.16.840.1.113883.3.3297.1.1.1.6.1.12",
        "value": "5"
      } ],
      "status": "completed",
      "vaccineCode": {
        "coding": [ {
          "system": "http://www2a.cdc.gov/vaccines/iis/iisstandards/vaccines.asp?rpt=cvx",
          "code": "45",
          "display": "HepB"
        } ],
        "text": "Hepatitis B"
      },
      "patient": {
        "reference": "Patient/82ff9beb-e7b0-47bc-9f45-67a812ce7450",
        "display": "Timmy Wilkinson"
      },
      "occurrenceDateTime": "2011-09-01T00:00:00+02:00"
    }
  }, {
    "resource": {
      "resourceType": "Immunization",
      "id": "67bd94e0-568f-41d2-bc40-ba1e7a148745",
      "identifier": [ {
        "use": "official",
        "system": "urn:oid:2.16.840.1.113883.3.3297.1.1.1.6.1.12",
        "value": "1"
      } ],
      "status": "completed",
      "vaccineCode": {
        "coding": [ {
          "system": "http://www2a.cdc.gov/vaccines/iis/iisstandards/vaccines.asp?rpt=cvx",
          "code": "88",
          "display": "Flu"
        } ],
        "text": "Influenza"
      },
      "patient": {
        "reference": "Patient/82ff9beb-e7b0-47bc-9f45-67a812ce7450",
        "display": "Timmy Wilkinson"
      },
      "occurrenceDateTime": "2011-08-13T00:00:00+02:00"
    }
  }, {
    "resource": {
      "resourceType": "Immunization",
      "id": "3039eadf-a1c4-47e6-84bc-8a4acf70440c",
      "identifier": [ {
        "use": "official",
        "system": "urn:oid:2.16.840.1.113883.3.3297.1.1.1.6.1.12",
        "value": "2"
      } ],
      "status": "completed",
      "vaccineCode": {
        "coding": [ {
          "system": "http://www2a.cdc.gov/vaccines/iis/iisstandards/vaccines.asp?rpt=cvx",
          "code": "107",
          "display": "DTaP"
        } ],
        "text": "Diphtheria, Tetanus, Pertussis"
      },
      "patient": {
        "reference": "Patient/82ff9beb-e7b0-47bc-9f45-67a812ce7450",
        "display": "Timmy Wilkinson"
      },
      "occurrenceDateTime": "2011-09-01T00:00:00+02:00"
    }
  }, {
    "resource": {
      "resourceType": "Immunization",
      "id": "b0633f03-1a9d-4762-bf48-4e734deada84",
      "identifier": [ {
        "use": "official",
        "system": "urn:oid:2.16.840.1.113883.3.3297.1.1.1.6.1.12",
        "value": "12"
      } ],
      "status": "completed",
      "vaccineCode": {
        "coding": [ {
          "system": "http://www2a.cdc.gov/vaccines/iis/iisstandards/vaccines.asp?rpt=cvx",
          "code": "122",
          "display": "RV"
        } ],
        "text": "Rotavirus"
      },
      "patient": {
        "reference": "Patient/82ff9beb-e7b0-47bc-9f45-67a812ce7450",
        "display": "Timmy Wilkinson"
      },
      "occurrenceDateTime": "2011-09-09T00:00:00+02:00"
    }
  }, {
    "resource": {
      "resourceType": "Immunization",
      "id": "05541319-38c1-43af-b777-7d68d2324087",
      "identifier": [ {
        "use": "official",
        "system": "urn:oid:2.16.840.1.113883.3.3297.1.1.1.6.1.12",
        "value": "3"
      } ],
      "status": "completed",
      "vaccineCode": {
        "coding": [ {
          "system": "http://www2a.cdc.gov/vaccines/iis/iisstandards/vaccines.asp?rpt=cvx",
          "code": "17",
          "display": "Hib"
        } ],
        "text": "Haemophilus influenzae type b"
      },
      "patient": {
        "reference": "Patient/82ff9beb-e7b0-47bc-9f45-67a812ce7450",
        "display": "Timmy Wilkinson"
      },
      "occurrenceDateTime": "2011-09-01T00:00:00+02:00"
    }
  }, {
    "resource": {
      "resourceType": "Immunization",
      "id": "b876a3cd-fed1-4eb9-a940-dd60bd591555",
      "identifier": [ {
        "use": "official",
        "system": "urn:oid:2.16.840.1.113883.3.3297.1.1.1.6.1.12",
        "value": "9"
      } ],
      "status": "completed",
      "vaccineCode": {
        "coding": [ {
          "system": "http://www2a.cdc.gov/vaccines/iis/iisstandards/vaccines.asp?rpt=cvx",
          "code": "107",
          "display": "DTaP"
        } ],
        "text": "Diphtheria, Tetanus, Pertussis"
      },
      "patient": {
        "reference": "Patient/82ff9beb-e7b0-47bc-9f45-67a812ce7450",
        "display": "Timmy Wilkinson"
      },
      "occurrenceDateTime": "2011-09-09T00:00:00+02:00"
    }
  }, {
    "resource": {
      "resourceType": "Immunization",
      "id": "e271afde-1eb8-4996-a509-25c67af10de9",
      "identifier": [ {
        "use": "official",
        "system": "urn:oid:2.16.840.1.113883.3.3297.1.1.1.6.1.12",
        "value": "7"
      } ],
      "status": "completed",
      "vaccineCode": {
        "coding": [ {
          "system": "http://www2a.cdc.gov/vaccines/iis/iisstandards/vaccines.asp?rpt=cvx",
          "code": "133",
          "display": "PCV"
        } ],
        "text": "Pneumococcal"
      },
      "patient": {
        "reference": "Patient/82ff9beb-e7b0-47bc-9f45-67a812ce7450",
        "display": "Timmy Wilkinson"
      },
      "occurrenceDateTime": "2011-09-01T00:00:00+02:00"
    }
  }, {
    "resource": {
      "resourceType": "Immunization",
      "id": "5290e309-fd67-41be-b14b-add0d1cfa65e",
      "identifier": [ {
        "use": "official",
        "system": "urn:oid:2.16.840.1.113883.3.3297.1.1.1.6.1.12",
        "value": "4"
      } ],
      "status": "completed",
      "vaccineCode": {
        "coding": [ {
          "system": "http://www2a.cdc.gov/vaccines/iis/iisstandards/vaccines.asp?rpt=cvx",
          "code": "45",
          "display": "HepB"
        } ],
        "text": "Hepatitis B"
      },
      "patient": {
        "reference": "Patient/82ff9beb-e7b0-47bc-9f45-67a812ce7450",
        "display": "Timmy Wilkinson"
      },
      "occurrenceDateTime": "2011-07-01T00:00:00+02:00"
    }
  }, {
    "resource": {
      "resourceType": "AllergyIntolerance",
      "id": "ac623802-2c3c-4f2a-a95b-bb0c3c2d30a1",
      "identifier": [ {
        "use": "official",
        "system": "urn:oid:2.16.840.1.113883.3.3297.1.1.1.6.1.11",
        "value": "2"
      } ],
      "clinicalStatus": {
        "coding": [ {
          "system": "http://terminology.hl7.org/CodeSystem/allergyintolerance-clinical",
          "code": "active",
          "display": "Active"
        } ]
      },
      "verificationStatus": {
        "coding": [ {
          "system": "http://terminology.hl7.org/CodeSystem/allergyintolerance-verification",
          "code": "confirmed",
          "display": "Confirmed"
        } ]
      },
      "type": "allergy",
      "category": [ "environment" ],
      "code": {
        "coding": [ {
          "system": "urn:oid:2.2.16.840.1.113883.4.9",
          "code": "1564HD0N96",
          "display": "cat hair"
        } ]
      },
      "patient": {
        "reference": "Patient/82ff9beb-e7b0-47bc-9f45-67a812ce7450",
        "display": "Timmy Wilkinson"
      },
      "recordedDate": "2013-07-01",
      "reaction": [ {
        "manifestation": [ {
          "coding": [ {
            "system": "http://snomed.info/sct",
            "code": "64144002",
            "display": "Rash"
          } ]
        } ],
        "onset": "1960-01-01",
        "severity": "moderate"
      } ]
    }
  } ]
}